
 ROSSELAND MASS ABSORPTION COEFFICENTS
 logT logP  0km/s  1km/s  2km/s  4km/s  8km/s  log Ne   log Na  log rho IPloCM-1
 3.32-2.00 -5.850 -5.843 -5.832 -5.810 -5.784  3.96544 10.54033-13.13371
 3.32-1.50 -5.870 -5.863 -5.851 -5.829 -5.802  4.40261 11.04139-12.63283
 3.32-1.00 -5.881 -5.874 -5.862 -5.840 -5.812  4.85697 11.54419-12.12995
 3.32-0.50 -5.887 -5.881 -5.868 -5.845 -5.817  5.30428 12.05231-11.62160
 3.32 0.00 -5.886 -5.879 -5.866 -5.843 -5.815  5.73973 12.57368-11.10034
 3.32 0.50 -5.875 -5.867 -5.855 -5.832 -5.805  6.17464 13.11494-10.55925
 3.32 1.00 -5.853 -5.847 -5.834 -5.812 -5.786  6.61606 13.66829-10.00577
 3.32 1.25 -5.837 -5.830 -5.818 -5.797 -5.771  6.83932 13.94330 -9.73071
 3.32 1.50 -5.817 -5.811 -5.798 -5.778 -5.753  7.06258 14.21643 -9.45755
 3.32 1.75 -5.795 -5.788 -5.776 -5.756 -5.731  7.28053 14.48542 -9.18863
 3.32 2.00 -5.770 -5.764 -5.753 -5.733 -5.709  7.49248 14.75113 -8.92300
 3.32 2.25 -5.744 -5.737 -5.727 -5.709 -5.685  7.69133 15.01336 -8.66078
 3.32 2.50 -5.717 -5.711 -5.701 -5.684 -5.661  7.87956 15.27300 -8.40110
 3.32 2.75 -5.687 -5.681 -5.672 -5.657 -5.636  8.05589 15.53044 -8.14354
 3.32 3.00 -5.654 -5.649 -5.642 -5.627 -5.607  8.22453 15.78618 -7.88773
 3.32 3.20 -5.625 -5.621 -5.614 -5.600 -5.581  8.35389 15.98972 -7.68427
 3.32 3.40 -5.593 -5.589 -5.583 -5.570 -5.553  8.48185 16.19260 -7.48145
 3.32 3.60 -5.557 -5.553 -5.548 -5.537 -5.521  8.60840 16.39489 -7.27919
 3.32 3.80 -5.516 -5.514 -5.509 -5.499 -5.485  8.73458 16.59677 -7.07731
 3.32 4.00 -5.471 -5.469 -5.465 -5.457 -5.444  8.86076 16.79824 -6.87582
 3.32 4.20 -5.427 -5.425 -5.421 -5.413 -5.400  8.98893 16.99933 -6.67473
 3.32 4.40 -5.377 -5.375 -5.371 -5.363 -5.350  9.11821 17.20022 -6.47383
 3.32 4.60 -5.322 -5.320 -5.316 -5.308 -5.295  9.24913 17.40096 -6.27308
 3.32 4.80 -5.263 -5.260 -5.257 -5.249 -5.236  9.38084 17.60159 -6.07244
 3.32 5.00 -5.196 -5.194 -5.190 -5.182 -5.169  9.51255 17.80209 -5.87193
 3.32 5.20 -5.122 -5.120 -5.116 -5.108 -5.096  9.64273 18.00238 -5.67161
 3.32 5.40 -5.038 -5.037 -5.033 -5.025 -5.013  9.77131 18.20264 -5.47133
 3.32 5.60 -4.943 -4.941 -4.937 -4.930 -4.918  9.89724 18.40289 -5.27107
 3.32 5.80 -4.832 -4.830 -4.826 -4.819 -4.808 10.01946 18.60312 -5.07083
 3.32 6.00 -4.702 -4.700 -4.697 -4.690 -4.679 10.13862 18.80332 -4.87063
 3.32 6.25 -4.507 -4.505 -4.502 -4.496 -4.486 10.28278 19.05350 -4.62061
 3.32 6.50 -4.267 -4.266 -4.263 -4.258 -4.250 10.42292 19.30363 -4.37059
 3.32 6.75 -3.974 -3.973 -3.971 -3.967 -3.961 10.55955 19.55368 -4.12045
 3.32 7.00 -3.771 -3.770 -3.769 -3.765 -3.760 10.69346 19.80373 -3.87031
 3.32 7.25 -3.646 -3.645 -3.643 -3.640 -3.635 10.82512 20.05379 -3.62029
 3.32 7.50 -3.522 -3.521 -3.519 -3.516 -3.513 10.95506 20.30384 -3.37028
 3.32 7.75 -3.402 -3.401 -3.399 -3.397 -3.394 11.08378 20.55387 -3.12029
 3.32 8.00 -3.287 -3.286 -3.285 -3.282 -3.279 11.21112 20.80387 -2.87031
 3.34-2.00 -5.729 -5.722 -5.710 -5.688 -5.660  4.15715 10.51996-13.15410
 3.34-1.50 -5.775 -5.769 -5.756 -5.733 -5.706  4.52114 11.02036-12.65384
 3.34-1.00 -5.800 -5.793 -5.780 -5.757 -5.729  4.92650 11.52114-12.15292
 3.34-0.50 -5.802 -5.795 -5.782 -5.759 -5.729  5.36605 12.02366-11.65033
 3.34 0.00 -5.787 -5.780 -5.766 -5.742 -5.713  5.81485 12.53199-11.14213
 3.34 0.50 -5.756 -5.748 -5.735 -5.712 -5.683  6.25696 13.05269-10.62142
 3.34 1.00 -5.716 -5.708 -5.695 -5.672 -5.644  6.69609 13.59329-10.08076
 3.34 1.25 -5.693 -5.685 -5.672 -5.649 -5.621  6.91593 13.87002 -9.80415
 3.34 1.50 -5.667 -5.659 -5.646 -5.623 -5.595  7.13577 14.14675 -9.52754
 3.34 1.75 -5.637 -5.629 -5.616 -5.594 -5.566  7.35548 14.42190 -9.25232
 3.34 2.00 -5.604 -5.596 -5.584 -5.562 -5.535  7.57496 14.69522 -8.97881
 3.34 2.25 -5.567 -5.560 -5.548 -5.528 -5.501  7.79112 14.96434 -8.70973
 3.34 2.50 -5.529 -5.523 -5.512 -5.493 -5.467  8.00303 15.23019 -8.44394
 3.34 2.75 -5.491 -5.485 -5.475 -5.457 -5.433  8.20385 15.49262 -8.18142
 3.34 3.00 -5.452 -5.447 -5.438 -5.422 -5.399  8.39498 15.75243 -7.92154
 3.34 3.20 -5.421 -5.416 -5.408 -5.393 -5.373  8.53903 15.95858 -7.71546
 3.34 3.40 -5.389 -5.384 -5.378 -5.364 -5.345  8.67777 16.16364 -7.51046
 3.34 3.60 -5.355 -5.352 -5.345 -5.334 -5.316  8.81077 16.36765 -7.30652
 3.34 3.80 -5.319 -5.317 -5.311 -5.301 -5.285  8.94038 16.57094 -7.10327
 3.34 4.00 -5.281 -5.279 -5.274 -5.265 -5.251  9.06781 16.77357 -6.90067
 3.34 4.20 -5.244 -5.242 -5.238 -5.229 -5.215  9.19328 16.97567 -6.69855
 3.34 4.40 -5.204 -5.202 -5.197 -5.189 -5.175  9.31874 17.17737 -6.49682
 3.34 4.60 -5.160 -5.158 -5.154 -5.145 -5.132  9.44457 17.37867 -6.29544
 3.34 4.80 -5.113 -5.111 -5.107 -5.098 -5.085  9.57126 17.57972 -6.09433
 3.34 5.00 -5.061 -5.059 -5.055 -5.046 -5.033  9.69862 17.78053 -5.89347
 3.34 5.20 -5.006 -5.004 -5.000 -4.991 -4.978  9.82765 17.98119 -5.69289
 3.34 5.40 -4.946 -4.944 -4.940 -4.932 -4.919  9.95668 18.18172 -5.49242
 3.34 5.60 -4.883 -4.881 -4.877 -4.869 -4.856 10.08528 18.38215 -5.29204
 3.34 5.80 -4.816 -4.814 -4.810 -4.802 -4.790 10.21251 18.58250 -5.09171
 3.34 6.00 -4.747 -4.745 -4.741 -4.733 -4.721 10.33846 18.78276 -4.89144
 3.34 6.25 -4.658 -4.656 -4.653 -4.646 -4.634 10.49096 19.03292 -4.64115
 3.34 6.50 -4.568 -4.566 -4.563 -4.556 -4.545 10.63919 19.28308 -4.39094
 3.34 6.75 -4.477 -4.475 -4.472 -4.465 -4.455 10.78258 19.53328 -4.14085
 3.34 7.00 -4.386 -4.385 -4.382 -4.375 -4.366 10.92215 19.78348 -3.89076
 3.34 7.25 -4.296 -4.294 -4.292 -4.285 -4.277 11.05827 20.03350 -3.64064
 3.34 7.50 -4.206 -4.205 -4.202 -4.196 -4.188 11.19173 20.28353 -3.39051
 3.34 7.75 -4.118 -4.116 -4.113 -4.108 -4.101 11.32324 20.53359 -3.14045
 3.34 8.00 -4.029 -4.027 -4.025 -4.020 -4.014 11.45255 20.78369 -2.89042
 3.36-2.00 -5.567 -5.561 -5.547 -5.525 -5.497  4.42045 10.49996-13.17418
 3.36-1.50 -5.637 -5.630 -5.616 -5.593 -5.565  4.74966 10.99996-12.67407
 3.36-1.00 -5.690 -5.682 -5.669 -5.646 -5.616  5.09202 11.50024-12.17380
 3.36-0.50 -5.715 -5.708 -5.694 -5.670 -5.640  5.46657 12.00130-11.67285
 3.36 0.00 -5.705 -5.698 -5.684 -5.660 -5.630  5.88213 12.50406-11.17005
 3.36 0.50 -5.664 -5.657 -5.643 -5.618 -5.589  6.32346 13.01242-10.66194
 3.36 1.00 -5.600 -5.591 -5.577 -5.553 -5.523  6.76886 13.53339-10.14068
 3.36 1.25 -5.562 -5.553 -5.539 -5.514 -5.485  6.99095 13.80201 -9.87206
 3.36 1.50 -5.522 -5.513 -5.499 -5.474 -5.444  7.21245 14.07445 -9.59964
 3.36 1.75 -5.480 -5.472 -5.458 -5.434 -5.404  7.43309 14.35116 -9.32294
 3.36 2.00 -5.437 -5.430 -5.416 -5.392 -5.363  7.65263 14.62788 -9.04624
 3.36 2.25 -5.392 -5.385 -5.372 -5.350 -5.322  7.87065 14.90292 -8.77118
 3.36 2.50 -5.346 -5.339 -5.327 -5.307 -5.279  8.08672 15.17609 -8.49798
 3.36 2.75 -5.297 -5.291 -5.280 -5.261 -5.235  8.30030 15.44513 -8.22904
 3.36 3.00 -5.247 -5.242 -5.232 -5.215 -5.191  8.50987 15.71088 -7.96337
 3.36 3.20 -5.207 -5.203 -5.194 -5.178 -5.156  8.67127 15.92086 -7.75329
 3.36 3.40 -5.168 -5.163 -5.156 -5.142 -5.121  8.82719 16.12919 -7.54487
 3.36 3.60 -5.129 -5.125 -5.118 -5.105 -5.087  8.97641 16.33595 -7.33811
 3.36 3.80 -5.089 -5.086 -5.080 -5.068 -5.051  9.11902 16.54153 -7.13257
 3.36 4.00 -5.048 -5.046 -5.041 -5.031 -5.015  9.25624 16.74601 -6.92812
 3.36 4.20 -5.011 -5.008 -5.004 -4.994 -4.979  9.38791 16.94952 -6.72455
 3.36 4.40 -4.971 -4.969 -4.964 -4.955 -4.941  9.51688 17.15239 -6.52165
 3.36 4.60 -4.929 -4.927 -4.923 -4.914 -4.899  9.64279 17.35468 -6.31940
 3.36 4.80 -4.885 -4.883 -4.878 -4.869 -4.856  9.76767 17.55657 -6.11759
 3.36 5.00 -4.836 -4.834 -4.829 -4.821 -4.807  9.89254 17.75808 -5.91614
 3.36 5.20 -4.783 -4.782 -4.777 -4.768 -4.755 10.01756 17.95923 -5.71492
 3.36 5.40 -4.726 -4.723 -4.719 -4.711 -4.698 10.14279 18.16016 -5.51393
 3.36 5.60 -4.662 -4.660 -4.656 -4.648 -4.635 10.26884 18.36091 -5.31321
 3.36 5.80 -4.594 -4.592 -4.588 -4.580 -4.568 10.39558 18.56153 -5.11266
 3.36 6.00 -4.522 -4.520 -4.516 -4.509 -4.496 10.52231 18.76200 -4.91222
 3.36 6.25 -4.427 -4.426 -4.423 -4.415 -4.404 10.67903 19.01238 -4.66177
 3.36 6.50 -4.331 -4.329 -4.325 -4.319 -4.309 10.83379 19.26269 -4.41139
 3.36 6.75 -4.233 -4.232 -4.229 -4.222 -4.213 10.98416 19.51297 -4.16106
 3.36 7.00 -4.136 -4.135 -4.132 -4.126 -4.118 11.13066 19.76320 -3.91080
 3.36 7.25 -4.040 -4.039 -4.036 -4.032 -4.024 11.27258 20.01330 -3.66070
 3.36 7.50 -3.947 -3.946 -3.943 -3.938 -3.932 11.41095 20.26340 -3.41061
 3.36 7.75 -3.856 -3.854 -3.852 -3.848 -3.841 11.54642 20.51352 -3.16052
 3.36 8.00 -3.766 -3.765 -3.763 -3.759 -3.753 11.67879 20.76365 -2.91045
 3.38-2.00 -5.401 -5.394 -5.382 -5.359 -5.332  4.66153 10.47986-13.19423
 3.38-1.50 -5.473 -5.466 -5.453 -5.429 -5.401  5.00732 10.97987-12.69422
 3.38-1.00 -5.542 -5.534 -5.520 -5.497 -5.467  5.33746 11.48001-12.19409
 3.38-0.50 -5.593 -5.585 -5.571 -5.546 -5.516  5.66848 11.98028-11.69379
 3.38 0.00 -5.610 -5.602 -5.588 -5.563 -5.532  6.01995 12.48130-11.19280
 3.38 0.50 -5.583 -5.575 -5.560 -5.535 -5.504  6.40892 12.98426-10.68973
 3.38 1.00 -5.510 -5.501 -5.487 -5.462 -5.431  6.83468 13.49318-10.18098
 3.38 1.25 -5.459 -5.451 -5.436 -5.411 -5.379  7.05584 13.75227 -9.92189
 3.38 1.50 -5.403 -5.394 -5.380 -5.354 -5.323  7.27830 14.01536 -9.65876
 3.38 1.75 -5.344 -5.335 -5.321 -5.296 -5.264  7.50161 14.28468 -9.38945
 3.38 2.00 -5.283 -5.275 -5.261 -5.237 -5.205  7.72493 14.55763 -9.11651
 3.38 2.25 -5.224 -5.216 -5.203 -5.180 -5.150  7.94656 14.83445 -8.83970
 3.38 2.50 -5.165 -5.158 -5.146 -5.124 -5.096  8.16643 15.11126 -8.56288
 3.38 2.75 -5.106 -5.099 -5.088 -5.069 -5.042  8.38310 15.38608 -8.28804
 3.38 3.00 -5.045 -5.040 -5.030 -5.012 -4.987  8.59682 15.65877 -8.01529
 3.38 3.20 -4.996 -4.991 -4.982 -4.965 -4.942  8.76595 15.87386 -7.80026
 3.38 3.40 -4.947 -4.942 -4.934 -4.919 -4.897  8.93235 16.08685 -7.58731
 3.38 3.60 -4.897 -4.892 -4.885 -4.872 -4.852  9.09529 16.29765 -7.37652
 3.38 3.80 -4.847 -4.843 -4.837 -4.825 -4.807  9.25313 16.50660 -7.16754
 3.38 4.00 -4.797 -4.795 -4.789 -4.779 -4.763  9.40603 16.71391 -6.96019
 3.38 4.20 -4.753 -4.750 -4.745 -4.736 -4.720  9.55156 16.91977 -6.75430
 3.38 4.40 -4.708 -4.705 -4.701 -4.691 -4.676  9.69182 17.12458 -6.54947
 3.38 4.60 -4.663 -4.661 -4.657 -4.647 -4.633  9.82638 17.32842 -6.34566
 3.38 4.80 -4.619 -4.616 -4.612 -4.604 -4.589  9.95697 17.53157 -6.14254
 3.38 5.00 -4.571 -4.569 -4.565 -4.556 -4.543 10.08458 17.73408 -5.94006
 3.38 5.20 -4.521 -4.520 -4.515 -4.507 -4.493 10.20924 17.93605 -5.73809
 3.38 5.40 -4.468 -4.465 -4.462 -4.453 -4.440 10.33351 18.13764 -5.53648
 3.38 5.60 -4.409 -4.406 -4.403 -4.395 -4.382 10.45742 18.33888 -5.33519
 3.38 5.80 -4.345 -4.342 -4.339 -4.331 -4.319 10.58126 18.53988 -5.13413
 3.38 6.00 -4.275 -4.274 -4.270 -4.263 -4.252 10.70509 18.74068 -4.93330
 3.38 6.25 -4.183 -4.181 -4.178 -4.172 -4.161 10.86065 18.99146 -4.68256
 3.38 6.50 -4.086 -4.084 -4.081 -4.075 -4.065 11.01620 19.24205 -4.43203
 3.38 6.75 -3.986 -3.985 -3.982 -3.976 -3.967 11.17006 19.49247 -4.18174
 3.38 7.00 -3.886 -3.884 -3.882 -3.876 -3.869 11.32201 19.74280 -3.93144
 3.38 7.25 -3.787 -3.785 -3.783 -3.778 -3.771 11.46978 19.99308 -3.68115
 3.38 7.50 -3.690 -3.689 -3.686 -3.682 -3.676 11.61395 20.24329 -3.43086
 3.38 7.75 -3.596 -3.595 -3.593 -3.589 -3.583 11.75433 20.49343 -3.18073
 3.38 8.00 -3.505 -3.504 -3.502 -3.499 -3.493 11.89098 20.74351 -2.93070
 3.40-2.00 -5.260 -5.253 -5.241 -5.219 -5.193  4.83078 10.45984-13.21424
 3.40-1.50 -5.319 -5.312 -5.298 -5.275 -5.248  5.21958 10.95985-12.71422
 3.40-1.00 -5.383 -5.375 -5.361 -5.338 -5.308  5.57830 11.45985-12.21417
 3.40-0.50 -5.443 -5.435 -5.421 -5.395 -5.365  5.91450 11.96000-11.71399
 3.40 0.00 -5.481 -5.473 -5.458 -5.433 -5.401  6.24204 12.46045-11.21375
 3.40 0.50 -5.479 -5.471 -5.456 -5.430 -5.398  6.57910 12.96142-10.71265
 3.40 1.00 -5.422 -5.414 -5.399 -5.373 -5.340  6.94512 13.46494-10.20922
 3.40 1.25 -5.372 -5.364 -5.349 -5.322 -5.290  7.14385 13.71869 -9.95542
 3.40 1.50 -5.310 -5.302 -5.287 -5.260 -5.228  7.35122 13.97460 -9.69940
 3.40 1.75 -5.238 -5.230 -5.215 -5.189 -5.157  7.56748 14.23463 -9.43940
 3.40 2.00 -5.160 -5.152 -5.138 -5.113 -5.082  7.78767 14.49886 -9.17522
 3.40 2.25 -5.079 -5.072 -5.059 -5.036 -5.005  8.01122 14.76931 -8.90482
 3.40 2.50 -4.999 -4.992 -4.980 -4.958 -4.930  8.23477 15.04297 -8.63116
 3.40 2.75 -4.920 -4.914 -4.903 -4.883 -4.856  8.45676 15.31978 -8.35429
 3.40 3.00 -4.844 -4.838 -4.828 -4.810 -4.785  8.67688 15.59660 -8.07743
 3.40 3.20 -4.783 -4.778 -4.769 -4.752 -4.729  8.84959 15.81631 -7.85778
 3.40 3.40 -4.723 -4.718 -4.710 -4.695 -4.673  9.01990 16.03449 -7.63968
 3.40 3.60 -4.662 -4.658 -4.651 -4.637 -4.617  9.18805 16.25051 -7.42367
 3.40 3.80 -4.602 -4.598 -4.592 -4.579 -4.561  9.35359 16.46395 -7.21014
 3.40 4.00 -4.541 -4.538 -4.533 -4.522 -4.506  9.51614 16.67532 -6.99870
 3.40 4.20 -4.485 -4.482 -4.478 -4.468 -4.453  9.67466 16.88462 -6.78949
 3.40 4.40 -4.431 -4.428 -4.424 -4.414 -4.400  9.82860 17.09235 -6.58184
 3.40 4.60 -4.378 -4.376 -4.372 -4.363 -4.349  9.97696 17.29854 -6.37570
 3.40 4.80 -4.328 -4.327 -4.322 -4.314 -4.301 10.11937 17.50360 -6.17065
 3.40 5.00 -4.279 -4.277 -4.272 -4.264 -4.251 10.25672 17.70766 -5.96658
 3.40 5.20 -4.229 -4.227 -4.223 -4.216 -4.203 10.38858 17.91087 -5.76332
 3.40 5.40 -4.178 -4.176 -4.172 -4.164 -4.152 10.51735 18.11349 -5.56066
 3.40 5.60 -4.123 -4.121 -4.117 -4.110 -4.099 10.64290 18.31555 -5.35855
 3.40 5.80 -4.064 -4.063 -4.059 -4.052 -4.041 10.76690 18.51724 -5.15682
 3.40 6.00 -4.001 -4.000 -3.997 -3.991 -3.980 10.89003 18.71859 -4.95546
 3.40 6.25 -3.918 -3.916 -3.913 -3.907 -3.898 11.04311 18.96990 -4.70418
 3.40 6.50 -3.827 -3.825 -3.823 -3.817 -3.808 11.19618 19.22089 -4.45321
 3.40 6.75 -3.732 -3.730 -3.728 -3.723 -3.715 11.34924 19.47159 -4.20249
 3.40 7.00 -3.634 -3.632 -3.630 -3.626 -3.618 11.50229 19.72214 -3.95195
 3.40 7.25 -3.535 -3.534 -3.531 -3.527 -3.521 11.65314 19.97262 -3.70155
 3.40 7.50 -3.437 -3.436 -3.434 -3.430 -3.424 11.80182 20.22298 -3.45124
 3.40 7.75 -3.341 -3.340 -3.338 -3.335 -3.330 11.94676 20.47320 -3.20098
 3.40 8.00 -3.249 -3.248 -3.246 -3.243 -3.239 12.08849 20.72329 -2.95078
 3.42-2.00 -5.154 -5.148 -5.136 -5.115 -5.090  4.92717 10.43996-13.23418
 3.42-1.50 -5.192 -5.185 -5.173 -5.151 -5.124  5.35774 10.93992-12.73424
 3.42-1.00 -5.240 -5.233 -5.219 -5.196 -5.168  5.76110 11.43996-12.23418
 3.42-0.50 -5.292 -5.284 -5.270 -5.245 -5.215  6.13322 11.93997-11.73424
 3.42 0.00 -5.334 -5.325 -5.311 -5.285 -5.253  6.47842 12.44012-11.23396
 3.42 0.50 -5.346 -5.337 -5.322 -5.295 -5.262  6.80740 12.94052-10.73353
 3.42 1.00 -5.308 -5.300 -5.284 -5.257 -5.224  7.13672 13.44185-10.23225
 3.42 1.25 -5.267 -5.258 -5.243 -5.216 -5.182  7.30816 13.69333 -9.98080
 3.42 1.50 -5.211 -5.202 -5.187 -5.161 -5.127  7.48615 13.94576 -9.72839
 3.42 1.75 -5.140 -5.132 -5.117 -5.091 -5.058  7.67486 14.20019 -9.47397
 3.42 2.00 -5.057 -5.049 -5.035 -5.010 -4.978  7.87309 14.45713 -9.21703
 3.42 2.25 -4.963 -4.956 -4.942 -4.919 -4.888  8.08269 14.71841 -8.95576
 3.42 2.50 -4.862 -4.856 -4.844 -4.822 -4.793  8.29863 14.98403 -8.69016
 3.42 2.75 -4.760 -4.753 -4.742 -4.723 -4.696  8.52088 15.25601 -8.41810
 3.42 3.00 -4.658 -4.652 -4.643 -4.624 -4.599  8.74312 15.53058 -8.14351
 3.42 3.20 -4.579 -4.574 -4.565 -4.548 -4.525  8.92014 15.75204 -7.92213
 3.42 3.40 -4.503 -4.498 -4.490 -4.475 -4.454  9.09619 15.97349 -7.70076
 3.42 3.60 -4.429 -4.424 -4.418 -4.404 -4.384  9.27005 16.19399 -7.48028
 3.42 3.80 -4.356 -4.353 -4.347 -4.335 -4.317  9.44040 16.41218 -7.26203
 3.42 4.00 -4.286 -4.283 -4.278 -4.267 -4.252  9.60799 16.62859 -7.04552
 3.42 4.20 -4.221 -4.218 -4.213 -4.203 -4.189  9.77289 16.84226 -6.83185
 3.42 4.40 -4.156 -4.154 -4.149 -4.141 -4.127  9.93452 17.05390 -6.62020
 3.42 4.60 -4.095 -4.092 -4.088 -4.080 -4.068 10.09279 17.26347 -6.41057
 3.42 4.80 -4.036 -4.034 -4.031 -4.023 -4.010 10.24686 17.47137 -6.20258
 3.42 5.00 -3.979 -3.978 -3.974 -3.966 -3.955 10.39655 17.67779 -5.99611
 3.42 5.20 -3.925 -3.924 -3.921 -3.914 -3.902 10.54004 17.88294 -5.79104
 3.42 5.40 -3.872 -3.871 -3.868 -3.860 -3.851 10.67876 18.08717 -5.58691
 3.42 5.60 -3.819 -3.817 -3.814 -3.808 -3.798 10.81233 18.29051 -5.38364
 3.42 5.80 -3.764 -3.762 -3.760 -3.753 -3.744 10.94201 18.49324 -5.18096
 3.42 6.00 -3.706 -3.705 -3.703 -3.697 -3.688 11.06856 18.69539 -4.97881
 3.42 6.25 -3.631 -3.630 -3.627 -3.622 -3.614 11.22294 18.94738 -4.72669
 3.42 6.50 -3.551 -3.549 -3.547 -3.542 -3.534 11.37566 19.19893 -4.47509
 3.42 6.75 -3.464 -3.463 -3.461 -3.456 -3.449 11.52746 19.45024 -4.22395
 3.42 7.00 -3.373 -3.372 -3.370 -3.366 -3.360 11.67852 19.70122 -3.97306
 3.42 7.25 -3.280 -3.279 -3.277 -3.273 -3.267 11.82924 19.95176 -3.72231
 3.42 7.50 -3.185 -3.184 -3.182 -3.179 -3.173 11.97909 20.20222 -3.47173
 3.42 7.75 -3.091 -3.090 -3.088 -3.085 -3.079 12.12653 20.45265 -3.22130
 3.42 8.00 -2.999 -2.998 -2.996 -2.993 -2.988 12.27207 20.70303 -2.97102
 3.44-2.00 -5.082 -5.076 -5.065 -5.044 -5.020  4.96483 10.41996-13.25415
 3.44-1.50 -5.100 -5.093 -5.081 -5.060 -5.034  5.43201 10.91986-12.75424
 3.44-1.00 -5.127 -5.120 -5.107 -5.085 -5.058  5.87413 11.41996-12.25415
 3.44-0.50 -5.161 -5.153 -5.140 -5.117 -5.087  6.28981 11.91991-11.75424
 3.44 0.00 -5.192 -5.184 -5.169 -5.144 -5.113  6.67505 12.41996-11.25407
 3.44 0.50 -5.202 -5.193 -5.178 -5.152 -5.119  7.03020 12.92012-10.75399
 3.44 1.00 -5.170 -5.161 -5.146 -5.118 -5.085  7.36361 13.42062-10.25344
 3.44 1.25 -5.133 -5.124 -5.110 -5.083 -5.048  7.52686 13.67121-10.00282
 3.44 1.50 -5.083 -5.075 -5.060 -5.033 -4.999  7.69011 13.92221 -9.75178
 3.44 1.75 -5.018 -5.010 -4.995 -4.969 -4.936  7.85716 14.17402 -9.49997
 3.44 2.00 -4.938 -4.932 -4.917 -4.893 -4.860  8.02857 14.42700 -9.24703
 3.44 2.25 -4.845 -4.837 -4.825 -4.802 -4.771  8.20938 14.68227 -8.99183
 3.44 2.50 -4.739 -4.732 -4.720 -4.698 -4.669  8.39933 14.94042 -8.73377
 3.44 2.75 -4.621 -4.616 -4.605 -4.585 -4.557  8.60181 15.20349 -8.47062
 3.44 3.00 -4.499 -4.493 -4.484 -4.465 -4.440  8.81231 15.47100 -8.20301
 3.44 3.20 -4.401 -4.395 -4.386 -4.370 -4.347  8.98785 15.68978 -7.98421
 3.44 3.40 -4.304 -4.300 -4.291 -4.277 -4.256  9.16338 15.90962 -7.76436
 3.44 3.60 -4.211 -4.207 -4.201 -4.187 -4.169  9.33883 16.13055 -7.54344
 3.44 3.80 -4.123 -4.120 -4.114 -4.102 -4.086  9.51382 16.35177 -7.32225
 3.44 4.00 -4.039 -4.037 -4.032 -4.022 -4.007  9.68833 16.57299 -7.10106
 3.44 4.20 -3.963 -3.960 -3.956 -3.947 -3.934  9.85851 16.79125 -6.88279
 3.44 4.40 -3.889 -3.887 -3.883 -3.876 -3.863 10.02573 17.00754 -6.66650
 3.44 4.60 -3.820 -3.818 -3.815 -3.807 -3.796 10.18997 17.22155 -6.45251
 3.44 4.80 -3.754 -3.752 -3.749 -3.743 -3.732 10.35085 17.43328 -6.24080
 3.44 5.00 -3.690 -3.688 -3.685 -3.679 -3.669 10.50826 17.64306 -6.03105
 3.44 5.20 -3.631 -3.629 -3.626 -3.620 -3.610 10.66196 17.85093 -5.82315
 3.44 5.40 -3.572 -3.570 -3.568 -3.562 -3.553 10.81136 18.05743 -5.61661
 3.44 5.60 -3.515 -3.514 -3.511 -3.505 -3.497 10.95582 18.26264 -5.41140
 3.44 5.80 -3.459 -3.458 -3.455 -3.451 -3.442 11.09515 18.46692 -5.20713
 3.44 6.00 -3.404 -3.403 -3.400 -3.395 -3.387 11.22994 18.67034 -5.00371
 3.44 6.25 -3.333 -3.332 -3.330 -3.326 -3.318 11.39182 18.92360 -4.75039
 3.44 6.50 -3.260 -3.259 -3.257 -3.253 -3.246 11.54900 19.17609 -4.49785
 3.44 6.75 -3.183 -3.182 -3.180 -3.176 -3.170 11.70229 19.42805 -4.24586
 3.44 7.00 -3.102 -3.101 -3.099 -3.095 -3.089 11.85352 19.67952 -3.99439
 3.44 7.25 -3.017 -3.016 -3.014 -3.010 -3.005 12.00352 19.93049 -3.74345
 3.44 7.50 -2.929 -2.928 -2.926 -2.923 -2.917 12.15229 20.18127 -3.49268
 3.44 7.75 -2.839 -2.839 -2.837 -2.833 -2.829 12.30004 20.43196 -3.24199
 3.44 8.00 -2.750 -2.750 -2.748 -2.745 -2.740 12.44669 20.68251 -2.99140
 3.46-2.00 -5.037 -5.032 -5.022 -5.004 -4.982  4.96298 10.39985-13.27417
 3.46-1.50 -5.038 -5.032 -5.020 -5.001 -4.977  5.45286 10.89982-12.77417
 3.46-1.00 -5.046 -5.040 -5.027 -5.006 -4.980  5.92896 11.39985-12.27417
 3.46-0.50 -5.060 -5.053 -5.040 -5.018 -4.990  6.38166 11.89988-11.77417
 3.46 0.00 -5.072 -5.065 -5.051 -5.027 -4.997  6.80781 12.39985-11.27417
 3.46 0.50 -5.068 -5.060 -5.045 -5.020 -4.988  7.20439 12.89993-10.77417
 3.46 1.00 -5.026 -5.018 -5.003 -4.976 -4.943  7.56973 13.40019-10.27393
 3.46 1.25 -4.987 -4.979 -4.963 -4.937 -4.903  7.74153 13.65043-10.02372
 3.46 1.50 -4.934 -4.926 -4.912 -4.885 -4.852  7.90907 13.90081 -9.77340
 3.46 1.75 -4.868 -4.860 -4.846 -4.821 -4.787  8.07243 14.15154 -9.52261
 3.46 2.00 -4.789 -4.781 -4.768 -4.744 -4.712  8.23578 14.40278 -9.27124
 3.46 2.25 -4.696 -4.689 -4.677 -4.654 -4.623  8.40078 14.65508 -9.01894
 3.46 2.50 -4.591 -4.584 -4.573 -4.551 -4.522  8.56808 14.90886 -8.76523
 3.46 2.75 -4.473 -4.467 -4.456 -4.436 -4.410  8.74356 15.16538 -8.50871
 3.46 3.00 -4.345 -4.340 -4.330 -4.313 -4.288  8.92722 15.42521 -8.24887
 3.46 3.20 -4.238 -4.232 -4.224 -4.208 -4.186  9.08342 15.63709 -8.03703
 3.46 3.40 -4.128 -4.124 -4.116 -4.102 -4.081  9.24520 15.85179 -7.82238
 3.46 3.60 -4.021 -4.016 -4.010 -3.997 -3.979  9.41430 16.07050 -7.60366
 3.46 3.80 -3.916 -3.912 -3.907 -3.896 -3.880  9.58660 16.29112 -7.38301
 3.46 4.00 -3.816 -3.813 -3.808 -3.800 -3.786  9.75899 16.51175 -7.16235
 3.46 4.20 -3.725 -3.723 -3.719 -3.711 -3.698  9.93141 16.73232 -6.94174
 3.46 4.40 -3.640 -3.638 -3.634 -3.627 -3.616 10.10384 16.95277 -6.72123
 3.46 4.60 -3.560 -3.558 -3.555 -3.549 -3.539 10.27438 17.17181 -6.50219
 3.46 4.80 -3.487 -3.485 -3.482 -3.476 -3.466 10.44079 17.38796 -6.28609
 3.46 5.00 -3.416 -3.414 -3.412 -3.406 -3.397 10.60423 17.60206 -6.07207
 3.46 5.20 -3.350 -3.349 -3.346 -3.340 -3.332 10.76430 17.81359 -5.86054
 3.46 5.40 -3.286 -3.285 -3.282 -3.277 -3.269 10.92079 18.02328 -5.65084
 3.46 5.60 -3.224 -3.223 -3.221 -3.216 -3.209 11.07364 18.23113 -5.44296
 3.46 5.80 -3.164 -3.163 -3.162 -3.157 -3.150 11.22235 18.43761 -5.23647
 3.46 6.00 -3.107 -3.106 -3.104 -3.100 -3.093 11.36680 18.64286 -5.03124
 3.46 6.25 -3.036 -3.035 -3.033 -3.029 -3.023 11.54002 18.89804 -4.77619
 3.46 6.50 -2.966 -2.965 -2.963 -2.959 -2.954 11.70655 19.15198 -4.52230
 3.46 6.75 -2.895 -2.894 -2.892 -2.888 -2.882 11.86633 19.40488 -4.26929
 3.46 7.00 -2.821 -2.820 -2.819 -2.815 -2.809 12.02160 19.65706 -4.01701
 3.46 7.25 -2.744 -2.744 -2.742 -2.739 -2.734 12.17322 19.90863 -3.76538
 3.46 7.50 -2.665 -2.664 -2.663 -2.659 -2.655 12.32243 20.15987 -3.51414
 3.46 7.75 -2.583 -2.583 -2.581 -2.578 -2.574 12.47010 20.41091 -3.26314
 3.46 8.00 -2.500 -2.499 -2.498 -2.495 -2.491 12.61595 20.66172 -3.01242
 3.48-2.00 -5.006 -5.002 -4.995 -4.981 -4.963  4.95761 10.37967-13.29448
 3.48-1.50 -5.000 -4.996 -4.986 -4.969 -4.949  5.44731 10.87955-12.79453
 3.48-1.00 -4.995 -4.989 -4.978 -4.959 -4.935  5.93832 11.37967-12.29448
 3.48-0.50 -4.990 -4.984 -4.972 -4.951 -4.925  6.42045 11.87955-11.79453
 3.48 0.00 -4.983 -4.976 -4.963 -4.940 -4.912  6.88270 12.37967-11.29448
 3.48 0.50 -4.959 -4.951 -4.937 -4.912 -4.882  7.31827 12.87961-10.79453
 3.48 1.00 -4.897 -4.890 -4.875 -4.849 -4.816  7.72518 13.37967-10.29439
 3.48 1.25 -4.848 -4.840 -4.825 -4.799 -4.767  7.91636 13.62977-10.04433
 3.48 1.50 -4.785 -4.778 -4.763 -4.738 -4.705  8.10003 13.87996 -9.79426
 3.48 1.75 -4.710 -4.702 -4.688 -4.663 -4.631  8.27599 14.13025 -9.54391
 3.48 2.00 -4.622 -4.615 -4.602 -4.578 -4.547  8.44654 14.38075 -9.29328
 3.48 2.25 -4.523 -4.516 -4.504 -4.481 -4.452  8.61104 14.63175 -9.04232
 3.48 2.50 -4.414 -4.408 -4.396 -4.375 -4.347  8.77554 14.88344 -8.79075
 3.48 2.75 -4.294 -4.289 -4.278 -4.259 -4.233  8.94011 15.13645 -8.53773
 3.48 3.00 -4.167 -4.161 -4.153 -4.135 -4.112  9.10483 15.39129 -8.28283
 3.48 3.20 -4.059 -4.055 -4.046 -4.031 -4.010  9.24189 15.59749 -8.07659
 3.48 3.40 -3.948 -3.944 -3.937 -3.923 -3.904  9.38345 15.80610 -7.86794
 3.48 3.60 -3.836 -3.832 -3.826 -3.814 -3.798  9.53129 16.01801 -7.65603
 3.48 3.80 -3.724 -3.721 -3.715 -3.705 -3.691  9.68614 16.23332 -7.44075
 3.48 4.00 -3.614 -3.612 -3.607 -3.598 -3.586  9.84646 16.45117 -7.22294
 3.48 4.20 -3.511 -3.509 -3.505 -3.498 -3.487 10.01429 16.67243 -7.00168
 3.48 4.40 -3.414 -3.412 -3.409 -3.402 -3.392 10.18272 16.89369 -6.78042
 3.48 4.60 -3.323 -3.321 -3.318 -3.313 -3.304 10.35172 17.11462 -6.55948
 3.48 4.80 -3.238 -3.237 -3.235 -3.229 -3.221 10.52083 17.33446 -6.33960
 3.48 5.00 -3.159 -3.158 -3.156 -3.151 -3.143 10.68993 17.55328 -6.12073
 3.48 5.20 -3.086 -3.085 -3.082 -3.078 -3.070 10.85487 17.76908 -5.90493
 3.48 5.40 -3.016 -3.015 -3.013 -3.009 -3.001 11.01695 17.98278 -5.69125
 3.48 5.60 -2.950 -2.949 -2.947 -2.942 -2.936 11.17597 18.19423 -5.47981
 3.48 5.80 -2.886 -2.885 -2.883 -2.879 -2.873 11.33137 18.40372 -5.27032
 3.48 6.00 -2.824 -2.823 -2.821 -2.818 -2.812 11.48316 18.61151 -5.06253
 3.48 6.25 -2.750 -2.749 -2.748 -2.745 -2.738 11.66715 18.86921 -4.80489
 3.48 6.50 -2.679 -2.678 -2.676 -2.672 -2.667 11.84454 19.12516 -4.54898
 3.48 6.75 -2.608 -2.608 -2.606 -2.603 -2.597 12.01440 19.37963 -4.29445
 3.48 7.00 -2.538 -2.538 -2.536 -2.533 -2.528 12.17783 19.63307 -4.04101
 3.48 7.25 -2.468 -2.467 -2.466 -2.463 -2.458 12.33484 19.88569 -3.78848
 3.48 7.50 -2.396 -2.395 -2.394 -2.391 -2.386 12.48742 20.13767 -3.53655
 3.48 7.75 -2.321 -2.321 -2.320 -2.317 -2.313 12.63693 20.38919 -3.28500
 3.48 8.00 -2.246 -2.245 -2.244 -2.241 -2.237 12.78290 20.64018 -3.03391
 3.50-2.00 -4.952 -4.949 -4.945 -4.936 -4.924  5.02202 10.35984-13.31417
 3.50-1.50 -4.963 -4.960 -4.953 -4.940 -4.925  5.46315 10.85986-12.81417
 3.50-1.00 -4.959 -4.955 -4.946 -4.931 -4.911  5.93732 11.35984-12.31417
 3.50-0.50 -4.946 -4.941 -4.930 -4.912 -4.889  6.42406 11.85986-11.81417
 3.50 0.00 -4.923 -4.916 -4.905 -4.884 -4.858  6.90838 12.35984-11.31417
 3.50 0.50 -4.880 -4.873 -4.859 -4.836 -4.808  7.37658 12.85992-10.81417
 3.50 1.00 -4.796 -4.789 -4.775 -4.751 -4.720  7.81941 13.36003-10.31408
 3.50 1.25 -4.735 -4.727 -4.713 -4.689 -4.657  8.03024 13.61003-10.06413
 3.50 1.50 -4.658 -4.651 -4.636 -4.612 -4.580  8.23350 13.86004 -9.81418
 3.50 1.75 -4.567 -4.560 -4.546 -4.522 -4.491  8.42850 14.11016 -9.56398
 3.50 2.00 -4.464 -4.457 -4.444 -4.421 -4.391  8.61574 14.36040 -9.31363
 3.50 2.25 -4.351 -4.345 -4.333 -4.311 -4.282  8.79478 14.61087 -9.06318
 3.50 2.50 -4.230 -4.223 -4.213 -4.193 -4.166  8.96778 14.86166 -8.81248
 3.50 2.75 -4.102 -4.096 -4.086 -4.068 -4.044  9.13440 15.11304 -8.56111
 3.50 3.00 -3.969 -3.964 -3.955 -3.940 -3.918  9.29973 15.36530 -8.30883
 3.50 3.20 -3.860 -3.855 -3.847 -3.833 -3.814  9.43131 15.56834 -8.10576
 3.50 3.40 -3.748 -3.745 -3.738 -3.725 -3.708  9.56290 15.77287 -7.90118
 3.50 3.60 -3.636 -3.633 -3.627 -3.616 -3.601  9.69631 15.97944 -7.69460
 3.50 3.80 -3.524 -3.521 -3.516 -3.507 -3.494  9.83450 16.18896 -7.48509
 3.50 4.00 -3.412 -3.410 -3.406 -3.398 -3.387  9.97667 16.40123 -7.27287
 3.50 4.20 -3.305 -3.303 -3.299 -3.293 -3.282 10.12649 16.61787 -7.05623
 3.50 4.40 -3.201 -3.199 -3.196 -3.191 -3.182 10.28121 16.83642 -6.83768
 3.50 4.60 -3.103 -3.102 -3.099 -3.093 -3.085 10.44220 17.05714 -6.61695
 3.50 4.80 -3.010 -3.009 -3.007 -3.002 -2.994 10.60625 17.27862 -6.39547
 3.50 5.00 -2.922 -2.921 -2.919 -2.914 -2.908 10.77093 17.50010 -6.17399
 3.50 5.20 -2.841 -2.840 -2.838 -2.834 -2.827 10.93598 17.71959 -5.95457
 3.50 5.40 -2.765 -2.764 -2.762 -2.758 -2.752 11.10103 17.93742 -5.73682
 3.50 5.60 -2.692 -2.691 -2.689 -2.685 -2.679 11.26458 18.15301 -5.52123
 3.50 5.80 -2.623 -2.622 -2.621 -2.617 -2.611 11.42458 18.36606 -5.30812
 3.50 6.00 -2.557 -2.556 -2.555 -2.552 -2.546 11.58184 18.57703 -5.09707
 3.50 6.25 -2.479 -2.478 -2.476 -2.473 -2.469 11.77327 18.83797 -4.83615
 3.50 6.50 -2.404 -2.403 -2.402 -2.399 -2.394 11.95895 19.09656 -4.57757
 3.50 6.75 -2.332 -2.331 -2.330 -2.327 -2.323 12.13820 19.35321 -4.32093
 3.50 7.00 -2.263 -2.262 -2.261 -2.258 -2.253 12.31091 19.60831 -4.06580
 3.50 7.25 -2.194 -2.194 -2.192 -2.189 -2.185 12.47625 19.86207 -3.81199
 3.50 7.50 -2.126 -2.126 -2.124 -2.121 -2.117 12.63548 20.11494 -3.55909
 3.50 7.75 -2.058 -2.057 -2.056 -2.053 -2.049 12.78949 20.36725 -3.30680
 3.50 8.00 -1.989 -1.988 -1.987 -1.984 -1.980 12.93797 20.61889 -3.05522
 3.52-2.00 -4.819 -4.818 -4.816 -4.812 -4.806  5.27323 10.33985-13.33414
 3.52-1.50 -4.877 -4.875 -4.872 -4.864 -4.855  5.61310 10.83986-12.83416
 3.52-1.00 -4.906 -4.903 -4.897 -4.887 -4.874  6.00260 11.33985-12.33414
 3.52-0.50 -4.908 -4.904 -4.896 -4.883 -4.865  6.44264 11.83986-11.83416
 3.52 0.00 -4.884 -4.879 -4.870 -4.853 -4.832  6.91466 12.33985-11.33414
 3.52 0.50 -4.829 -4.824 -4.812 -4.792 -4.768  7.39585 12.83992-10.83416
 3.52 1.00 -4.728 -4.721 -4.708 -4.686 -4.659  7.86776 13.33985-10.33414
 3.52 1.25 -4.654 -4.647 -4.634 -4.612 -4.583  8.09538 13.58990-10.08415
 3.52 1.50 -4.563 -4.557 -4.543 -4.521 -4.491  8.31660 13.83998 -9.83416
 3.52 1.75 -4.457 -4.450 -4.438 -4.415 -4.386  8.53045 14.09009 -9.58410
 3.52 2.00 -4.337 -4.330 -4.318 -4.295 -4.267  8.73680 14.34025 -9.33395
 3.52 2.25 -4.205 -4.199 -4.187 -4.167 -4.140  8.93505 14.59042 -9.08369
 3.52 2.50 -4.066 -4.061 -4.050 -4.032 -4.007  9.12548 14.84067 -8.83327
 3.52 2.75 -3.924 -3.918 -3.909 -3.892 -3.870  9.30756 15.09131 -8.58267
 3.52 3.00 -3.778 -3.774 -3.766 -3.751 -3.731  9.48316 15.34242 -8.33171
 3.52 3.20 -3.662 -3.658 -3.651 -3.638 -3.620  9.61831 15.54387 -8.13025
 3.52 3.40 -3.546 -3.542 -3.536 -3.525 -3.509  9.75213 15.74610 -7.92797
 3.52 3.60 -3.430 -3.427 -3.422 -3.412 -3.398  9.88463 15.94940 -7.72466
 3.52 3.80 -3.316 -3.313 -3.308 -3.300 -3.288 10.01677 16.15460 -7.51951
 3.52 4.00 -3.203 -3.200 -3.197 -3.189 -3.179 10.14891 16.36173 -7.31247
 3.52 4.20 -3.093 -3.091 -3.088 -3.082 -3.073 10.28505 16.57225 -7.10190
 3.52 4.40 -2.986 -2.985 -2.982 -2.977 -2.969 10.42462 16.78562 -6.88847
 3.52 4.60 -2.885 -2.884 -2.881 -2.876 -2.869 10.56915 17.00300 -6.67108
 3.52 4.80 -2.788 -2.787 -2.784 -2.780 -2.773 10.71916 17.22278 -6.45133
 3.52 5.00 -2.695 -2.694 -2.692 -2.689 -2.683 10.87326 17.44326 -6.23084
 3.52 5.20 -2.609 -2.608 -2.606 -2.603 -2.597 11.03269 17.66423 -6.00987
 3.52 5.40 -2.527 -2.526 -2.525 -2.521 -2.515 11.19262 17.88519 -5.78889
 3.52 5.60 -2.449 -2.449 -2.447 -2.444 -2.439 11.35300 18.10493 -5.56917
 3.52 5.80 -2.376 -2.375 -2.374 -2.371 -2.366 11.51347 18.32193 -5.35219
 3.52 6.00 -2.306 -2.305 -2.304 -2.301 -2.297 11.67394 18.53694 -5.13721
 3.52 6.25 -2.224 -2.223 -2.221 -2.218 -2.214 11.87009 18.80200 -4.87209
 3.52 6.50 -2.145 -2.144 -2.143 -2.140 -2.136 12.06221 19.06409 -4.60995
 3.52 6.75 -2.070 -2.070 -2.068 -2.066 -2.061 12.24857 19.32356 -4.35049
 3.52 7.00 -1.998 -1.998 -1.997 -1.994 -1.990 12.42911 19.58092 -4.09313
 3.52 7.25 -1.929 -1.929 -1.928 -1.925 -1.922 12.60303 19.83639 -3.83760
 3.52 7.50 -1.863 -1.862 -1.861 -1.858 -1.855 12.77041 20.09061 -3.58336
 3.52 7.75 -1.798 -1.797 -1.796 -1.794 -1.790 12.93102 20.34403 -3.32999
 3.52 8.00 -1.733 -1.733 -1.731 -1.728 -1.725 13.08493 20.59649 -3.07764
 3.54-2.00 -4.594 -4.593 -4.592 -4.591 -4.589  5.65552 10.31994-13.35419
 3.54-1.50 -4.701 -4.700 -4.699 -4.696 -4.692  5.93757 10.81987-12.85418
 3.54-1.00 -4.781 -4.780 -4.777 -4.772 -4.764  6.24254 11.31994-12.35419
 3.54-0.50 -4.828 -4.825 -4.821 -4.813 -4.802  6.58467 11.81987-11.85418
 3.54 0.00 -4.834 -4.831 -4.825 -4.813 -4.798  6.97704 12.31994-11.35419
 3.54 0.50 -4.792 -4.788 -4.779 -4.765 -4.746  7.41797 12.81987-10.85418
 3.54 1.00 -4.687 -4.681 -4.671 -4.653 -4.630  7.88683 13.31994-10.35419
 3.54 1.25 -4.606 -4.600 -4.589 -4.570 -4.547  8.12210 13.56994-10.10419
 3.54 1.50 -4.504 -4.498 -4.487 -4.467 -4.442  8.35736 13.81994 -9.85418
 3.54 1.75 -4.385 -4.378 -4.368 -4.348 -4.322  8.58627 14.07004 -9.60415
 3.54 2.00 -4.248 -4.243 -4.231 -4.212 -4.186  8.80969 14.32015 -9.35409
 3.54 2.25 -4.100 -4.094 -4.084 -4.065 -4.041  9.02575 14.57021 -9.10400
 3.54 2.50 -3.943 -3.938 -3.928 -3.911 -3.888  9.23452 14.82027 -8.85387
 3.54 2.75 -3.782 -3.777 -3.769 -3.753 -3.733  9.43532 15.07060 -8.60356
 3.54 3.00 -3.620 -3.616 -3.608 -3.595 -3.576  9.62829 15.32119 -8.35301
 3.54 3.20 -3.492 -3.488 -3.481 -3.469 -3.453  9.77633 15.52186 -8.15229
 3.54 3.40 -3.366 -3.363 -3.357 -3.346 -3.332  9.92010 15.72289 -7.95118
 3.54 3.60 -3.241 -3.239 -3.233 -3.224 -3.211 10.05896 15.92447 -7.74955
 3.54 3.80 -3.120 -3.117 -3.113 -3.105 -3.093 10.19495 16.12718 -7.54689
 3.54 4.00 -3.000 -2.998 -2.995 -2.988 -2.978 10.32940 16.33102 -7.34314
 3.54 4.20 -2.885 -2.883 -2.880 -2.874 -2.866 10.46255 16.53692 -7.13722
 3.54 4.40 -2.774 -2.773 -2.770 -2.765 -2.757 10.59571 16.74516 -6.92894
 3.54 4.60 -2.667 -2.666 -2.664 -2.659 -2.652 10.73026 16.95661 -6.71746
 3.54 4.80 -2.566 -2.565 -2.563 -2.558 -2.552 10.86840 17.17149 -6.50258
 3.54 5.00 -2.469 -2.468 -2.467 -2.463 -2.457 11.00945 17.38899 -6.28508
 3.54 5.20 -2.379 -2.378 -2.377 -2.373 -2.368 11.15600 17.61014 -6.06390
 3.54 5.40 -2.294 -2.293 -2.292 -2.289 -2.284 11.30566 17.83129 -5.84272
 3.54 5.60 -2.214 -2.214 -2.212 -2.209 -2.204 11.45919 18.05220 -5.62179
 3.54 5.80 -2.139 -2.138 -2.137 -2.134 -2.129 11.61439 18.27227 -5.40177
 3.54 6.00 -2.067 -2.066 -2.065 -2.062 -2.058 11.76975 18.49150 -5.18263
 3.54 6.25 -1.981 -1.981 -1.979 -1.976 -1.973 11.96406 18.76128 -4.91292
 3.54 6.50 -1.899 -1.899 -1.898 -1.895 -1.892 12.15836 19.02776 -4.64647
 3.54 6.75 -1.822 -1.821 -1.820 -1.818 -1.814 12.34863 19.29072 -4.38341
 3.54 7.00 -1.749 -1.748 -1.747 -1.744 -1.741 12.53504 19.55096 -4.12309
 3.54 7.25 -1.678 -1.677 -1.676 -1.674 -1.670 12.71550 19.80877 -3.86528
 3.54 7.50 -1.611 -1.610 -1.609 -1.607 -1.603 12.89003 20.06483 -3.60924
 3.54 7.75 -1.546 -1.546 -1.545 -1.542 -1.539 13.05769 20.31967 -3.35442
 3.54 8.00 -1.485 -1.484 -1.483 -1.480 -1.476 13.21880 20.57310 -3.10100
 3.56-2.00 -4.307 -4.307 -4.306 -4.306 -4.305  6.07591 10.29973-13.37428
 3.56-1.50 -4.449 -4.449 -4.448 -4.447 -4.446  6.33746 10.79982-12.87419
 3.56-1.00 -4.571 -4.570 -4.569 -4.567 -4.564  6.60713 11.29994-12.37428
 3.56-0.50 -4.666 -4.665 -4.662 -4.659 -4.653  6.89104 11.79982-11.87419
 3.56 0.00 -4.722 -4.720 -4.717 -4.711 -4.702  7.19976 12.29994-11.37428
 3.56 0.50 -4.722 -4.720 -4.714 -4.705 -4.693  7.54716 12.79982-10.87419
 3.56 1.00 -4.644 -4.640 -4.633 -4.621 -4.606  7.94517 13.29994-10.37428
 3.56 1.25 -4.568 -4.565 -4.557 -4.544 -4.527  8.16306 13.54988-10.12424
 3.56 1.50 -4.468 -4.463 -4.455 -4.440 -4.421  8.38757 13.79982 -9.87419
 3.56 1.75 -4.343 -4.338 -4.329 -4.315 -4.295  8.61819 14.04988 -9.62418
 3.56 2.00 -4.197 -4.192 -4.183 -4.167 -4.147  8.84880 14.29994 -9.37417
 3.56 2.25 -4.036 -4.031 -4.022 -4.006 -3.987  9.07649 14.54999 -9.12418
 3.56 2.50 -3.863 -3.859 -3.850 -3.835 -3.816  9.30081 14.80003 -8.87419
 3.56 2.75 -3.686 -3.682 -3.674 -3.661 -3.643  9.51786 15.05015 -8.62400
 3.56 3.00 -3.507 -3.503 -3.496 -3.484 -3.468  9.72811 15.30038 -8.37366
 3.56 3.20 -3.365 -3.362 -3.355 -3.344 -3.330  9.89061 15.50072 -8.17334
 3.56 3.40 -3.225 -3.222 -3.216 -3.206 -3.193 10.04820 15.70126 -7.97286
 3.56 3.60 -3.088 -3.085 -3.081 -3.072 -3.060 10.20048 15.90206 -7.77211
 3.56 3.80 -2.955 -2.952 -2.948 -2.941 -2.930 10.34792 16.10341 -7.57070
 3.56 4.00 -2.825 -2.823 -2.820 -2.813 -2.804 10.49108 16.30535 -7.36866
 3.56 4.20 -2.700 -2.699 -2.696 -2.690 -2.681 10.62925 16.50848 -7.16549
 3.56 4.40 -2.580 -2.579 -2.576 -2.571 -2.563 10.76587 16.71314 -6.96082
 3.56 4.60 -2.464 -2.463 -2.461 -2.456 -2.449 10.90087 16.91986 -6.75411
 3.56 4.80 -2.354 -2.353 -2.351 -2.348 -2.341 11.03542 17.12957 -6.54442
 3.56 5.00 -2.251 -2.250 -2.248 -2.244 -2.239 11.16997 17.34203 -6.33199
 3.56 5.20 -2.154 -2.153 -2.151 -2.148 -2.143 11.30762 17.55891 -6.11518
 3.56 5.40 -2.064 -2.063 -2.062 -2.059 -2.054 11.44756 17.77763 -5.89651
 3.56 5.60 -1.981 -1.980 -1.979 -1.976 -1.971 11.59052 17.99841 -5.67572
 3.56 5.80 -1.904 -1.903 -1.902 -1.899 -1.895 11.73634 18.21990 -5.45421
 3.56 6.00 -1.831 -1.830 -1.829 -1.826 -1.822 11.88423 18.44138 -5.23270
 3.56 6.25 -1.745 -1.745 -1.743 -1.741 -1.737 12.07227 18.71525 -4.95881
 3.56 6.50 -1.664 -1.664 -1.662 -1.659 -1.656 12.26031 18.98646 -4.68761
 3.56 6.75 -1.586 -1.585 -1.584 -1.582 -1.579 12.44819 19.25362 -4.42047
 3.56 7.00 -1.512 -1.511 -1.510 -1.507 -1.504 12.63579 19.51759 -4.15652
 3.56 7.25 -1.440 -1.440 -1.438 -1.436 -1.432 12.81931 19.77851 -3.89565
 3.56 7.50 -1.372 -1.371 -1.370 -1.367 -1.364 12.99883 20.03703 -3.63714
 3.56 7.75 -1.307 -1.307 -1.306 -1.303 -1.300 13.17194 20.29372 -3.38040
 3.56 8.00 -1.246 -1.246 -1.244 -1.242 -1.238 13.33945 20.54839 -3.12563
 3.58-2.00 -3.990 -3.989 -3.989 -3.989 -3.988  6.49402 10.27990-13.39426
 3.58-1.50 -4.155 -4.154 -4.154 -4.154 -4.152  6.74842 10.77981-12.89415
 3.58-1.00 -4.303 -4.303 -4.302 -4.302 -4.300  7.00561 11.27989-12.39426
 3.58-0.50 -4.431 -4.431 -4.430 -4.428 -4.426  7.26834 11.77981-11.89415
 3.58 0.00 -4.528 -4.527 -4.526 -4.523 -4.519  7.53995 12.27989-11.39426
 3.58 0.50 -4.575 -4.573 -4.571 -4.566 -4.560  7.82789 12.77981-10.89415
 3.58 1.00 -4.543 -4.541 -4.537 -4.530 -4.521  8.14301 13.27990-10.39426
 3.58 1.25 -4.489 -4.486 -4.481 -4.473 -4.463  8.31572 13.52985-10.14421
 3.58 1.50 -4.405 -4.403 -4.397 -4.389 -4.376  8.49969 13.77981 -9.89415
 3.58 1.75 -4.294 -4.290 -4.284 -4.275 -4.262  8.69751 14.02985 -9.64415
 3.58 2.00 -4.154 -4.151 -4.145 -4.134 -4.120  8.90558 14.27989 -9.39416
 3.58 2.25 -3.994 -3.990 -3.984 -3.972 -3.959  9.12509 14.52989 -9.14416
 3.58 2.50 -3.815 -3.812 -3.806 -3.795 -3.780  9.34655 14.77989 -8.89415
 3.58 2.75 -3.629 -3.625 -3.619 -3.609 -3.594  9.56923 15.02997 -8.64407
 3.58 3.00 -3.436 -3.434 -3.427 -3.417 -3.404  9.79190 15.28012 -8.39394
 3.58 3.20 -3.283 -3.280 -3.274 -3.265 -3.252  9.96516 15.48030 -8.19381
 3.58 3.40 -3.130 -3.128 -3.123 -3.113 -3.101 10.13480 15.68058 -7.99360
 3.58 3.60 -2.980 -2.977 -2.973 -2.965 -2.953 10.30030 15.88097 -7.79323
 3.58 3.80 -2.833 -2.831 -2.827 -2.820 -2.809 10.46088 16.08165 -7.59248
 3.58 4.00 -2.691 -2.689 -2.685 -2.679 -2.668 10.61679 16.28262 -7.39137
 3.58 4.20 -2.553 -2.552 -2.548 -2.542 -2.533 10.76708 16.48427 -7.18974
 3.58 4.40 -2.420 -2.419 -2.416 -2.410 -2.403 10.91328 16.68683 -6.98727
 3.58 4.60 -2.293 -2.291 -2.289 -2.284 -2.277 11.05476 16.89058 -6.78360
 3.58 4.80 -2.171 -2.170 -2.168 -2.164 -2.157 11.19350 17.09640 -6.57778
 3.58 5.00 -2.056 -2.056 -2.053 -2.049 -2.043 11.33082 17.30428 -6.36988
 3.58 5.20 -1.948 -1.947 -1.945 -1.942 -1.937 11.46696 17.51577 -6.15843
 3.58 5.40 -1.848 -1.848 -1.846 -1.843 -1.838 11.60310 17.73007 -5.94415
 3.58 5.60 -1.757 -1.756 -1.755 -1.752 -1.747 11.74013 17.94839 -5.72574
 3.58 5.80 -1.674 -1.673 -1.672 -1.669 -1.665 11.87912 18.16877 -5.50525
 3.58 6.00 -1.598 -1.597 -1.596 -1.593 -1.589 12.01953 18.38935 -5.28467
 3.58 6.25 -1.511 -1.511 -1.509 -1.507 -1.503 12.19794 18.66521 -5.00886
 3.58 6.50 -1.431 -1.430 -1.429 -1.427 -1.423 12.37803 18.94107 -4.73306
 3.58 6.75 -1.356 -1.355 -1.354 -1.351 -1.347 12.55979 19.21243 -4.46167
 3.58 7.00 -1.283 -1.282 -1.281 -1.278 -1.275 12.74155 19.48058 -4.19348
 3.58 7.25 -1.213 -1.212 -1.211 -1.208 -1.204 12.92254 19.74497 -3.92907
 3.58 7.50 -1.145 -1.144 -1.143 -1.141 -1.137 13.10243 20.00647 -3.66756
 3.58 7.75 -1.081 -1.080 -1.079 -1.076 -1.072 13.27775 20.26564 -3.40839
 3.58 8.00 -1.020 -1.019 -1.018 -1.015 -1.011 13.44963 20.52231 -3.15175
 3.60-2.00 -3.656 -3.656 -3.655 -3.654 -3.653  6.89933 10.25959-13.41443
 3.60-1.50 -3.839 -3.839 -3.838 -3.837 -3.836  7.15137 10.75974-12.91435
 3.60-1.00 -4.006 -4.006 -4.006 -4.005 -4.003  7.40432 11.25983-12.41431
 3.60-0.50 -4.155 -4.155 -4.154 -4.153 -4.151  7.65916 11.75982-11.91435
 3.60 0.00 -4.276 -4.275 -4.275 -4.274 -4.271  7.91756 12.25983-11.41420
 3.60 0.50 -4.352 -4.351 -4.350 -4.348 -4.344  8.18184 12.75982-10.91435
 3.60 1.00 -4.357 -4.355 -4.353 -4.349 -4.344  8.45728 13.25983-10.41420
 3.60 1.25 -4.322 -4.321 -4.319 -4.315 -4.308  8.60141 13.50983-10.16428
 3.60 1.50 -4.262 -4.260 -4.257 -4.252 -4.245  8.75136 13.75982 -9.91435
 3.60 1.75 -4.172 -4.171 -4.167 -4.161 -4.153  8.90932 14.00982 -9.66428
 3.60 2.00 -4.056 -4.054 -4.050 -4.044 -4.035  9.07628 14.25983 -9.41420
 3.60 2.25 -3.915 -3.913 -3.909 -3.902 -3.893  9.25492 14.50986 -9.16428
 3.60 2.50 -3.754 -3.751 -3.747 -3.740 -3.730  9.44436 14.75989 -8.91435
 3.60 2.75 -3.576 -3.573 -3.569 -3.561 -3.550  9.64666 15.00997 -8.66425
 3.60 3.00 -3.386 -3.383 -3.379 -3.371 -3.361  9.85564 15.26007 -8.41409
 3.60 3.20 -3.229 -3.226 -3.222 -3.215 -3.204 10.02788 15.46016 -8.21394
 3.60 3.40 -3.070 -3.068 -3.063 -3.056 -3.045 10.20011 15.66028 -8.01375
 3.60 3.60 -2.911 -2.909 -2.905 -2.897 -2.887 10.37156 15.86045 -7.81352
 3.60 3.80 -2.754 -2.752 -2.748 -2.741 -2.731 10.54060 16.06078 -7.61319
 3.60 4.00 -2.599 -2.597 -2.594 -2.586 -2.577 10.70749 16.26126 -7.41274
 3.60 4.20 -2.448 -2.447 -2.444 -2.437 -2.428 10.86938 16.46213 -7.21192
 3.60 4.40 -2.302 -2.301 -2.297 -2.292 -2.283 11.02715 16.66352 -7.01059
 3.60 4.60 -2.161 -2.160 -2.157 -2.151 -2.144 11.18025 16.86555 -6.80858
 3.60 4.80 -2.026 -2.025 -2.022 -2.018 -2.011 11.32896 17.06885 -6.60525
 3.60 5.00 -1.897 -1.896 -1.894 -1.890 -1.883 11.47392 17.27346 -6.40055
 3.60 5.20 -1.775 -1.774 -1.772 -1.769 -1.763 11.61463 17.48063 -6.19338
 3.60 5.40 -1.662 -1.661 -1.659 -1.656 -1.651 11.75391 17.69038 -5.98363
 3.60 5.60 -1.557 -1.557 -1.555 -1.552 -1.548 11.89170 17.90362 -5.77040
 3.60 5.80 -1.463 -1.462 -1.461 -1.458 -1.454 12.02907 18.12010 -5.55392
 3.60 6.00 -1.378 -1.377 -1.376 -1.373 -1.369 12.16643 18.33885 -5.33517
 3.60 6.25 -1.284 -1.283 -1.282 -1.280 -1.276 12.33928 18.61570 -5.05832
 3.60 6.50 -1.201 -1.200 -1.199 -1.197 -1.193 12.51282 18.89254 -4.78147
 3.60 6.75 -1.127 -1.126 -1.124 -1.121 -1.118 12.68721 19.16727 -4.50675
 3.60 7.00 -1.056 -1.056 -1.055 -1.052 -1.047 12.86183 19.43981 -4.23426
 3.60 7.25 -0.990 -0.990 -0.988 -0.985 -0.981 13.03661 19.70815 -3.96597
 3.60 7.50 -0.926 -0.926 -0.924 -0.921 -0.917 13.21139 19.97322 -3.70093
 3.60 7.75 -0.865 -0.864 -0.862 -0.859 -0.855 13.38420 20.23530 -3.43882
 3.60 8.00 -0.805 -0.804 -0.803 -0.800 -0.795 13.55570 20.49429 -3.17973
 3.62-2.00 -3.313 -3.312 -3.312 -3.311 -3.309  7.29004 10.23930-13.43474
 3.62-1.50 -3.511 -3.510 -3.509 -3.508 -3.506  7.54108 10.73957-12.93442
 3.62-1.00 -3.694 -3.694 -3.693 -3.692 -3.691  7.79260 11.23980-12.43439
 3.62-0.50 -3.859 -3.859 -3.858 -3.857 -3.855  8.04454 11.73973-11.93442
 3.62 0.00 -3.996 -3.995 -3.994 -3.993 -3.991  8.29820 12.23980-11.43427
 3.62 0.50 -4.086 -4.085 -4.084 -4.082 -4.080  8.55388 12.73981-10.93442
 3.62 1.00 -4.106 -4.105 -4.104 -4.101 -4.098  8.81385 13.23980-10.43427
 3.62 1.25 -4.082 -4.081 -4.079 -4.077 -4.073  8.94640 13.48981-10.18435
 3.62 1.50 -4.034 -4.033 -4.032 -4.028 -4.023  9.08135 13.73981 -9.93442
 3.62 1.75 -3.962 -3.961 -3.959 -3.955 -3.950  9.21958 13.98981 -9.68435
 3.62 2.00 -3.867 -3.866 -3.863 -3.859 -3.853  9.36192 14.23980 -9.43427
 3.62 2.25 -3.751 -3.749 -3.746 -3.742 -3.735  9.50984 14.48981 -9.18435
 3.62 2.50 -3.615 -3.614 -3.611 -3.606 -3.599  9.66445 14.73981 -8.93442
 3.62 2.75 -3.463 -3.462 -3.458 -3.453 -3.445  9.82819 14.98981 -8.68429
 3.62 3.00 -3.297 -3.294 -3.291 -3.285 -3.277 10.00130 15.23980 -8.43415
 3.62 3.20 -3.154 -3.152 -3.149 -3.142 -3.133 10.14842 15.43987 -8.23411
 3.62 3.40 -3.005 -3.003 -2.999 -2.992 -2.984 10.30108 15.63998 -8.03407
 3.62 3.60 -2.851 -2.849 -2.845 -2.839 -2.829 10.46076 15.84011 -7.83398
 3.62 3.80 -2.694 -2.692 -2.688 -2.681 -2.672 10.62380 16.04030 -7.63377
 3.62 4.00 -2.535 -2.533 -2.530 -2.523 -2.514 10.78746 16.24055 -7.43344
 3.62 4.20 -2.378 -2.376 -2.372 -2.366 -2.357 10.95150 16.44102 -7.23298
 3.62 4.40 -2.221 -2.220 -2.216 -2.211 -2.202 11.11554 16.64177 -7.03227
 3.62 4.60 -2.069 -2.067 -2.065 -2.059 -2.051 11.27776 16.84290 -6.83119
 3.62 4.80 -1.921 -1.920 -1.917 -1.912 -1.904 11.43579 17.04479 -6.62933
 3.62 5.00 -1.778 -1.777 -1.775 -1.770 -1.763 11.59062 17.24748 -6.42666
 3.62 5.20 -1.642 -1.641 -1.639 -1.635 -1.628 11.74066 17.45167 -6.22245
 3.62 5.40 -1.513 -1.512 -1.510 -1.507 -1.501 11.88747 17.65774 -6.01634
 3.62 5.60 -1.394 -1.393 -1.392 -1.388 -1.383 12.03082 17.86638 -5.80766
 3.62 5.80 -1.284 -1.284 -1.282 -1.279 -1.274 12.17190 18.07833 -5.59571
 3.62 6.00 -1.185 -1.184 -1.183 -1.180 -1.175 12.31133 18.29314 -5.38091
 3.62 6.25 -1.077 -1.076 -1.075 -1.072 -1.067 12.48416 18.56742 -5.10668
 3.62 6.50 -0.984 -0.983 -0.982 -0.979 -0.974 12.65571 18.84292 -4.83121
 3.62 6.75 -0.904 -0.903 -0.902 -0.898 -0.894 12.82639 19.11921 -4.55490
 3.62 7.00 -0.833 -0.832 -0.831 -0.828 -0.823 12.99616 19.39550 -4.27860
 3.62 7.25 -0.769 -0.768 -0.767 -0.763 -0.759 13.16515 19.66764 -4.00639
 3.62 7.50 -0.709 -0.708 -0.706 -0.703 -0.699 13.33325 19.93666 -3.73731
 3.62 7.75 -0.652 -0.651 -0.649 -0.646 -0.641 13.50039 20.20208 -3.47191
 3.62 8.00 -0.597 -0.597 -0.595 -0.591 -0.586 13.66661 20.46404 -3.21000
 3.64-2.00 -2.965 -2.964 -2.964 -2.962 -2.961  7.66219 10.21880-13.45544
 3.64-1.50 -3.176 -3.176 -3.175 -3.174 -3.171  7.91323 10.71917-12.95507
 3.64-1.00 -3.375 -3.374 -3.373 -3.371 -3.369  8.16435 11.21958-12.45457
 3.64-0.50 -3.554 -3.553 -3.552 -3.550 -3.548  8.41531 11.71966-11.95429
 3.64 0.00 -3.703 -3.703 -3.701 -3.700 -3.697  8.66699 12.21985-11.45432
 3.64 0.50 -3.802 -3.802 -3.801 -3.798 -3.795  8.91939 12.71983-10.95429
 3.64 1.00 -3.828 -3.827 -3.825 -3.823 -3.820  9.17348 13.21985-10.45420
 3.64 1.25 -3.807 -3.806 -3.805 -3.802 -3.798  9.30160 13.46984-10.20424
 3.64 1.50 -3.764 -3.763 -3.761 -3.758 -3.754  9.43072 13.71983 -9.95429
 3.64 1.75 -3.699 -3.697 -3.696 -3.692 -3.687  9.56115 13.96984 -9.70424
 3.64 2.00 -3.613 -3.613 -3.611 -3.607 -3.602  9.69329 14.21985 -9.45420
 3.64 2.25 -3.513 -3.511 -3.509 -3.505 -3.499  9.82778 14.46984 -9.20424
 3.64 2.50 -3.397 -3.396 -3.393 -3.389 -3.383  9.96525 14.71983 -8.95429
 3.64 2.75 -3.269 -3.267 -3.265 -3.260 -3.253 10.10682 14.96983 -8.70424
 3.64 3.00 -3.129 -3.127 -3.124 -3.119 -3.112 10.25334 15.21985 -8.45420
 3.64 3.20 -3.008 -3.006 -3.003 -2.998 -2.990 10.37530 15.41989 -8.25423
 3.64 3.40 -2.879 -2.878 -2.874 -2.868 -2.860 10.50201 15.61995 -8.05427
 3.64 3.60 -2.744 -2.742 -2.738 -2.733 -2.724 10.63424 15.82005 -7.85421
 3.64 3.80 -2.602 -2.601 -2.597 -2.591 -2.582 10.77245 16.02018 -7.65400
 3.64 4.00 -2.456 -2.454 -2.451 -2.443 -2.434 10.91603 16.22037 -7.45371
 3.64 4.20 -2.305 -2.303 -2.299 -2.293 -2.284 11.06629 16.42062 -7.25339
 3.64 4.40 -2.151 -2.149 -2.146 -2.139 -2.131 11.21945 16.62100 -7.05297
 3.64 4.60 -1.997 -1.995 -1.992 -1.986 -1.977 11.37583 16.82160 -6.85238
 3.64 4.80 -1.843 -1.841 -1.839 -1.833 -1.825 11.53328 17.02269 -6.65136
 3.64 5.00 -1.692 -1.690 -1.688 -1.682 -1.675 11.69073 17.22428 -6.44989
 3.64 5.20 -1.545 -1.544 -1.541 -1.536 -1.529 11.84606 17.42668 -6.24750
 3.64 5.40 -1.402 -1.401 -1.400 -1.395 -1.389 11.99952 17.63030 -6.04386
 3.64 5.60 -1.268 -1.268 -1.266 -1.262 -1.256 12.15031 17.83563 -5.83851
 3.64 5.80 -1.144 -1.143 -1.141 -1.138 -1.132 12.29786 18.04369 -5.63047
 3.64 6.00 -1.028 -1.027 -1.026 -1.023 -1.017 12.44279 18.25431 -5.41987
 3.64 6.25 -0.901 -0.900 -0.899 -0.895 -0.890 12.62036 18.52308 -5.15103
 3.64 6.50 -0.791 -0.790 -0.789 -0.786 -0.780 12.79470 18.79560 -4.87844
 3.64 6.75 -0.699 -0.698 -0.696 -0.692 -0.688 12.96641 19.07234 -4.60170
 3.64 7.00 -0.620 -0.619 -0.618 -0.614 -0.609 13.13545 19.34908 -4.32495
 3.64 7.25 -0.554 -0.553 -0.551 -0.548 -0.543 13.30189 19.62408 -4.05001
 3.64 7.50 -0.495 -0.494 -0.493 -0.489 -0.483 13.46598 19.89713 -3.77702
 3.64 7.75 -0.442 -0.441 -0.439 -0.435 -0.430 13.62796 20.16604 -3.50813
 3.64 8.00 -0.392 -0.391 -0.389 -0.385 -0.379 13.78774 20.43152 -3.24260
 3.66-2.00 -2.618 -2.618 -2.617 -2.615 -2.612  8.01870 10.19701-13.47703
 3.66-1.50 -2.839 -2.839 -2.838 -2.836 -2.833  8.27021 10.69819-12.97593
 3.66-1.00 -3.049 -3.049 -3.048 -3.046 -3.043  8.52140 11.19893-12.47509
 3.66-0.50 -3.242 -3.242 -3.240 -3.238 -3.235  8.77225 11.69932-11.97469
 3.66 0.00 -3.405 -3.404 -3.402 -3.400 -3.397  9.02325 12.19948-11.47457
 3.66 0.50 -3.514 -3.513 -3.512 -3.509 -3.506  9.27439 12.69967-10.97429
 3.66 1.00 -3.544 -3.543 -3.542 -3.538 -3.534  9.52634 13.19976-10.47431
 3.66 1.25 -3.524 -3.523 -3.522 -3.518 -3.514  9.65271 13.44975-10.22430
 3.66 1.50 -3.482 -3.481 -3.479 -3.475 -3.470  9.77945 13.69975 -9.97428
 3.66 1.75 -3.418 -3.418 -3.416 -3.412 -3.406  9.90669 13.94975 -9.72430
 3.66 2.00 -3.338 -3.337 -3.335 -3.331 -3.325 10.03463 14.19976 -9.47431
 3.66 2.25 -3.243 -3.241 -3.240 -3.235 -3.229 10.16367 14.44980 -9.22431
 3.66 2.50 -3.137 -3.136 -3.133 -3.128 -3.122 10.29403 14.69984 -8.97429
 3.66 2.75 -3.022 -3.020 -3.018 -3.012 -3.005 10.42611 14.94980 -8.72423
 3.66 3.00 -2.899 -2.897 -2.893 -2.888 -2.881 10.56038 15.19976 -8.47418
 3.66 3.20 -2.793 -2.792 -2.788 -2.783 -2.775 10.66991 15.39982 -8.27422
 3.66 3.40 -2.684 -2.681 -2.678 -2.672 -2.663 10.78178 15.59989 -8.07426
 3.66 3.60 -2.568 -2.566 -2.562 -2.556 -2.547 10.89628 15.79995 -7.87422
 3.66 3.80 -2.446 -2.444 -2.440 -2.433 -2.424 11.01437 15.99999 -7.67408
 3.66 4.00 -2.318 -2.316 -2.313 -2.306 -2.296 11.13609 16.20003 -7.47392
 3.66 4.20 -2.185 -2.182 -2.179 -2.172 -2.162 11.26271 16.40019 -7.27376
 3.66 4.40 -2.046 -2.044 -2.040 -2.034 -2.024 11.39389 16.60045 -7.07357
 3.66 4.60 -1.903 -1.901 -1.898 -1.891 -1.882 11.53033 16.80081 -6.87326
 3.66 4.80 -1.757 -1.755 -1.752 -1.745 -1.736 11.67129 17.00139 -6.67264
 3.66 5.00 -1.608 -1.607 -1.604 -1.599 -1.590 11.81584 17.20222 -6.47173
 3.66 5.20 -1.460 -1.459 -1.457 -1.451 -1.443 11.96480 17.40366 -6.27037
 3.66 5.40 -1.314 -1.312 -1.310 -1.306 -1.299 12.11398 17.60590 -6.06829
 3.66 5.60 -1.172 -1.171 -1.168 -1.164 -1.157 12.26335 17.80915 -5.86512
 3.66 5.80 -1.035 -1.034 -1.032 -1.029 -1.022 12.41276 18.01422 -5.65995
 3.66 6.00 -0.906 -0.906 -0.904 -0.900 -0.894 12.56217 18.22116 -5.45284
 3.66 6.25 -0.761 -0.760 -0.758 -0.754 -0.748 12.74487 18.48460 -5.18941
 3.66 6.50 -0.631 -0.630 -0.628 -0.624 -0.618 12.92443 18.75251 -4.92154
 3.66 6.75 -0.521 -0.520 -0.518 -0.514 -0.509 13.10040 19.02666 -4.64737
 3.66 7.00 -0.428 -0.427 -0.426 -0.422 -0.416 13.27254 19.30211 -4.37192
 3.66 7.25 -0.353 -0.352 -0.350 -0.346 -0.340 13.44032 19.57845 -4.09561
 3.66 7.50 -0.289 -0.288 -0.286 -0.282 -0.276 13.60401 19.85479 -3.81930
 3.66 7.75 -0.236 -0.235 -0.233 -0.229 -0.223 13.76373 20.12691 -3.54718
 3.66 8.00 -0.189 -0.188 -0.186 -0.181 -0.175 13.91945 20.39620 -3.27786
 3.68-2.00 -2.276 -2.275 -2.274 -2.271 -2.269  8.35622 10.17348-13.50073
 3.68-1.50 -2.504 -2.503 -2.502 -2.500 -2.497  8.60938 10.67614-12.99783
 3.68-1.00 -2.723 -2.723 -2.722 -2.719 -2.716  8.86130 11.17783-12.49621
 3.68-0.50 -2.928 -2.927 -2.925 -2.923 -2.919  9.11261 11.67870-11.99525
 3.68 0.00 -3.103 -3.102 -3.100 -3.097 -3.093  9.36342 12.17927-11.49485
 3.68 0.50 -3.225 -3.223 -3.222 -3.219 -3.214  9.61437 12.67952-10.99439
 3.68 1.00 -3.262 -3.261 -3.259 -3.255 -3.250  9.86534 13.17955-10.49444
 3.68 1.25 -3.244 -3.243 -3.241 -3.238 -3.231  9.99106 13.42967-10.24442
 3.68 1.50 -3.203 -3.201 -3.200 -3.196 -3.190 10.11694 13.67979 -9.99439
 3.68 1.75 -3.141 -3.140 -3.137 -3.133 -3.126 10.24295 13.92983 -9.74435
 3.68 2.00 -3.062 -3.061 -3.058 -3.053 -3.047 10.36922 14.17984 -9.49431
 3.68 2.25 -2.970 -2.968 -2.966 -2.961 -2.953 10.49599 14.42982 -9.24435
 3.68 2.50 -2.868 -2.866 -2.863 -2.858 -2.850 10.62335 14.67979 -8.99439
 3.68 2.75 -2.758 -2.757 -2.753 -2.747 -2.739 10.75148 14.92982 -8.74428
 3.68 3.00 -2.643 -2.640 -2.637 -2.631 -2.622 10.88058 15.17984 -8.49417
 3.68 3.20 -2.546 -2.544 -2.540 -2.534 -2.524 10.98476 15.37986 -8.29426
 3.68 3.40 -2.445 -2.443 -2.440 -2.433 -2.423 11.09000 15.57987 -8.09435
 3.68 3.60 -2.342 -2.339 -2.335 -2.328 -2.319 11.19644 15.77993 -7.89432
 3.68 3.80 -2.234 -2.232 -2.228 -2.220 -2.210 11.30464 15.98003 -7.69418
 3.68 4.00 -2.122 -2.120 -2.116 -2.108 -2.098 11.41464 16.18013 -7.49404
 3.68 4.20 -2.005 -2.003 -1.999 -1.992 -1.981 11.52705 16.38021 -7.29401
 3.68 4.40 -1.884 -1.882 -1.878 -1.871 -1.860 11.64219 16.58029 -7.09398
 3.68 4.60 -1.757 -1.755 -1.752 -1.744 -1.734 11.76037 16.78044 -6.89385
 3.68 4.80 -1.626 -1.624 -1.621 -1.614 -1.604 11.88224 16.98077 -6.69344
 3.68 5.00 -1.491 -1.489 -1.486 -1.480 -1.470 12.00775 17.18127 -6.49282
 3.68 5.20 -1.353 -1.351 -1.349 -1.342 -1.333 12.13788 17.38212 -6.29192
 3.68 5.40 -1.213 -1.211 -1.209 -1.203 -1.196 12.27152 17.58345 -6.09056
 3.68 5.60 -1.073 -1.072 -1.069 -1.065 -1.057 12.40910 17.78543 -5.88860
 3.68 5.80 -0.935 -0.934 -0.933 -0.929 -0.921 12.54926 17.98863 -5.68547
 3.68 6.00 -0.802 -0.801 -0.799 -0.794 -0.788 12.69108 18.19312 -5.48109
 3.68 6.25 -0.644 -0.643 -0.642 -0.638 -0.631 12.87034 18.45216 -5.22206
 3.68 6.50 -0.499 -0.498 -0.497 -0.493 -0.486 13.04961 18.71517 -4.95900
 3.68 6.75 -0.372 -0.371 -0.369 -0.365 -0.359 13.22719 18.98436 -4.68979
 3.68 7.00 -0.262 -0.261 -0.259 -0.256 -0.249 13.40278 19.25720 -4.41691
 3.68 7.25 -0.173 -0.172 -0.170 -0.166 -0.160 13.57366 19.53399 -4.14010
 3.68 7.50 -0.100 -0.099 -0.097 -0.093 -0.085 13.73997 19.81077 -3.86328
 3.68 7.75 -0.041 -0.040 -0.038 -0.034 -0.026 13.90054 20.08537 -3.58870
 3.68 8.00  0.008  0.009  0.011  0.016  0.023 14.05576 20.35851 -3.31560
 3.70-2.00 -1.940 -1.940 -1.938 -1.936 -1.933  8.67541 10.14551-13.52871
 3.70-1.50 -2.174 -2.173 -2.171 -2.169 -2.165  8.93222 10.65167-13.02246
 3.70-1.00 -2.399 -2.398 -2.397 -2.395 -2.390  9.18611 11.15534-12.51884
 3.70-0.50 -2.612 -2.611 -2.609 -2.606 -2.601  9.43839 11.65725-12.01687
 3.70 0.00 -2.798 -2.797 -2.795 -2.792 -2.787  9.68984 12.15836-11.51570
 3.70 0.50 -2.933 -2.932 -2.929 -2.926 -2.920  9.94081 12.65897-11.01511
 3.70 1.00 -2.982 -2.981 -2.979 -2.974 -2.968 10.19173 13.15927-10.51470
 3.70 1.25 -2.968 -2.967 -2.964 -2.960 -2.953 10.31718 13.40940-10.26460
 3.70 1.50 -2.930 -2.928 -2.925 -2.921 -2.914 10.44264 13.65954-10.01453
 3.70 1.75 -2.870 -2.868 -2.865 -2.860 -2.853 10.56818 13.90970 -9.76447
 3.70 2.00 -2.793 -2.791 -2.788 -2.782 -2.774 10.69382 14.15987 -9.51442
 3.70 2.25 -2.703 -2.701 -2.697 -2.691 -2.683 10.81966 14.40980 -9.26439
 3.70 2.50 -2.602 -2.601 -2.597 -2.591 -2.582 10.94576 14.65973 -9.01435
 3.70 2.75 -2.496 -2.493 -2.490 -2.483 -2.474 11.07226 14.90980 -8.76431
 3.70 3.00 -2.383 -2.381 -2.377 -2.370 -2.360 11.19921 15.15987 -8.51428
 3.70 3.20 -2.290 -2.288 -2.284 -2.277 -2.266 11.30112 15.35985 -8.31427
 3.70 3.40 -2.195 -2.192 -2.188 -2.181 -2.170 11.40349 15.55983 -8.11426
 3.70 3.60 -2.097 -2.094 -2.090 -2.082 -2.071 11.50639 15.75982 -7.91424
 3.70 3.80 -1.996 -1.994 -1.989 -1.981 -1.970 11.61011 15.95983 -7.71419
 3.70 4.00 -1.893 -1.891 -1.886 -1.878 -1.866 11.71467 16.15987 -7.51414
 3.70 4.20 -1.787 -1.784 -1.780 -1.772 -1.760 11.82037 16.35993 -7.31409
 3.70 4.40 -1.677 -1.675 -1.671 -1.662 -1.651 11.92745 16.56004 -7.11402
 3.70 4.60 -1.565 -1.562 -1.558 -1.550 -1.538 12.03603 16.76019 -6.91393
 3.70 4.80 -1.448 -1.445 -1.442 -1.434 -1.422 12.14666 16.96043 -6.71373
 3.70 5.00 -1.326 -1.325 -1.322 -1.314 -1.304 12.25936 17.16077 -6.51343
 3.70 5.20 -1.202 -1.200 -1.197 -1.190 -1.180 12.37475 17.36126 -6.31293
 3.70 5.40 -1.074 -1.073 -1.070 -1.064 -1.054 12.49291 17.56200 -6.11213
 3.70 5.60 -0.944 -0.943 -0.941 -0.935 -0.926 12.61411 17.76313 -5.91094
 3.70 5.80 -0.815 -0.814 -0.811 -0.806 -0.798 12.73849 17.96509 -5.70896
 3.70 6.00 -0.685 -0.684 -0.682 -0.677 -0.669 12.86581 18.16791 -5.50612
 3.70 6.25 -0.529 -0.528 -0.526 -0.521 -0.514 13.02951 18.42380 -5.25030
 3.70 6.50 -0.380 -0.379 -0.377 -0.372 -0.364 13.19645 18.68278 -4.99140
 3.70 6.75 -0.242 -0.241 -0.239 -0.234 -0.227 13.36688 18.94698 -4.72707
 3.70 7.00 -0.119 -0.118 -0.116 -0.112 -0.104 13.53732 19.21564 -4.45830
 3.70 7.25 -0.015 -0.014 -0.012 -0.008  0.000 13.70677 19.49052 -4.18357
 3.70 7.50  0.071  0.072  0.074  0.079  0.086 13.87477 19.76619 -3.90798
 3.70 7.75  0.138  0.139  0.142  0.147  0.154 14.03634 20.04212 -3.63211
 3.70 8.00  0.192  0.194  0.196  0.201  0.209 14.19312 20.31848 -3.35576
 3.73-2.00 -1.457 -1.457 -1.455 -1.453 -1.449  9.10585 10.08672-13.58737
 3.73-1.50 -1.691 -1.690 -1.689 -1.686 -1.681  9.37694 10.60487-13.06920
 3.73-1.00 -1.920 -1.919 -1.918 -1.915 -1.910  9.63889 11.11561-12.55846
 3.73-0.50 -2.139 -2.138 -2.137 -2.133 -2.128  9.89553 11.62180-12.05232
 3.73 0.00 -2.336 -2.335 -2.333 -2.329 -2.324 10.14953 12.12548-11.54883
 3.73 0.50 -2.487 -2.486 -2.484 -2.480 -2.473 10.40157 12.62726-11.04682
 3.73 1.00 -2.557 -2.556 -2.554 -2.549 -2.541 10.65302 13.12840-10.54561
 3.73 1.25 -2.553 -2.552 -2.549 -2.543 -2.535 10.77852 13.37874-10.29528
 3.73 1.50 -2.523 -2.521 -2.518 -2.513 -2.504 10.90396 13.62900-10.04504
 3.73 1.75 -2.469 -2.467 -2.463 -2.458 -2.449 11.02934 13.87921 -9.79485
 3.73 2.00 -2.397 -2.395 -2.391 -2.385 -2.376 11.15473 14.12937 -9.54470
 3.73 2.25 -2.310 -2.308 -2.305 -2.298 -2.288 11.28018 14.37951 -9.29459
 3.73 2.50 -2.214 -2.212 -2.208 -2.202 -2.191 11.40569 14.62961 -9.04450
 3.73 2.75 -2.111 -2.108 -2.104 -2.097 -2.086 11.53123 14.87965 -8.79444
 3.73 3.00 -2.002 -1.999 -1.996 -1.988 -1.976 11.65687 15.12969 -8.54439
 3.73 3.20 -1.912 -1.910 -1.906 -1.898 -1.887 11.75754 15.32973 -8.34436
 3.73 3.40 -1.821 -1.819 -1.814 -1.806 -1.794 11.85838 15.52979 -8.14433
 3.73 3.60 -1.727 -1.725 -1.720 -1.712 -1.700 11.95940 15.72986 -7.94430
 3.73 3.80 -1.632 -1.629 -1.625 -1.616 -1.603 12.06070 15.92993 -7.74427
 3.73 4.00 -1.536 -1.533 -1.528 -1.520 -1.507 12.16227 16.13001 -7.54424
 3.73 4.20 -1.437 -1.434 -1.429 -1.421 -1.408 12.26415 16.32998 -7.34420
 3.73 4.40 -1.336 -1.334 -1.329 -1.321 -1.308 12.36648 16.52994 -7.14415
 3.73 4.60 -1.233 -1.231 -1.227 -1.218 -1.205 12.46931 16.72997 -6.94408
 3.73 4.80 -1.129 -1.126 -1.122 -1.114 -1.102 12.57290 16.93012 -6.74396
 3.73 5.00 -1.022 -1.020 -1.016 -1.008 -0.996 12.67724 17.13033 -6.54379
 3.73 5.20 -0.912 -0.910 -0.906 -0.899 -0.888 12.78257 17.33058 -6.34355
 3.73 5.40 -0.800 -0.798 -0.795 -0.789 -0.778 12.88901 17.53093 -6.14319
 3.73 5.60 -0.686 -0.685 -0.682 -0.676 -0.666 12.99666 17.73146 -5.94263
 3.73 5.80 -0.570 -0.569 -0.567 -0.561 -0.552 13.10579 17.93244 -5.74162
 3.73 6.00 -0.454 -0.453 -0.451 -0.446 -0.437 13.21643 18.13386 -5.54016
 3.73 6.25 -0.311 -0.310 -0.308 -0.303 -0.294 13.35729 18.38690 -5.28715
 3.73 6.50 -0.170 -0.169 -0.167 -0.162 -0.153 13.50092 18.64177 -5.03236
 3.73 6.75 -0.035 -0.034 -0.031 -0.026 -0.018 13.64755 18.90010 -4.77404
 3.73 7.00  0.093  0.094  0.096  0.101  0.109 13.79685 19.16227 -4.51187
 3.73 7.25  0.206  0.208  0.210  0.215  0.223 13.94981 19.43034 -4.24383
 3.73 7.50  0.305  0.306  0.309  0.314  0.323 14.10278 19.70234 -3.97184
 3.73 7.75  0.386  0.387  0.389  0.395  0.404 14.25569 19.97729 -3.69683
 3.73 8.00  0.451  0.452  0.454  0.460  0.468 14.40858 20.25551 -3.41851
 3.76-2.00 -1.018 -1.017 -1.016 -1.013 -1.009  9.44963  9.98994-13.68424
 3.76-1.50 -1.236 -1.235 -1.233 -1.231 -1.226  9.75899 10.53224-13.14188
 3.76-1.00 -1.457 -1.456 -1.455 -1.452 -1.447 10.04297 11.05994-12.61404
 3.76-0.50 -1.673 -1.672 -1.670 -1.667 -1.661 10.31239 11.57692-12.09724
 3.76 0.00 -1.870 -1.870 -1.868 -1.864 -1.858 10.57334 12.08672-11.58737
 3.76 0.50 -2.030 -2.028 -2.026 -2.022 -2.016 10.82956 12.59240-11.08165
 3.76 1.00 -2.117 -2.115 -2.113 -2.108 -2.101 11.08314 13.09587-10.57840
 3.76 1.25 -2.124 -2.123 -2.120 -2.114 -2.107 11.20934 13.34676-10.32739
 3.76 1.50 -2.105 -2.104 -2.100 -2.095 -2.086 11.33526 13.59748-10.07660
 3.76 1.75 -2.062 -2.060 -2.057 -2.051 -2.042 11.46092 13.84813 -9.82594
 3.76 2.00 -1.999 -1.997 -1.993 -1.987 -1.978 11.58648 14.09864 -9.57545
 3.76 2.25 -1.920 -1.918 -1.914 -1.908 -1.898 11.71197 14.34893 -9.32516
 3.76 2.50 -1.830 -1.828 -1.825 -1.818 -1.808 11.83740 14.59912 -9.07495
 3.76 2.75 -1.732 -1.730 -1.727 -1.719 -1.708 11.96277 14.84923 -8.82477
 3.76 3.00 -1.629 -1.627 -1.623 -1.616 -1.604 12.08814 15.09934 -8.57463
 3.76 3.20 -1.543 -1.541 -1.537 -1.529 -1.518 12.18847 15.29947 -8.37454
 3.76 3.40 -1.456 -1.453 -1.449 -1.441 -1.429 12.28885 15.49960 -8.17446
 3.76 3.60 -1.366 -1.364 -1.360 -1.351 -1.339 12.38930 15.69967 -7.97440
 3.76 3.80 -1.275 -1.273 -1.269 -1.260 -1.248 12.48985 15.89968 -7.77435
 3.76 4.00 -1.184 -1.181 -1.176 -1.168 -1.155 12.59051 16.09968 -7.57430
 3.76 4.20 -1.089 -1.087 -1.083 -1.074 -1.060 12.69124 16.29976 -7.37427
 3.76 4.40 -0.995 -0.992 -0.987 -0.979 -0.965 12.79212 16.49984 -7.17424
 3.76 4.60 -0.897 -0.895 -0.891 -0.882 -0.869 12.89319 16.69991 -6.97419
 3.76 4.80 -0.799 -0.796 -0.793 -0.784 -0.770 12.99457 16.89997 -6.77409
 3.76 5.00 -0.699 -0.696 -0.693 -0.684 -0.672 13.09621 17.10003 -6.57398
 3.76 5.20 -0.596 -0.595 -0.591 -0.583 -0.571 13.19815 17.30014 -6.37386
 3.76 5.40 -0.493 -0.491 -0.488 -0.480 -0.469 13.30048 17.50032 -6.17370
 3.76 5.60 -0.387 -0.386 -0.383 -0.376 -0.366 13.40328 17.70058 -5.97344
 3.76 5.80 -0.281 -0.280 -0.277 -0.271 -0.261 13.50668 17.90105 -5.77294
 3.76 6.00 -0.174 -0.172 -0.170 -0.165 -0.156 13.61066 18.10175 -5.57219
 3.76 6.25 -0.043 -0.042 -0.040 -0.035 -0.026 13.74157 18.35333 -5.32065
 3.76 6.50  0.087  0.088  0.090  0.095  0.104 13.87350 18.60595 -5.06814
 3.76 6.75  0.215  0.216  0.218  0.223  0.232 14.00662 18.86051 -4.81357
 3.76 7.00  0.339  0.339  0.342  0.347  0.356 14.14051 19.11760 -4.55642
 3.76 7.25  0.454  0.454  0.457  0.462  0.471 14.27515 19.37928 -4.29481
 3.76 7.50  0.557  0.558  0.560  0.566  0.575 14.40993 19.64532 -4.02882
 3.76 7.75  0.643  0.644  0.646  0.652  0.661 14.54477 19.91640 -3.75772
 3.76 8.00  0.713  0.714  0.716  0.722  0.732 14.67970 20.19229 -3.48175
 3.79-2.00 -0.693 -0.692 -0.691 -0.688 -0.683  9.64856  9.86303-13.81107
 3.79-1.50 -0.843 -0.842 -0.841 -0.838 -0.833 10.03623 10.41963-13.25453
 3.79-1.00 -1.029 -1.028 -1.027 -1.024 -1.019 10.37346 10.97234-12.70180
 3.79-0.50 -1.225 -1.224 -1.223 -1.220 -1.214 10.67505 11.51068-12.16342
 3.79 0.00 -1.410 -1.409 -1.408 -1.404 -1.399 10.95458 12.03543-11.63884
 3.79 0.50 -1.564 -1.563 -1.561 -1.557 -1.552 11.22115 12.54998-11.12419
 3.79 1.00 -1.659 -1.658 -1.655 -1.652 -1.644 11.48073 13.05843-10.61547
 3.79 1.25 -1.675 -1.674 -1.671 -1.667 -1.660 11.60877 13.31129-10.36272
 3.79 1.50 -1.667 -1.666 -1.664 -1.659 -1.651 11.73608 13.56348-10.11064
 3.79 1.75 -1.637 -1.636 -1.633 -1.628 -1.620 11.86283 13.81511 -9.85904
 3.79 2.00 -1.587 -1.586 -1.583 -1.577 -1.569 11.98918 14.06633 -9.60783
 3.79 2.25 -1.520 -1.519 -1.516 -1.510 -1.501 12.11523 14.31721 -9.35696
 3.79 2.50 -1.441 -1.439 -1.436 -1.430 -1.421 12.24105 14.56785 -9.10629
 3.79 2.75 -1.352 -1.350 -1.347 -1.341 -1.331 12.36667 14.81823 -8.85577
 3.79 3.00 -1.257 -1.255 -1.252 -1.245 -1.235 12.49220 15.06856 -8.60537
 3.79 3.20 -1.177 -1.175 -1.172 -1.165 -1.154 12.59257 15.26880 -8.40518
 3.79 3.40 -1.095 -1.093 -1.090 -1.082 -1.071 12.69294 15.46903 -8.20499
 3.79 3.60 -1.011 -1.010 -1.005 -0.998 -0.987 12.79330 15.66925 -8.00482
 3.79 3.80 -0.926 -0.924 -0.920 -0.912 -0.900 12.89365 15.86947 -7.80465
 3.79 4.00 -0.839 -0.837 -0.833 -0.825 -0.813 12.99401 16.06967 -7.60450
 3.79 4.20 -0.751 -0.748 -0.744 -0.736 -0.723 13.09439 16.26964 -7.40447
 3.79 4.40 -0.661 -0.659 -0.654 -0.646 -0.633 13.19480 16.46962 -7.20443
 3.79 4.60 -0.569 -0.567 -0.563 -0.554 -0.541 13.29529 16.66969 -7.00436
 3.79 4.80 -0.476 -0.474 -0.469 -0.461 -0.448 13.39592 16.86987 -6.80426
 3.79 5.00 -0.381 -0.379 -0.375 -0.367 -0.354 13.49665 17.07004 -6.60415
 3.79 5.20 -0.284 -0.283 -0.279 -0.271 -0.258 13.59751 17.27005 -6.40410
 3.79 5.40 -0.185 -0.184 -0.181 -0.173 -0.162 13.69854 17.47007 -6.20405
 3.79 5.60 -0.086 -0.084 -0.081 -0.075 -0.064 13.79979 17.67014 -6.00395
 3.79 5.80  0.015  0.016  0.019  0.024  0.035 13.90131 17.87039 -5.80368
 3.79 6.00  0.116  0.117  0.120  0.125  0.135 14.00303 18.07078 -5.60328
 3.79 6.25  0.241  0.242  0.244  0.249  0.259 14.13045 18.32161 -5.35248
 3.79 6.50  0.366  0.366  0.368  0.374  0.382 14.25816 18.57299 -5.10117
 3.79 6.75  0.489  0.489  0.492  0.496  0.506 14.38629 18.82536 -4.84875
 3.79 7.00  0.609  0.610  0.612  0.618  0.626 14.51442 19.07918 -4.59483
 3.79 7.25  0.725  0.725  0.728  0.732  0.742 14.64221 19.33600 -4.33804
 3.79 7.50  0.832  0.832  0.834  0.840  0.848 14.76952 19.59627 -4.07785
 3.79 7.75  0.925  0.926  0.928  0.933  0.941 14.89485 19.86190 -3.81227
 3.79 8.00  1.002  1.003  1.005  1.010  1.019 15.01870 20.13226 -3.54197
 3.82-2.00 -0.559 -0.558 -0.557 -0.554 -0.548  9.69810  9.77612-13.89791
 3.82-1.50 -0.603 -0.602 -0.601 -0.598 -0.591 10.16227 10.30406-13.37008
 3.82-1.00 -0.694 -0.693 -0.692 -0.688 -0.682 10.58365 10.85297-12.82102
 3.82-0.50 -0.827 -0.826 -0.825 -0.822 -0.816 10.95168 11.41027-12.26392
 3.82 0.00 -0.974 -0.973 -0.972 -0.969 -0.963 11.27416 11.95818-11.71602
 3.82 0.50 -1.104 -1.103 -1.102 -1.099 -1.093 11.56632 12.49108-11.18303
 3.82 1.00 -1.191 -1.190 -1.188 -1.184 -1.179 11.84023 13.01157-10.66254
 3.82 1.25 -1.210 -1.209 -1.207 -1.203 -1.197 11.97295 13.26838-10.40571
 3.82 1.50 -1.211 -1.210 -1.207 -1.204 -1.197 12.10380 13.52362-10.15046
 3.82 1.75 -1.193 -1.191 -1.189 -1.184 -1.178 12.23320 13.77757 -9.89645
 3.82 2.00 -1.156 -1.154 -1.152 -1.148 -1.141 12.36154 14.03060 -9.64340
 3.82 2.25 -1.103 -1.102 -1.100 -1.095 -1.087 12.48903 14.28290 -9.39118
 3.82 2.50 -1.038 -1.037 -1.034 -1.029 -1.021 12.61595 14.53466 -9.13948
 3.82 2.75 -0.962 -0.961 -0.958 -0.953 -0.944 12.74243 14.78602 -8.88815
 3.82 3.00 -0.879 -0.877 -0.874 -0.869 -0.860 12.86859 15.03703 -8.63714
 3.82 3.20 -0.808 -0.806 -0.803 -0.797 -0.788 12.96933 15.23756 -8.43657
 3.82 3.40 -0.733 -0.732 -0.728 -0.722 -0.713 13.06996 15.43801 -8.23610
 3.82 3.60 -0.657 -0.655 -0.652 -0.646 -0.635 13.17051 15.63839 -8.03570
 3.82 3.80 -0.578 -0.576 -0.573 -0.566 -0.556 13.27100 15.83874 -7.83535
 3.82 4.00 -0.498 -0.496 -0.493 -0.486 -0.475 13.37144 16.03902 -7.63507
 3.82 4.20 -0.416 -0.414 -0.411 -0.403 -0.392 13.47183 16.23914 -7.43495
 3.82 4.40 -0.332 -0.331 -0.326 -0.319 -0.308 13.57223 16.43927 -7.23483
 3.82 4.60 -0.247 -0.245 -0.242 -0.233 -0.221 13.67263 16.63943 -7.03472
 3.82 4.80 -0.160 -0.158 -0.154 -0.147 -0.135 13.77305 16.83962 -6.83462
 3.82 5.00 -0.071 -0.069 -0.065 -0.058 -0.046 13.87350 17.03981 -6.63451
 3.82 5.20  0.019  0.021  0.024  0.032  0.044 13.97398 17.23982 -6.43441
 3.82 5.40  0.112  0.114  0.117  0.124  0.135 14.07453 17.43983 -6.23430
 3.82 5.60  0.207  0.208  0.210  0.218  0.228 14.17520 17.63987 -6.03417
 3.82 5.80  0.303  0.304  0.307  0.312  0.323 14.27602 17.84000 -5.83399
 3.82 6.00  0.400  0.401  0.404  0.409  0.418 14.37694 18.04021 -5.63376
 3.82 6.25  0.520  0.521  0.524  0.528  0.538 14.50321 18.29063 -5.38337
 3.82 6.50  0.641  0.642  0.644  0.649  0.658 14.62961 18.54133 -5.13277
 3.82 6.75  0.762  0.762  0.764  0.769  0.777 14.75618 18.79254 -4.88155
 3.82 7.00  0.880  0.881  0.884  0.888  0.897 14.88275 19.04454 -4.62949
 3.82 7.25  0.997  0.998  1.000  1.004  1.013 15.00891 19.29824 -4.37582
 3.82 7.50  1.108  1.110  1.112  1.116  1.124 15.13450 19.55413 -4.11999
 3.82 7.75  1.210  1.211  1.213  1.218  1.226 15.25790 19.81418 -3.85994
 3.82 8.00  1.300  1.301  1.302  1.307  1.314 15.37967 20.07773 -3.59636
 3.85-2.00 -0.531 -0.531 -0.529 -0.525 -0.518  9.68458  9.73199-13.94195
 3.85-1.50 -0.529 -0.528 -0.527 -0.522 -0.515 10.17696 10.23855-13.43545
 3.85-1.00 -0.533 -0.532 -0.530 -0.525 -0.518 10.65533 10.75656-12.91757
 3.85-0.50 -0.556 -0.555 -0.554 -0.550 -0.543 11.10209 11.29469-12.37945
 3.85 0.00 -0.612 -0.611 -0.610 -0.607 -0.601 11.49859 11.84997-11.82420
 3.85 0.50 -0.682 -0.681 -0.680 -0.677 -0.672 11.84354 12.40449-11.26970
 3.85 1.00 -0.735 -0.735 -0.733 -0.730 -0.725 12.15014 12.94537-10.72862
 3.85 1.25 -0.747 -0.747 -0.745 -0.742 -0.737 12.29352 13.21013-10.46388
 3.85 1.50 -0.747 -0.746 -0.744 -0.741 -0.736 12.43249 13.47188-10.20218
 3.85 1.75 -0.734 -0.733 -0.731 -0.727 -0.722 12.56800 13.73101 -9.94315
 3.85 2.00 -0.706 -0.705 -0.704 -0.700 -0.694 12.70096 13.98807 -9.68613
 3.85 2.25 -0.667 -0.666 -0.664 -0.660 -0.654 12.83190 14.24330 -9.43077
 3.85 2.50 -0.616 -0.615 -0.613 -0.609 -0.602 12.96142 14.49734 -9.17666
 3.85 2.75 -0.555 -0.554 -0.552 -0.548 -0.541 13.08986 14.75059 -8.92356
 3.85 3.00 -0.486 -0.485 -0.483 -0.478 -0.471 13.21748 15.00303 -8.67121
 3.85 3.20 -0.426 -0.425 -0.423 -0.418 -0.410 13.31910 15.20431 -8.46982
 3.85 3.40 -0.362 -0.361 -0.358 -0.353 -0.346 13.42043 15.40538 -8.26867
 3.85 3.60 -0.295 -0.294 -0.291 -0.286 -0.277 13.52151 15.60629 -8.06774
 3.85 3.80 -0.226 -0.224 -0.222 -0.216 -0.207 13.62243 15.80709 -7.86696
 3.85 4.00 -0.154 -0.153 -0.149 -0.143 -0.135 13.72321 16.00775 -7.66635
 3.85 4.20 -0.080 -0.078 -0.075 -0.069 -0.060 13.82389 16.20820 -7.46597
 3.85 4.40 -0.005 -0.003  0.000  0.007  0.016 13.92450 16.40854 -7.26565
 3.85 4.60  0.073  0.074  0.077  0.084  0.094 14.02505 16.60874 -7.06538
 3.85 4.80  0.153  0.154  0.158  0.164  0.175 14.12557 16.80888 -6.86515
 3.85 5.00  0.234  0.236  0.239  0.246  0.256 14.22609 17.00903 -6.66494
 3.85 5.20  0.318  0.320  0.323  0.330  0.340 14.32666 17.20926 -6.46479
 3.85 5.40  0.405  0.406  0.409  0.415  0.425 14.42725 17.40949 -6.26464
 3.85 5.60  0.493  0.494  0.496  0.503  0.513 14.52786 17.60966 -6.06448
 3.85 5.80  0.583  0.584  0.587  0.592  0.602 14.62850 17.80977 -5.86432
 3.85 6.00  0.675  0.677  0.679  0.684  0.692 14.72916 18.00988 -5.66414
 3.85 6.25  0.790  0.791  0.793  0.798  0.807 14.85513 18.26009 -5.41390
 3.85 6.50  0.907  0.908  0.910  0.914  0.923 14.98118 18.51041 -5.16361
 3.85 6.75  1.024  1.024  1.027  1.031  1.039 15.10734 18.76100 -4.91299
 3.85 7.00  1.141  1.142  1.144  1.148  1.155 15.23350 19.01199 -4.66194
 3.85 7.25  1.258  1.258  1.261  1.265  1.272 15.35943 19.26386 -4.41014
 3.85 7.50  1.373  1.373  1.376  1.379  1.387 15.48501 19.51693 -4.15720
 3.85 7.75  1.482  1.482  1.485  1.489  1.495 15.60910 19.77252 -3.90158
 3.85 8.00  1.584  1.585  1.586  1.590  1.596 15.73207 20.03020 -3.64378
 3.88-2.00 -0.530 -0.529 -0.528 -0.525 -0.519  9.65744  9.69923-13.97469
 3.88-1.50 -0.520 -0.519 -0.517 -0.512 -0.505 10.15594 10.20058-13.47353
 3.88-1.00 -0.498 -0.497 -0.494 -0.489 -0.481 10.65138 10.70475-12.96940
 3.88-0.50 -0.459 -0.458 -0.455 -0.450 -0.442 11.13767 11.21643-12.45755
 3.88 0.00 -0.409 -0.408 -0.407 -0.402 -0.396 11.60097 11.74492-11.92922
 3.88 0.50 -0.367 -0.367 -0.365 -0.362 -0.356 12.02119 12.29425-11.37986
 3.88 1.00 -0.339 -0.338 -0.337 -0.334 -0.329 12.38810 12.85144-10.82275
 3.88 1.25 -0.325 -0.324 -0.323 -0.320 -0.315 12.55346 13.12667-10.54746
 3.88 1.50 -0.307 -0.307 -0.306 -0.302 -0.297 12.70978 13.39898-10.27507
 3.88 1.75 -0.285 -0.285 -0.283 -0.280 -0.276 12.85831 13.66702-10.00712
 3.88 2.00 -0.257 -0.257 -0.255 -0.252 -0.247 13.00130 13.93166 -9.74256
 3.88 2.25 -0.223 -0.222 -0.220 -0.217 -0.212 13.13995 14.19295 -9.48120
 3.88 2.50 -0.181 -0.180 -0.179 -0.175 -0.170 13.27531 14.45179 -9.22228
 3.88 2.75 -0.133 -0.132 -0.130 -0.127 -0.121 13.40798 14.70860 -8.96544
 3.88 3.00 -0.078 -0.077 -0.075 -0.072 -0.065 13.53883 14.96383 -8.71019
 3.88 3.20 -0.029 -0.028 -0.026 -0.023 -0.016 13.64246 15.16703 -8.50701
 3.88 3.40  0.022  0.023  0.025  0.029  0.036 13.74545 15.36963 -8.30443
 3.88 3.60  0.078  0.079  0.081  0.085  0.092 13.84788 15.57167 -8.10240
 3.88 3.80  0.137  0.138  0.140  0.145  0.152 13.94991 15.77336 -7.90073
 3.88 4.00  0.198  0.199  0.202  0.207  0.214 14.05154 15.97470 -7.69941
 3.88 4.20  0.262  0.264  0.266  0.271  0.279 14.15273 16.17576 -7.49835
 3.88 4.40  0.329  0.330  0.333  0.338  0.346 14.25379 16.37662 -7.29751
 3.88 4.60  0.398  0.399  0.402  0.407  0.416 14.35477 16.57728 -7.09686
 3.88 4.80  0.469  0.470  0.472  0.479  0.487 14.45569 16.77781 -6.89635
 3.88 5.00  0.542  0.543  0.546  0.552  0.561 14.55654 16.97823 -6.69594
 3.88 5.20  0.618  0.619  0.622  0.627  0.636 14.65727 17.17858 -6.49560
 3.88 5.40  0.696  0.697  0.699  0.705  0.714 14.75799 17.37888 -6.29531
 3.88 5.60  0.776  0.777  0.780  0.785  0.794 14.85873 17.57910 -6.09506
 3.88 5.80  0.859  0.860  0.863  0.867  0.876 14.95952 17.77929 -5.89484
 3.88 6.00  0.945  0.946  0.948  0.952  0.960 15.06032 17.97946 -5.69465
 3.88 6.25  1.053  1.054  1.055  1.060  1.067 15.18634 18.22966 -5.44444
 3.88 6.50  1.163  1.164  1.166  1.171  1.177 15.31239 18.47986 -5.19423
 3.88 6.75  1.275  1.276  1.278  1.282  1.289 15.43865 18.73020 -4.94388
 3.88 7.00  1.390  1.390  1.392  1.396  1.403 15.56490 18.98069 -4.69336
 3.88 7.25  1.505  1.506  1.507  1.511  1.518 15.69109 19.23147 -4.44257
 3.88 7.50  1.621  1.621  1.623  1.626  1.633 15.81717 19.48273 -4.19132
 3.88 7.75  1.734  1.735  1.737  1.740  1.746 15.94228 19.73532 -3.93872
 3.88 8.00  1.845  1.846  1.847  1.850  1.855 16.06670 19.98896 -3.68508
 3.91-2.00 -0.533 -0.533 -0.531 -0.529 -0.525  9.62808  9.66876-14.00533
 3.91-1.50 -0.523 -0.523 -0.521 -0.518 -0.511 10.12775 10.16909-13.50501
 3.91-1.00 -0.502 -0.501 -0.498 -0.493 -0.485 10.62675 10.66997-13.00410
 3.91-0.50 -0.454 -0.452 -0.450 -0.444 -0.434 11.12353 11.17260-12.50141
 3.91 0.00 -0.364 -0.362 -0.360 -0.354 -0.345 11.61426 11.68097-11.99311
 3.91 0.50 -0.231 -0.230 -0.228 -0.223 -0.216 12.08778 12.20249-11.47173
 3.91 1.00 -0.082 -0.081 -0.080 -0.076 -0.070 12.52556 12.74484-10.92922
 3.91 1.25 -0.013 -0.012 -0.011 -0.008 -0.003 12.72476 13.02315-10.65088
 3.91 1.50  0.048  0.049  0.050  0.053  0.058 12.91126 13.30146-10.37253
 3.91 1.75  0.102  0.103  0.104  0.107  0.112 13.08454 13.57849-10.09551
 3.91 2.00  0.152  0.152  0.153  0.156  0.161 13.24748 13.85388 -9.82016
 3.91 2.25  0.197  0.197  0.199  0.202  0.206 13.40123 14.12452 -9.54953
 3.91 2.50  0.241  0.242  0.244  0.247  0.251 13.54827 14.39164 -9.28241
 3.91 2.75  0.286  0.287  0.289  0.292  0.296 13.68983 14.65515 -9.01889
 3.91 3.00  0.334  0.335  0.336  0.340  0.345 13.82743 14.91582 -8.75820
 3.91 3.20  0.374  0.375  0.376  0.380  0.385 13.93517 15.12247 -8.55156
 3.91 3.40  0.417  0.418  0.419  0.423  0.428 14.04150 15.32794 -8.34610
 3.91 3.60  0.462  0.463  0.465  0.468  0.474 14.14648 15.53229 -8.14178
 3.91 3.80  0.510  0.511  0.513  0.517  0.523 14.25060 15.73587 -7.93825
 3.91 4.00  0.562  0.563  0.564  0.568  0.574 14.35392 15.93872 -7.73542
 3.91 4.20  0.615  0.616  0.617  0.622  0.628 14.45659 16.14099 -7.53316
 3.91 4.40  0.671  0.672  0.674  0.679  0.685 14.55884 16.34282 -7.33132
 3.91 4.60  0.729  0.731  0.733  0.737  0.745 14.66070 16.54425 -7.12985
 3.91 4.80  0.791  0.792  0.794  0.798  0.806 14.76233 16.74541 -6.92864
 3.91 5.00  0.855  0.856  0.858  0.862  0.870 14.86374 16.94631 -6.72769
 3.91 5.20  0.921  0.922  0.924  0.928  0.936 14.96490 17.14697 -6.52700
 3.91 5.40  0.990  0.990  0.993  0.998  1.005 15.06604 17.34754 -6.32644
 3.91 5.60  1.061  1.062  1.064  1.068  1.076 15.16717 17.54802 -6.12602
 3.91 5.80  1.136  1.137  1.139  1.143  1.150 15.26829 17.74845 -5.92568
 3.91 6.00  1.213  1.214  1.215  1.219  1.226 15.36940 17.94880 -5.72538
 3.91 6.25  1.312  1.312  1.315  1.318  1.325 15.49576 18.19907 -5.47505
 3.91 6.50  1.415  1.416  1.417  1.421  1.427 15.62211 18.44933 -5.22475
 3.91 6.75  1.521  1.521  1.523  1.526  1.532 15.74870 18.69959 -4.97449
 3.91 7.00  1.629  1.630  1.631  1.635  1.640 15.87529 18.94988 -4.72423
 3.91 7.25  1.740  1.741  1.742  1.746  1.751 16.00187 19.20024 -4.47389
 3.91 7.50  1.854  1.854  1.856  1.859  1.864 16.12840 19.45071 -4.22344
 3.91 7.75  1.968  1.969  1.970  1.973  1.978 16.25454 19.70167 -3.97244
 3.91 8.00  2.082  2.083  2.085  2.087  2.092 16.38039 19.95299 -3.72102
 3.94-2.00 -0.535 -0.535 -0.534 -0.532 -0.530  9.59835  9.63839-14.03569
 3.94-1.50 -0.529 -0.528 -0.527 -0.525 -0.520 10.09795 10.13862-13.53551
 3.94-1.00 -0.512 -0.511 -0.510 -0.506 -0.500 10.59781 10.63889-13.03518
 3.94-0.50 -0.472 -0.471 -0.468 -0.463 -0.454 11.09691 11.13956-12.53462
 3.94 0.00 -0.384 -0.383 -0.380 -0.374 -0.364 11.59484 11.64167-12.03245
 3.94 0.50 -0.230 -0.228 -0.225 -0.220 -0.210 12.08778 12.14768-11.52637
 3.94 1.00 -0.007 -0.005 -0.004  0.001  0.008 12.56785 12.66455-11.00953
 3.94 1.25  0.118  0.119  0.121  0.126  0.132 12.79733 12.93034-10.74369
 3.94 1.50  0.244  0.244  0.246  0.250  0.256 13.01745 13.20085-10.47314
 3.94 1.75  0.358  0.358  0.360  0.363  0.369 13.22426 13.47809-10.19606
 3.94 2.00  0.458  0.458  0.459  0.463  0.468 13.41847 13.75549 -9.91865
 3.94 2.25  0.540  0.541  0.542  0.545  0.550 13.59844 14.03299 -9.64108
 3.94 2.50  0.610  0.611  0.612  0.615  0.620 13.76716 14.31048 -9.36351
 3.94 2.75  0.669  0.670  0.671  0.674  0.679 13.92551 14.58328 -9.09068
 3.94 3.00  0.723  0.724  0.725  0.728  0.733 14.07628 14.85266 -8.82131
 3.94 3.20  0.763  0.764  0.766  0.769  0.773 14.19228 15.06517 -8.60890
 3.94 3.40  0.803  0.804  0.805  0.809  0.814 14.30535 15.27570 -8.39846
 3.94 3.60  0.843  0.844  0.845  0.849  0.854 14.41559 15.48424 -8.18989
 3.94 3.80  0.884  0.885  0.886  0.890  0.895 14.52395 15.69129 -7.98277
 3.94 4.00  0.927  0.927  0.929  0.932  0.938 14.63063 15.89697 -7.77702
 3.94 4.20  0.971  0.972  0.974  0.977  0.983 14.73600 16.10148 -7.57254
 3.94 4.40  1.018  1.019  1.020  1.024  1.030 14.84044 16.30517 -7.36889
 3.94 4.60  1.067  1.068  1.069  1.073  1.079 14.94399 16.50810 -7.16599
 3.94 4.80  1.118  1.119  1.120  1.124  1.130 15.04698 16.71052 -6.96361
 3.94 5.00  1.172  1.172  1.175  1.179  1.185 15.14953 16.91243 -6.76170
 3.94 5.20  1.228  1.229  1.231  1.235  1.241 15.25176 17.11393 -6.56018
 3.94 5.40  1.288  1.288  1.290  1.294  1.301 15.35375 17.31514 -6.35896
 3.94 5.60  1.350  1.351  1.352  1.356  1.362 15.45549 17.51610 -6.15803
 3.94 5.80  1.415  1.415  1.417  1.420  1.426 15.55711 17.71689 -5.95730
 3.94 6.00  1.483  1.483  1.485  1.488  1.494 15.65868 17.91751 -5.75671
 3.94 6.25  1.572  1.572  1.573  1.577  1.582 15.78561 18.16804 -5.50611
 3.94 6.50  1.665  1.665  1.667  1.669  1.675 15.91254 18.41847 -5.25563
 3.94 6.75  1.762  1.762  1.764  1.766  1.771 16.03959 18.66886 -5.00528
 3.94 7.00  1.863  1.863  1.865  1.867  1.872 16.16673 18.91918 -4.75498
 3.94 7.25  1.968  1.969  1.970  1.972  1.977 16.29400 19.16940 -4.50472
 3.94 7.50  2.077  2.078  2.079  2.081  2.085 16.42127 19.41963 -4.25446
 3.94 7.75  2.189  2.189  2.190  2.193  2.196 16.54833 19.66997 -4.00413
 3.94 8.00  2.302  2.303  2.304  2.306  2.309 16.67523 19.92039 -3.75375
 3.97-2.00 -0.532 -0.532 -0.531 -0.530 -0.528  9.57019  9.60681-14.06732
 3.97-1.50 -0.531 -0.531 -0.530 -0.528 -0.526 10.06893 10.10789-13.56623
 3.97-1.00 -0.520 -0.520 -0.519 -0.516 -0.512 10.56820 10.60853-13.06550
 3.97-0.50 -0.491 -0.490 -0.488 -0.484 -0.478 11.06781 11.10890-12.56511
 3.97 0.00 -0.420 -0.419 -0.416 -0.411 -0.402 11.56714 11.60959-12.06449
 3.97 0.50 -0.278 -0.276 -0.274 -0.267 -0.257 12.06521 12.11126-11.56288
 3.97 1.00 -0.046 -0.044 -0.042 -0.036 -0.025 12.55955 12.61637-11.05774
 3.97 1.25  0.101  0.103  0.105  0.111  0.120 12.80318 12.87187-10.80224
 3.97 1.50  0.264  0.266  0.268  0.273  0.281 13.04297 13.13033-10.54379
 3.97 1.75  0.432  0.433  0.435  0.439  0.448 13.27594 13.39390-10.28022
 3.97 2.00  0.594  0.595  0.596  0.601  0.607 13.50065 13.66219-10.01193
 3.97 2.25  0.737  0.738  0.740  0.744  0.750 13.71264 13.93721 -9.73699
 3.97 2.50  0.861  0.862  0.864  0.868  0.873 13.91233 14.21405 -9.46017
 3.97 2.75  0.961  0.962  0.964  0.967  0.972 14.09762 14.49219 -9.18198
 3.97 3.00  1.044  1.045  1.047  1.050  1.055 14.27114 14.77034 -8.90379
 3.97 3.20  1.099  1.100  1.102  1.105  1.110 14.40169 14.98987 -8.68422
 3.97 3.40  1.148  1.149  1.151  1.154  1.159 14.52689 15.20736 -8.46671
 3.97 3.60  1.193  1.194  1.195  1.199  1.203 14.64689 15.42243 -8.25165
 3.97 3.80  1.235  1.236  1.237  1.240  1.245 14.76325 15.63506 -8.03907
 3.97 4.00  1.276  1.276  1.277  1.281  1.286 14.87633 15.84560 -7.82857
 3.97 4.20  1.316  1.316  1.318  1.321  1.326 14.98674 16.05414 -7.62004
 3.97 4.40  1.356  1.357  1.359  1.361  1.367 15.09531 16.26120 -7.41297
 3.97 4.60  1.398  1.399  1.401  1.403  1.409 15.20215 16.46683 -7.20729
 3.97 4.80  1.442  1.443  1.444  1.447  1.453 15.30789 16.67143 -7.00261
 3.97 5.00  1.488  1.489  1.490  1.493  1.499 15.41263 16.87512 -6.79888
 3.97 5.20  1.536  1.537  1.538  1.541  1.546 15.51659 17.07808 -6.59602
 3.97 5.40  1.586  1.587  1.588  1.591  1.596 15.62002 17.28048 -6.39367
 3.97 5.60  1.639  1.640  1.641  1.644  1.649 15.72293 17.48236 -6.19175
 3.97 5.80  1.695  1.696  1.697  1.700  1.705 15.82556 17.68389 -5.99015
 3.97 6.00  1.754  1.754  1.756  1.758  1.763 15.92799 17.88508 -5.78888
 3.97 6.25  1.832  1.832  1.833  1.835  1.841 16.05577 18.13617 -5.53784
 3.97 6.50  1.915  1.915  1.916  1.918  1.923 16.18356 18.38704 -5.28701
 3.97 6.75  2.002  2.002  2.003  2.005  2.010 16.31141 18.63777 -5.03627
 3.97 7.00  2.095  2.095  2.095  2.097  2.102 16.43933 18.88835 -4.78569
 3.97 7.25  2.192  2.192  2.193  2.195  2.199 16.56738 19.13870 -4.53535
 3.97 7.50  2.294  2.294  2.295  2.297  2.300 16.69548 19.38899 -4.28508
 3.97 7.75  2.400  2.400  2.401  2.403  2.406 16.82363 19.63925 -4.03484
 3.97 8.00  2.510  2.511  2.511  2.513  2.516 16.95182 19.88947 -3.78463
 4.00-2.00 -0.516 -0.516 -0.515 -0.515 -0.513  9.54937  9.56820-14.10591
 4.00-1.50 -0.523 -0.523 -0.523 -0.521 -0.520 10.04376 10.07335-13.60067
 4.00-1.00 -0.522 -0.522 -0.521 -0.519 -0.516 10.54033 10.57680-13.09735
 4.00-0.50 -0.504 -0.504 -0.503 -0.500 -0.495 11.03862 11.07809-12.59585
 4.00 0.00 -0.453 -0.452 -0.450 -0.446 -0.438 11.53795 11.57887-12.09523
 4.00 0.50 -0.336 -0.335 -0.333 -0.327 -0.317 12.03703 12.07954-11.59448
 4.00 1.00 -0.125 -0.124 -0.121 -0.114 -0.103 12.53555 12.58115-11.09297
 4.00 1.25  0.018  0.019  0.023  0.029  0.040 12.78371 12.83287-10.84129
 4.00 1.50  0.187  0.188  0.191  0.198  0.209 13.03060 13.08565-10.58855
 4.00 1.75  0.373  0.374  0.377  0.383  0.394 13.27506 13.34046-10.33374
 4.00 2.00  0.569  0.570  0.572  0.579  0.588 13.51614 13.59791-10.07624
 4.00 2.25  0.763  0.764  0.766  0.771  0.779 13.75095 13.86003 -9.81400
 4.00 2.50  0.945  0.946  0.948  0.953  0.960 13.97814 14.12678 -9.54714
 4.00 2.75  1.106  1.107  1.109  1.112  1.119 14.19340 14.40044 -9.27359
 4.00 3.00  1.243  1.244  1.246  1.249  1.255 14.39672 14.67669 -8.99740
 4.00 3.20  1.333  1.334  1.335  1.339  1.344 14.54875 14.89942 -8.77467
 4.00 3.40  1.410  1.411  1.412  1.415  1.420 14.69305 15.12214 -8.55194
 4.00 3.60  1.475  1.475  1.476  1.480  1.485 14.82937 15.34385 -8.33027
 4.00 3.80  1.530  1.530  1.532  1.535  1.539 14.95927 15.56311 -8.11108
 4.00 4.00  1.579  1.580  1.581  1.584  1.588 15.08350 15.78046 -7.89381
 4.00 4.20  1.623  1.623  1.624  1.627  1.632 15.20281 15.99483 -7.67938
 4.00 4.40  1.664  1.664  1.666  1.668  1.673 15.31867 16.20707 -7.46707
 4.00 4.60  1.704  1.704  1.705  1.708  1.712 15.43124 16.41716 -7.25690
 4.00 4.80  1.743  1.743  1.745  1.747  1.752 15.54162 16.62552 -7.04847
 4.00 5.00  1.783  1.784  1.785  1.787  1.792 15.65002 16.83232 -6.84164
 4.00 5.20  1.825  1.825  1.826  1.828  1.833 15.75679 17.03772 -6.63625
 4.00 5.40  1.868  1.868  1.869  1.872  1.876 15.86249 17.24215 -6.43186
 4.00 5.60  1.913  1.914  1.914  1.917  1.921 15.96713 17.44568 -6.22842
 4.00 5.80  1.961  1.961  1.962  1.965  1.969 16.07114 17.64859 -6.02560
 4.00 6.00  2.011  2.011  2.013  2.015  2.019 16.17464 17.85089 -5.82333
 4.00 6.25  2.079  2.079  2.080  2.082  2.085 16.30346 18.10303 -5.57105
 4.00 6.50  2.152  2.152  2.152  2.155  2.158 16.43201 18.35468 -5.31930
 4.00 6.75  2.229  2.229  2.230  2.232  2.235 16.56035 18.60601 -5.06799
 4.00 7.00  2.312  2.313  2.313  2.315  2.318 16.68869 18.85703 -4.81702
 4.00 7.25  2.401  2.402  2.402  2.404  2.406 16.81715 19.10777 -4.56639
 4.00 7.50  2.496  2.496  2.497  2.498  2.501 16.94576 19.35832 -4.31587
 4.00 7.75  2.596  2.596  2.597  2.598  2.601 17.07488 19.60874 -4.06541
 4.00 8.00  2.701  2.701  2.701  2.703  2.705 17.20439 19.85902 -3.81503
 4.05-2.00 -0.497 -0.497 -0.497 -0.496 -0.494  9.50826  9.50947-14.16456
 4.05-1.50 -0.498 -0.498 -0.497 -0.496 -0.494 10.00732 10.01072-13.66334
 4.05-1.00 -0.500 -0.499 -0.498 -0.497 -0.495 10.50420 10.51362-13.16052
 4.05-0.50 -0.499 -0.498 -0.498 -0.496 -0.493 10.99900 11.01870-12.65561
 4.05 0.00 -0.482 -0.481 -0.480 -0.477 -0.473 11.49346 11.52388-12.15021
 4.05 0.50 -0.418 -0.417 -0.415 -0.412 -0.405 11.98994 12.02694-11.64705
 4.05 1.00 -0.270 -0.269 -0.266 -0.261 -0.252 12.48827 12.52866-11.14545
 4.05 1.25 -0.154 -0.152 -0.150 -0.144 -0.134 12.73761 12.77923-10.89490
 4.05 1.50 -0.008 -0.007 -0.004  0.003  0.013 12.98695 13.02979-10.64436
 4.05 1.75  0.165  0.167  0.169  0.177  0.188 13.23598 13.28068-10.39343
 4.05 2.00  0.363  0.364  0.367  0.374  0.386 13.48458 13.53199-10.14207
 4.05 2.25  0.576  0.578  0.581  0.587  0.599 13.73202 13.78424 -9.88979
 4.05 2.50  0.798  0.799  0.801  0.809  0.819 13.97786 14.03783 -9.63620
 4.05 2.75  1.020  1.021  1.024  1.030  1.039 14.22059 14.29411 -9.37994
 4.05 3.00  1.237  1.238  1.240  1.245  1.253 14.45909 14.55364 -9.12045
 4.05 3.20  1.399  1.400  1.403  1.407  1.415 14.64444 14.76519 -8.90886
 4.05 3.40  1.550  1.551  1.553  1.557  1.563 14.82410 14.97974 -8.69428
 4.05 3.60  1.685  1.686  1.687  1.690  1.696 14.99684 15.19853 -8.47551
 4.05 3.80  1.801  1.802  1.804  1.806  1.812 15.16099 15.41972 -8.25436
 4.05 4.00  1.902  1.903  1.904  1.906  1.911 15.31723 15.64147 -8.03264
 4.05 4.20  1.985  1.986  1.987  1.989  1.993 15.46410 15.86358 -7.81055
 4.05 4.40  2.056  2.057  2.057  2.060  2.064 15.60371 16.08568 -7.58847
 4.05 4.60  2.117  2.117  2.118  2.120  2.123 15.73596 16.30640 -7.36776
 4.05 4.80  2.169  2.169  2.170  2.173  2.175 15.86253 16.52413 -7.15003
 4.05 5.00  2.217  2.217  2.218  2.220  2.223 15.98412 16.73973 -6.93442
 4.05 5.20  2.260  2.261  2.261  2.263  2.266 16.10153 16.95257 -6.72153
 4.05 5.40  2.303  2.303  2.303  2.306  2.308 16.21597 17.16343 -6.51064
 4.05 5.60  2.344  2.345  2.345  2.347  2.349 16.32755 17.37232 -6.30173
 4.05 5.80  2.386  2.387  2.387  2.389  2.391 16.43730 17.57970 -6.09436
 4.05 6.00  2.430  2.430  2.430  2.432  2.434 16.54543 17.78569 -5.88840
 4.05 6.25  2.486  2.486  2.487  2.489  2.490 16.67881 18.04153 -5.63263
 4.05 6.50  2.547  2.547  2.547  2.549  2.550 16.81104 18.29601 -5.37820
 4.05 6.75  2.611  2.611  2.612  2.613  2.614 16.94242 18.54938 -5.12483
 4.05 7.00  2.681  2.681  2.681  2.683  2.684 17.07335 18.80195 -4.87225
 4.05 7.25  2.756  2.756  2.756  2.758  2.759 17.20390 19.05389 -4.62027
 4.05 7.50  2.838  2.838  2.838  2.839  2.841 17.33445 19.30535 -4.36876
 4.05 7.75  2.926  2.926  2.926  2.927  2.929 17.46548 19.55649 -4.11758
 4.05 8.00  3.020  3.021  3.021  3.022  3.023 17.59682 19.80726 -3.86678
 4.10-2.00 -0.493 -0.493 -0.492 -0.491 -0.488  9.45894  9.45894-14.21510
 4.10-1.50 -0.491 -0.491 -0.490 -0.489 -0.486  9.95876  9.95904-13.71512
 4.10-1.00 -0.489 -0.489 -0.488 -0.487 -0.483 10.45864 10.45924-13.21481
 4.10-0.50 -0.485 -0.485 -0.484 -0.481 -0.477 10.95794 10.95985-12.71422
 4.10 0.00 -0.472 -0.472 -0.470 -0.468 -0.464 11.45637 11.46150-12.21254
 4.10 0.50 -0.438 -0.437 -0.435 -0.433 -0.427 11.95250 11.96520-11.70885
 4.10 1.00 -0.352 -0.352 -0.350 -0.346 -0.339 12.44685 12.47071-11.20336
 4.10 1.25 -0.279 -0.278 -0.275 -0.271 -0.263 12.69414 12.72322-10.95082
 4.10 1.50 -0.177 -0.176 -0.173 -0.169 -0.160 12.94161 12.97548-10.69853
 4.10 1.75 -0.045 -0.044 -0.042 -0.036 -0.026 13.18993 13.22701-10.44698
 4.10 2.00  0.115  0.117  0.119  0.126  0.136 13.43854 13.47828-10.19572
 4.10 2.25  0.306  0.307  0.310  0.316  0.328 13.68743 13.72932 -9.94476
 4.10 2.50  0.518  0.519  0.522  0.529  0.539 13.93631 13.98037 -9.69379
 4.10 2.75  0.746  0.747  0.750  0.757  0.767 14.18467 14.23184 -9.44230
 4.10 3.00  0.983  0.984  0.987  0.993  1.003 14.43233 14.48387 -9.19017
 4.10 3.20  1.173  1.174  1.177  1.182  1.191 14.62926 14.68658 -8.98748
 4.10 3.40  1.362  1.363  1.366  1.371  1.379 14.82466 14.89057 -8.78354
 4.10 3.60  1.548  1.549  1.550  1.554  1.562 15.01806 15.09628 -8.57786
 4.10 3.80  1.726  1.726  1.728  1.731  1.738 15.20772 15.30471 -8.36941
 4.10 4.00  1.894  1.894  1.896  1.899  1.904 15.39357 15.51574 -8.15833
 4.10 4.20  2.048  2.048  2.049  2.052  2.056 15.57276 15.73105 -7.94293
 4.10 4.40  2.185  2.186  2.187  2.189  2.193 15.74511 15.94892 -7.72502
 4.10 4.60  2.305  2.306  2.306  2.309  2.312 15.90946 16.17005 -7.50390
 4.10 4.80  2.407  2.408  2.408  2.410  2.412 16.06502 16.39252 -7.28147
 4.10 5.00  2.495  2.495  2.496  2.497  2.500 16.21272 16.61500 -7.05904
 4.10 5.20  2.567  2.568  2.568  2.570  2.572 16.35208 16.83627 -6.83779
 4.10 5.40  2.631  2.631  2.632  2.634  2.636 16.48517 17.05629 -6.61777
 4.10 5.60  2.688  2.688  2.688  2.690  2.691 16.61200 17.27430 -6.39976
 4.10 5.80  2.739  2.739  2.739  2.741  2.742 16.73431 17.48955 -6.18449
 4.10 6.00  2.788  2.788  2.788  2.789  2.791 16.85266 17.70260 -5.97143
 4.10 6.25  2.846  2.846  2.847  2.848  2.849 16.99623 17.96556 -5.70845
 4.10 6.50  2.905  2.906  2.906  2.907  2.908 17.13640 18.22583 -5.44819
 4.10 6.75  2.966  2.966  2.966  2.967  2.968 17.27387 18.48387 -5.19023
 4.10 7.00  3.029  3.029  3.030  3.030  3.032 17.40977 18.74013 -4.93405
 4.10 7.25  3.097  3.097  3.097  3.098  3.099 17.54429 18.99486 -4.67936
 4.10 7.50  3.170  3.170  3.170  3.171  3.172 17.67861 19.24846 -4.42574
 4.10 7.75  3.249  3.249  3.249  3.249  3.250 17.81286 19.50128 -4.17285
 4.10 8.00  3.334  3.334  3.334  3.334  3.335 17.94699 19.75320 -3.92082
 4.15-2.00 -0.494 -0.494 -0.493 -0.492 -0.490  9.40892  9.40892-14.26512
 4.15-1.50 -0.490 -0.490 -0.489 -0.487 -0.484  9.90886  9.90891-13.76523
 4.15-1.00 -0.486 -0.485 -0.484 -0.481 -0.477 10.40892 10.40892-13.26512
 4.15-0.50 -0.480 -0.479 -0.478 -0.475 -0.470 10.90875 10.90902-12.76498
 4.15 0.00 -0.471 -0.471 -0.469 -0.466 -0.459 11.40858 11.40926-12.26488
 4.15 0.50 -0.448 -0.447 -0.446 -0.442 -0.436 11.90816 11.90961-11.76447
 4.15 1.00 -0.391 -0.390 -0.388 -0.383 -0.376 12.40705 12.41078-11.26328
 4.15 1.25 -0.339 -0.337 -0.336 -0.331 -0.324 12.65584 12.66197-11.01211
 4.15 1.50 -0.267 -0.266 -0.263 -0.259 -0.251 12.90412 12.91366-10.76045
 4.15 1.75 -0.172 -0.171 -0.169 -0.163 -0.154 13.15159 13.16614-10.50796
 4.15 2.00 -0.054 -0.053 -0.050 -0.045 -0.035 13.39881 13.41880-10.25532
 4.15 2.25  0.091  0.091  0.094  0.100  0.110 13.64584 13.67157-10.00257
 4.15 2.50  0.261  0.262  0.264  0.270  0.280 13.89287 13.92433 -9.74982
 4.15 2.75  0.458  0.459  0.461  0.467  0.477 14.14069 14.17652 -9.49766
 4.15 3.00  0.676  0.677  0.679  0.685  0.694 14.38863 14.42846 -9.24573
 4.15 3.20  0.864  0.865  0.866  0.872  0.881 14.58705 14.62980 -9.04437
 4.15 3.40  1.058  1.059  1.061  1.066  1.074 14.78547 14.83114 -8.84300
 4.15 3.60  1.257  1.257  1.260  1.264  1.271 14.98365 15.03273 -8.64140
 4.15 3.80  1.456  1.457  1.459  1.463  1.470 15.18097 15.23511 -8.43901
 4.15 4.00  1.654  1.654  1.655  1.659  1.665 15.37749 15.43823 -8.23590
 4.15 4.20  1.847  1.848  1.850  1.852  1.858 15.57195 15.64300 -8.03114
 4.15 4.40  2.036  2.036  2.038  2.040  2.044 15.76382 15.84972 -7.82442
 4.15 4.60  2.216  2.216  2.217  2.219  2.222 15.95232 16.05911 -7.61502
 4.15 4.80  2.383  2.383  2.384  2.385  2.388 16.13530 16.27188 -7.40221
 4.15 5.00  2.537  2.537  2.537  2.539  2.541 16.31281 16.48756 -7.18649
 4.15 5.20  2.670  2.670  2.671  2.672  2.674 16.48190 16.70770 -6.96624
 4.15 5.40  2.788  2.788  2.788  2.789  2.790 16.64332 16.92864 -6.74527
 4.15 5.60  2.888  2.888  2.888  2.889  2.890 16.79625 17.15037 -6.52360
 4.15 5.80  2.974  2.974  2.974  2.974  2.975 16.94121 17.37227 -6.30176
 4.15 6.00  3.049  3.050  3.050  3.050  3.050 17.07918 17.59417 -6.07993
 4.15 6.25  3.130  3.130  3.130  3.130  3.131 17.24260 17.86721 -5.80687
 4.15 6.50  3.204  3.204  3.204  3.204  3.205 17.39863 18.13704 -5.53700
 4.15 6.75  3.272  3.272  3.272  3.273  3.273 17.54847 18.40304 -5.27103
 4.15 7.00  3.340  3.340  3.340  3.341  3.341 17.69417 18.66596 -5.00816
 4.15 7.25  3.408  3.408  3.408  3.409  3.409 17.83645 18.92600 -4.74820
 4.15 7.50  3.479  3.479  3.479  3.480  3.480 17.97708 19.18384 -4.49039
 4.15 7.75  3.554  3.554  3.554  3.554  3.555 18.11686 19.44005 -4.23414
 4.15 8.00  3.634  3.634  3.634  3.634  3.634 18.25551 19.69443 -3.97964
 4.20-2.00 -0.496 -0.496 -0.496 -0.495 -0.493  9.35889  9.35889-14.31515
 4.20-1.50 -0.493 -0.493 -0.492 -0.491 -0.490  9.85884  9.85890-13.81531
 4.20-1.00 -0.488 -0.488 -0.487 -0.486 -0.483 10.35889 10.35889-13.31516
 4.20-0.50 -0.480 -0.480 -0.479 -0.476 -0.473 10.85878 10.85896-12.81503
 4.20 0.00 -0.469 -0.468 -0.467 -0.464 -0.458 11.35889 11.35908-12.31507
 4.20 0.50 -0.453 -0.452 -0.449 -0.445 -0.437 11.85866 11.85908-11.81502
 4.20 1.00 -0.416 -0.415 -0.413 -0.408 -0.399 12.35851 12.35927-11.31480
 4.20 1.25 -0.382 -0.382 -0.380 -0.374 -0.364 12.60836 12.60943-11.06465
 4.20 1.50 -0.334 -0.333 -0.330 -0.325 -0.315 12.85812 12.85968-10.81446
 4.20 1.75 -0.266 -0.264 -0.262 -0.255 -0.245 13.10767 13.11012-10.56404
 4.20 2.00 -0.174 -0.173 -0.170 -0.164 -0.153 13.35698 13.36078-10.31336
 4.20 2.25 -0.056 -0.055 -0.053 -0.046 -0.036 13.60594 13.61183-10.06231
 4.20 2.50  0.084  0.085  0.087  0.094  0.104 13.85443 13.86332 -9.81079
 4.20 2.75  0.250  0.251  0.254  0.260  0.270 14.10206 14.11562 -9.55851
 4.20 3.00  0.437  0.438  0.440  0.445  0.454 14.34928 14.36829 -9.30583
 4.20 3.20  0.601  0.602  0.604  0.609  0.618 14.54674 14.57070 -9.10338
 4.20 3.40  0.776  0.777  0.778  0.783  0.792 14.74419 14.77310 -8.90092
 4.20 3.60  0.960  0.961  0.963  0.967  0.974 14.94179 14.97534 -8.69867
 4.20 3.80  1.154  1.154  1.156  1.160  1.166 15.13953 15.17742 -8.49662
 4.20 4.00  1.352  1.353  1.355  1.358  1.364 15.33726 15.37949 -8.29456
 4.20 4.20  1.557  1.557  1.558  1.561  1.567 15.53479 15.58171 -8.09236
 4.20 4.40  1.763  1.763  1.764  1.766  1.771 15.73202 15.78416 -7.88992
 4.20 4.60  1.966  1.967  1.967  1.970  1.973 15.92858 15.98722 -7.68688
 4.20 4.80  2.166  2.167  2.168  2.169  2.173 16.12336 16.19179 -7.48234
 4.20 5.00  2.363  2.363  2.364  2.364  2.367 16.31639 16.39777 -7.27638
 4.20 5.20  2.549  2.550  2.550  2.552  2.553 16.50553 16.60659 -7.06750
 4.20 5.40  2.726  2.726  2.727  2.728  2.729 16.69026 16.81812 -6.85591
 4.20 5.60  2.888  2.888  2.888  2.888  2.890 16.86952 17.03331 -6.64069
 4.20 5.80  3.032  3.032  3.032  3.032  3.033 17.04140 17.25152 -6.42249
 4.20 6.00  3.161  3.161  3.161  3.162  3.162 17.20629 17.47159 -6.20246
 4.20 6.25  3.294  3.294  3.294  3.295  3.295 17.39997 17.74906 -5.92504
 4.20 6.50  3.409  3.409  3.409  3.409  3.410 17.58241 18.02653 -5.64762
 4.20 6.75  3.505  3.505  3.505  3.505  3.506 17.75381 18.30122 -5.37291
 4.20 7.00  3.593  3.593  3.593  3.593  3.593 17.91709 18.57334 -5.10073
 4.20 7.25  3.673  3.673  3.673  3.673  3.674 18.07325 18.84136 -4.83267
 4.20 7.50  3.752  3.752  3.752  3.752  3.753 18.22505 19.10619 -4.56783
 4.20 7.75  3.830  3.830  3.831  3.831  3.831 18.37419 19.36820 -4.30584
 4.20 8.00  3.911  3.911  3.911  3.911  3.912 18.52009 19.62726 -4.04682
 4.25-2.00 -0.494 -0.494 -0.494 -0.493 -0.492  9.30899  9.30899-14.36522
 4.25-1.50 -0.493 -0.493 -0.492 -0.492 -0.491  9.80889  9.80889-13.86519
 4.25-1.00 -0.490 -0.490 -0.490 -0.489 -0.487 10.30878 10.30899-13.36512
 4.25-0.50 -0.484 -0.484 -0.484 -0.482 -0.480 10.80882 10.80895-12.86519
 4.25 0.00 -0.473 -0.473 -0.472 -0.470 -0.467 11.30878 11.30899-12.36512
 4.25 0.50 -0.456 -0.455 -0.455 -0.452 -0.447 11.80875 11.80902-11.86519
 4.25 1.00 -0.428 -0.428 -0.425 -0.421 -0.414 12.30878 12.30921-11.36492
 4.25 1.25 -0.405 -0.404 -0.403 -0.397 -0.388 12.55866 12.55921-11.11489
 4.25 1.50 -0.371 -0.370 -0.368 -0.362 -0.352 12.80855 12.80922-10.86487
 4.25 1.75 -0.324 -0.323 -0.321 -0.314 -0.303 13.05845 13.05929-10.61476
 4.25 2.00 -0.259 -0.258 -0.255 -0.248 -0.235 13.30835 13.30942-10.36462
 4.25 2.25 -0.173 -0.172 -0.169 -0.162 -0.149 13.55816 13.55961-10.11445
 4.25 2.50 -0.063 -0.062 -0.059 -0.051 -0.038 13.80787 13.80990 -9.86423
 4.25 2.75  0.073  0.074  0.077  0.085  0.097 14.05738 14.06038 -9.61376
 4.25 3.00  0.237  0.238  0.241  0.247  0.259 14.30664 14.31112 -9.36301
 4.25 3.20  0.388  0.389  0.391  0.397  0.408 14.50575 14.51200 -9.16209
 4.25 3.40  0.551  0.552  0.555  0.560  0.569 14.70453 14.71320 -8.96086
 4.25 3.60  0.727  0.727  0.729  0.734  0.742 14.90284 14.91486 -8.75920
 4.25 3.80  0.909  0.910  0.912  0.916  0.923 15.10068 15.11695 -8.55713
 4.25 4.00  1.098  1.098  1.099  1.103  1.109 15.29820 15.31931 -8.35477
 4.25 4.20  1.292  1.292  1.294  1.297  1.302 15.49547 15.52190 -8.15215
 4.25 4.40  1.491  1.491  1.492  1.494  1.499 15.69257 15.72461 -7.94942
 4.25 4.60  1.693  1.694  1.695  1.697  1.700 15.88958 15.92738 -7.74664
 4.25 4.80  1.900  1.901  1.901  1.903  1.906 16.08644 16.13024 -7.54380
 4.25 5.00  2.109  2.109  2.109  2.111  2.113 16.28308 16.33325 -7.34085
 4.25 5.20  2.318  2.318  2.318  2.319  2.321 16.47881 16.53699 -7.13712
 4.25 5.40  2.522  2.522  2.522  2.524  2.525 16.67332 16.74170 -6.93244
 4.25 5.60  2.722  2.722  2.722  2.723  2.724 16.86596 16.94795 -6.72620
 4.25 5.80  2.913  2.914  2.914  2.914  2.915 17.05494 17.15683 -6.51730
 4.25 6.00  3.096  3.096  3.096  3.096  3.097 17.24030 17.36810 -6.30601
 4.25 6.25  3.298  3.298  3.298  3.299  3.299 17.46316 17.63751 -6.03661
 4.25 6.50  3.479  3.479  3.479  3.479  3.479 17.67615 17.91041 -5.76372
 4.25 6.75  3.628  3.628  3.629  3.629  3.629 17.87631 18.18715 -5.48696
 4.25 7.00  3.760  3.760  3.760  3.760  3.760 18.06558 18.46390 -5.21021
 4.25 7.25  3.870  3.870  3.870  3.870  3.870 18.24382 18.73906 -4.93515
 4.25 7.50  3.971  3.971  3.971  3.972  3.972 18.41397 19.01241 -4.66194
 4.25 7.75  4.064  4.064  4.064  4.064  4.064 18.57816 19.28169 -4.39258
 4.25 8.00  4.155  4.155  4.155  4.155  4.155 18.73568 19.54765 -4.12639
 4.30-2.00 -0.490 -0.490 -0.489 -0.489 -0.487  9.26007  9.25768-14.41646
 4.30-1.50 -0.490 -0.490 -0.490 -0.489 -0.487  9.75929  9.75846-13.91542
 4.30-1.00 -0.489 -0.489 -0.488 -0.487 -0.485 10.25912 10.25888-13.41522
 4.30-0.50 -0.485 -0.485 -0.484 -0.483 -0.481 10.75884 10.75891-12.91507
 4.30 0.00 -0.476 -0.476 -0.475 -0.474 -0.471 11.25888 11.25888-12.41510
 4.30 0.50 -0.460 -0.460 -0.459 -0.457 -0.454 11.75876 11.75899-11.91507
 4.30 1.00 -0.435 -0.435 -0.434 -0.432 -0.427 12.25864 12.25912-11.41499
 4.30 1.25 -0.418 -0.417 -0.416 -0.413 -0.408 12.50861 12.50913-11.16503
 4.30 1.50 -0.394 -0.393 -0.391 -0.388 -0.382 12.75861 12.75914-10.91507
 4.30 1.75 -0.360 -0.359 -0.357 -0.353 -0.345 13.00862 13.00925-10.66497
 4.30 2.00 -0.313 -0.311 -0.310 -0.304 -0.294 13.25864 13.25935-10.41488
 4.30 2.25 -0.249 -0.247 -0.245 -0.238 -0.227 13.50851 13.50936-10.16479
 4.30 2.50 -0.164 -0.162 -0.160 -0.153 -0.140 13.75838 13.75937 -9.91471
 4.30 2.75 -0.056 -0.055 -0.052 -0.045 -0.031 14.00827 14.00957 -9.66454
 4.30 3.00  0.076  0.077  0.080  0.088  0.102 14.25816 14.25983 -9.41431
 4.30 3.20  0.203  0.204  0.207  0.214  0.228 14.45790 14.46004 -9.21410
 4.30 3.40  0.347  0.348  0.350  0.357  0.369 14.65754 14.66029 -9.01381
 4.30 3.60  0.508  0.508  0.511  0.517  0.528 14.85709 14.86063 -8.81343
 4.30 3.80  0.683  0.683  0.686  0.691  0.700 15.05651 15.06120 -8.61285
 4.30 4.00  0.868  0.869  0.870  0.875  0.882 15.25576 15.26198 -8.41207
 4.30 4.20  1.063  1.063  1.064  1.068  1.075 15.45455 15.46317 -8.21086
 4.30 4.40  1.261  1.262  1.263  1.266  1.271 15.65293 15.66474 -8.00927
 4.30 4.60  1.464  1.464  1.465  1.466  1.471 15.85085 15.86676 -7.80722
 4.30 4.80  1.668  1.668  1.668  1.671  1.674 16.04828 16.06922 -7.60473
 4.30 5.00  1.872  1.872  1.873  1.875  1.877 16.24527 16.27207 -7.40187
 4.30 5.20  2.081  2.081  2.081  2.082  2.085 16.44192 16.47519 -7.19881
 4.30 5.40  2.290  2.291  2.291  2.292  2.293 16.63805 16.67874 -6.99535
 4.30 5.60  2.502  2.502  2.502  2.503  2.504 16.83374 16.88267 -6.79150
 4.30 5.80  2.712  2.713  2.713  2.714  2.715 17.02861 17.08728 -6.58694
 4.30 6.00  2.920  2.920  2.920  2.920  2.921 17.22246 17.29270 -6.38153
 4.30 6.25  3.169  3.169  3.169  3.170  3.170 17.46094 17.55219 -6.12198
 4.30 6.50  3.406  3.406  3.406  3.406  3.406 17.69452 17.81491 -5.85918
 4.30 6.75  3.617  3.617  3.617  3.617  3.617 17.91976 18.08306 -5.59106
 4.30 7.00  3.808  3.808  3.808  3.808  3.808 18.13609 18.35468 -5.31948
 4.30 7.25  3.969  3.969  3.969  3.969  3.969 18.34049 18.63032 -5.04388
 4.30 7.50  4.113  4.113  4.113  4.113  4.113 18.53479 18.90596 -4.76828
 4.30 7.75  4.235  4.235  4.235  4.235  4.235 18.71980 19.18042 -4.49379
 4.30 8.00  4.350  4.350  4.350  4.350  4.350 18.89526 19.45408 -4.22004
 4.35-2.00 -0.464 -0.464 -0.464 -0.463 -0.462  9.22246  9.19507-14.47912
 4.35-1.50 -0.472 -0.472 -0.472 -0.471 -0.468  9.71767  9.69992-13.97429
 4.35-1.00 -0.479 -0.479 -0.478 -0.477 -0.474 10.21299 10.20466-13.46929
 4.35-0.50 -0.480 -0.480 -0.480 -0.478 -0.475 10.71037 10.70731-12.96658
 4.35 0.00 -0.476 -0.476 -0.475 -0.473 -0.470 11.20925 11.20844-12.46559
 4.35 0.50 -0.463 -0.462 -0.462 -0.460 -0.456 11.70893 11.70885-11.96537
 4.35 1.00 -0.438 -0.438 -0.438 -0.436 -0.431 12.20871 12.20898-11.46509
 4.35 1.25 -0.422 -0.421 -0.421 -0.418 -0.414 12.45868 12.45904-11.21503
 4.35 1.50 -0.401 -0.401 -0.400 -0.397 -0.393 12.70868 12.70910-10.96497
 4.35 1.75 -0.375 -0.374 -0.373 -0.371 -0.365 12.95869 12.95917-10.71490
 4.35 2.00 -0.340 -0.340 -0.339 -0.335 -0.330 13.20871 13.20925-10.46483
 4.35 2.25 -0.293 -0.293 -0.291 -0.287 -0.280 13.45861 13.45926-10.21490
 4.35 2.50 -0.230 -0.229 -0.228 -0.224 -0.215 13.70851 13.70927 -9.96497
 4.35 2.75 -0.147 -0.146 -0.144 -0.139 -0.129 13.95847 13.95939 -9.71478
 4.35 3.00 -0.039 -0.038 -0.036 -0.030 -0.020 14.20844 14.20951 -9.46458
 4.35 3.20  0.065  0.066  0.068  0.074  0.086 14.40826 14.40962 -9.26442
 4.35 3.40  0.188  0.189  0.192  0.198  0.210 14.60809 14.60972 -9.06425
 4.35 3.60  0.330  0.331  0.333  0.339  0.351 14.80792 14.80986 -8.86410
 4.35 3.80  0.488  0.489  0.491  0.497  0.508 15.00778 15.01006 -8.66396
 4.35 4.00  0.660  0.662  0.663  0.668  0.678 15.20763 15.21032 -8.46382
 4.35 4.20  0.846  0.847  0.848  0.853  0.862 15.40726 15.41065 -8.26344
 4.35 4.40  1.041  1.041  1.043  1.046  1.053 15.60671 15.61111 -8.06290
 4.35 4.60  1.242  1.243  1.244  1.247  1.252 15.80602 15.81176 -7.86223
 4.35 4.80  1.450  1.450  1.451  1.453  1.458 16.00508 16.01275 -7.66133
 4.35 5.00  1.659  1.659  1.659  1.661  1.664 16.20385 16.21405 -7.46017
 4.35 5.20  1.871  1.871  1.872  1.873  1.876 16.40204 16.41577 -7.25836
 4.35 5.40  2.084  2.084  2.084  2.085  2.087 16.59967 16.61797 -7.05603
 4.35 5.60  2.296  2.296  2.297  2.298  2.299 16.79672 16.82071 -6.85322
 4.35 5.80  2.510  2.510  2.510  2.511  2.512 16.99305 17.02410 -6.64985
 4.35 6.00  2.724  2.724  2.724  2.724  2.725 17.18865 17.22814 -6.44587
 4.35 6.25  2.992  2.992  2.992  2.992  2.993 17.43211 17.48405 -6.18998
 4.35 6.50  3.254  3.254  3.254  3.255  3.255 17.67367 17.74147 -5.93256
 4.35 6.75  3.505  3.505  3.505  3.506  3.506 17.91184 18.00143 -5.67261
 4.35 7.00  3.744  3.744  3.744  3.744  3.745 18.14551 18.26435 -5.40972
 4.35 7.25  3.958  3.958  3.958  3.958  3.959 18.37130 18.53197 -5.14209
 4.35 7.50  4.155  4.155  4.155  4.155  4.155 18.58894 18.80277 -4.87128
 4.35 7.75  4.322  4.322  4.322  4.322  4.322 18.79634 19.07603 -4.59804
 4.35 8.00  4.475  4.475  4.475  4.475  4.475 18.99419 19.35199 -4.32212
 4.40-2.00 -0.455 -0.455 -0.455 -0.454 -0.453  9.17696  9.14019-14.53387
 4.40-1.50 -0.455 -0.455 -0.455 -0.454 -0.452  9.67633  9.64068-14.03344
 4.40-1.00 -0.456 -0.456 -0.455 -0.454 -0.452 10.17522 10.14208-13.53195
 4.40-0.50 -0.458 -0.458 -0.457 -0.456 -0.453 10.67201 10.64532-13.02877
 4.40 0.00 -0.462 -0.461 -0.460 -0.459 -0.456 11.16732 11.15045-12.52360
 4.40 0.50 -0.459 -0.459 -0.458 -0.455 -0.451 11.66266 11.65504-12.01904
 4.40 1.00 -0.442 -0.442 -0.440 -0.438 -0.433 12.16017 12.15776-11.51641
 4.40 1.25 -0.426 -0.426 -0.425 -0.422 -0.417 12.40957 12.40826-11.26587
 4.40 1.50 -0.406 -0.405 -0.404 -0.401 -0.396 12.65916 12.65858-11.01552
 4.40 1.75 -0.380 -0.380 -0.378 -0.376 -0.370 12.90885 12.90881-10.76530
 4.40 2.00 -0.349 -0.348 -0.347 -0.345 -0.339 13.15866 13.15897-10.51513
 4.40 2.25 -0.310 -0.310 -0.309 -0.306 -0.300 13.40862 13.40907-10.26500
 4.40 2.50 -0.261 -0.260 -0.259 -0.256 -0.250 13.65858 13.65915-10.01489
 4.40 2.75 -0.196 -0.195 -0.194 -0.191 -0.184 13.90847 13.90921 -9.76479
 4.40 3.00 -0.112 -0.112 -0.111 -0.107 -0.100 14.15836 14.15927 -9.51470
 4.40 3.20 -0.028 -0.027 -0.025 -0.021 -0.013 14.35830 14.35936 -9.31463
 4.40 3.40  0.073  0.074  0.075  0.080  0.088 14.55823 14.55948 -9.11456
 4.40 3.60  0.195  0.195  0.197  0.201  0.210 14.75817 14.75960 -8.91445
 4.40 3.80  0.335  0.335  0.337  0.341  0.350 14.95812 14.95973 -8.71429
 4.40 4.00  0.492  0.492  0.494  0.498  0.507 15.15806 15.15987 -8.51414
 4.40 4.20  0.665  0.666  0.668  0.672  0.680 15.35785 15.36002 -8.31399
 4.40 4.40  0.851  0.852  0.853  0.857  0.864 15.55759 15.56020 -8.11384
 4.40 4.60  1.046  1.047  1.048  1.051  1.058 15.75730 15.76045 -7.91364
 4.40 4.80  1.249  1.249  1.250  1.253  1.258 15.95696 15.96085 -7.71331
 4.40 5.00  1.456  1.457  1.457  1.459  1.464 16.15655 16.16137 -7.51286
 4.40 5.20  1.669  1.669  1.670  1.672  1.675 16.35591 16.36199 -7.31223
 4.40 5.40  1.884  1.884  1.885  1.886  1.889 16.55501 16.56283 -7.11135
 4.40 5.60  2.102  2.102  2.102  2.103  2.105 16.75381 16.76398 -6.91016
 4.40 5.80  2.320  2.321  2.321  2.322  2.323 16.95209 16.96569 -6.70847
 4.40 6.00  2.539  2.539  2.539  2.540  2.541 17.14983 17.16791 -6.50626
 4.40 6.25  2.814  2.814  2.814  2.814  2.815 17.39582 17.42168 -6.25245
 4.40 6.50  3.088  3.088  3.088  3.088  3.089 17.64038 17.67669 -5.99740
 4.40 6.75  3.359  3.359  3.359  3.359  3.360 17.88329 17.93316 -5.74100
 4.40 7.00  3.623  3.623  3.623  3.623  3.623 18.12385 18.19145 -5.48280
 4.40 7.25  3.871  3.871  3.871  3.871  3.872 18.36099 18.45210 -5.22214
 4.40 7.50  4.108  4.108  4.108  4.108  4.108 18.59362 18.71559 -4.95861
 4.40 7.75  4.320  4.320  4.320  4.320  4.320 18.81862 18.98303 -4.69114
 4.40 8.00  4.517  4.517  4.517  4.517  4.517 19.03703 19.25406 -4.42010
 4.45-2.00 -0.454 -0.454 -0.454 -0.453 -0.452  9.12710  9.08991-14.58419
 4.45-1.50 -0.454 -0.454 -0.453 -0.453 -0.451  9.62696  9.58995-14.08413
 4.45-1.00 -0.453 -0.453 -0.452 -0.451 -0.448 10.12711 10.09026-13.58403
 4.45-0.50 -0.451 -0.450 -0.450 -0.449 -0.446 10.62665 10.59028-13.08376
 4.45 0.00 -0.448 -0.448 -0.447 -0.445 -0.442 11.12613 11.09096-12.58303
 4.45 0.50 -0.443 -0.442 -0.442 -0.440 -0.436 11.62418 11.59306-12.08103
 4.45 1.00 -0.432 -0.432 -0.431 -0.429 -0.424 12.12024 12.09726-11.57692
 4.45 1.25 -0.422 -0.421 -0.421 -0.417 -0.412 12.36773 12.34988-11.32426
 4.45 1.50 -0.405 -0.405 -0.404 -0.401 -0.395 12.61521 12.60249-11.07160
 4.45 1.75 -0.383 -0.383 -0.382 -0.378 -0.372 12.86306 12.85471-10.81943
 4.45 2.00 -0.354 -0.353 -0.352 -0.349 -0.342 13.11126 13.10653-10.56767
 4.45 2.25 -0.316 -0.316 -0.315 -0.311 -0.305 13.36018 13.35754-10.31659
 4.45 2.50 -0.271 -0.271 -0.269 -0.266 -0.259 13.60949 13.60821-10.06586
 4.45 2.75 -0.215 -0.214 -0.214 -0.210 -0.203 13.85917 13.85860 -9.81542
 4.45 3.00 -0.146 -0.146 -0.145 -0.141 -0.134 14.10890 14.10890 -9.56511
 4.45 3.20 -0.077 -0.077 -0.075 -0.071 -0.064 14.30869 14.30912 -9.36495
 4.45 3.40  0.006  0.006  0.008  0.011  0.018 14.50850 14.50931 -9.16481
 4.45 3.60  0.106  0.107  0.108  0.112  0.119 14.70838 14.70942 -8.96469
 4.45 3.80  0.227  0.227  0.228  0.232  0.239 14.90830 14.90950 -8.76458
 4.45 4.00  0.365  0.365  0.366  0.370  0.376 15.10823 15.10958 -8.56447
 4.45 4.20  0.523  0.524  0.524  0.528  0.534 15.30807 15.30974 -8.36434
 4.45 4.40  0.696  0.697  0.698  0.700  0.707 15.50788 15.50992 -8.16418
 4.45 4.60  0.882  0.882  0.883  0.886  0.891 15.70768 15.71012 -7.96399
 4.45 4.80  1.078  1.079  1.080  1.082  1.087 15.90746 15.91034 -7.76377
 4.45 5.00  1.281  1.281  1.282  1.284  1.289 16.10721 16.11059 -7.56352
 4.45 5.20  1.491  1.491  1.492  1.493  1.497 16.30693 16.31087 -7.36324
 4.45 5.40  1.704  1.704  1.704  1.706  1.708 16.50658 16.51121 -7.16289
 4.45 5.60  1.920  1.920  1.921  1.922  1.924 16.70612 16.71166 -6.96240
 4.45 5.80  2.139  2.139  2.139  2.140  2.142 16.90543 16.91235 -6.76166
 4.45 6.00  2.360  2.360  2.360  2.361  2.362 17.10449 17.11328 -6.56067
 4.45 6.25  2.639  2.639  2.639  2.639  2.640 17.35271 17.36501 -6.30897
 4.45 6.50  2.919  2.919  2.919  2.919  2.920 17.60010 17.61753 -6.05656
 4.45 6.75  3.201  3.201  3.201  3.201  3.202 17.84615 17.87129 -5.80287
 4.45 7.00  3.480  3.480  3.480  3.480  3.481 18.09061 18.12646 -5.54775
 4.45 7.25  3.753  3.753  3.753  3.753  3.753 18.33299 18.38336 -5.29081
 4.45 7.50  4.013  4.013  4.013  4.014  4.014 18.57264 18.64237 -5.03175
 4.45 7.75  4.256  4.256  4.256  4.256  4.256 18.80793 18.90426 -4.76988
 4.45 8.00  4.487  4.487  4.487  4.487  4.487 19.03941 19.16879 -4.50543
 4.50-2.00 -0.454 -0.454 -0.454 -0.453 -0.452  9.07700  9.03981-14.63414
 4.50-1.50 -0.453 -0.453 -0.453 -0.452 -0.449  9.57703  9.53995-14.13413
 4.50-1.00 -0.451 -0.451 -0.451 -0.449 -0.448 10.07700 10.03981-13.63414
 4.50-0.50 -0.449 -0.449 -0.449 -0.448 -0.445 10.57703 10.53995-13.13413
 4.50 0.00 -0.447 -0.447 -0.446 -0.445 -0.442 11.07700 11.04021-12.63395
 4.50 0.50 -0.442 -0.442 -0.441 -0.440 -0.437 11.57669 11.54020-12.13383
 4.50 1.00 -0.432 -0.432 -0.432 -0.429 -0.425 12.07628 12.04100-11.63320
 4.50 1.25 -0.423 -0.422 -0.421 -0.420 -0.415 12.32577 12.29151-11.38267
 4.50 1.50 -0.409 -0.408 -0.408 -0.405 -0.400 12.57496 12.54220-11.13189
 4.50 1.75 -0.387 -0.387 -0.386 -0.384 -0.378 12.82365 12.79373-10.88047
 4.50 2.00 -0.358 -0.358 -0.357 -0.354 -0.347 13.07188 13.04571-10.62856
 4.50 2.25 -0.320 -0.320 -0.318 -0.315 -0.309 13.31940 13.29822-10.37597
 4.50 2.50 -0.273 -0.273 -0.272 -0.268 -0.261 13.56691 13.55072-10.12338
 4.50 2.75 -0.218 -0.218 -0.217 -0.214 -0.207 13.81450 13.80312 -9.87094
 4.50 3.00 -0.155 -0.154 -0.152 -0.149 -0.141 14.06221 14.05538 -9.61870
 4.50 3.20 -0.094 -0.093 -0.092 -0.088 -0.081 14.26103 14.25662 -9.41747
 4.50 3.40 -0.022 -0.021 -0.020 -0.017 -0.010 14.46013 14.45760 -9.21650
 4.50 3.60  0.063  0.063  0.064  0.068  0.075 14.65955 14.65830 -9.01580
 4.50 3.80  0.165  0.165  0.166  0.169  0.176 14.85914 14.85882 -8.81529
 4.50 4.00  0.284  0.284  0.286  0.289  0.295 15.05881 15.05918 -8.61493
 4.50 4.20  0.424  0.425  0.426  0.428  0.434 15.25849 15.25938 -8.41472
 4.50 4.40  0.581  0.581  0.582  0.585  0.590 15.45823 15.45957 -8.21452
 4.50 4.60  0.754  0.755  0.755  0.757  0.762 15.65802 15.65980 -8.01430
 4.50 4.80  0.940  0.940  0.941  0.943  0.947 15.85784 15.86006 -7.81408
 4.50 5.00  1.135  1.135  1.135  1.137  1.141 16.05767 16.06032 -7.61386
 4.50 5.20  1.339  1.339  1.340  1.341  1.344 16.25744 16.26049 -7.41365
 4.50 5.40  1.548  1.548  1.549  1.550  1.552 16.45717 16.46066 -7.21344
 4.50 5.60  1.761  1.761  1.762  1.762  1.765 16.65688 16.66090 -7.01318
 4.50 5.80  1.978  1.978  1.978  1.979  1.981 16.85655 16.86131 -6.81277
 4.50 6.00  2.197  2.197  2.197  2.198  2.199 17.05614 17.06183 -6.61225
 4.50 6.25  2.474  2.474  2.474  2.475  2.476 17.30527 17.31262 -6.36146
 4.50 6.50  2.752  2.752  2.752  2.753  2.754 17.55400 17.56372 -6.11036
 4.50 6.75  3.037  3.037  3.037  3.037  3.038 17.80221 17.81554 -5.85855
 4.50 7.00  3.323  3.323  3.323  3.323  3.324 18.04961 18.06819 -5.60590
 4.50 7.25  3.608  3.608  3.608  3.608  3.608 18.29544 18.32203 -5.35206
 4.50 7.50  3.887  3.887  3.887  3.888  3.888 18.53945 18.57738 -5.09669
 4.50 7.75  4.155  4.155  4.155  4.155  4.155 18.78071 18.83507 -4.83893
 4.50 8.00  4.408  4.408  4.408  4.408  4.408 19.01953 19.09482 -4.57905
 4.55-2.00 -0.454 -0.454 -0.454 -0.453 -0.452  9.02694  8.98998-14.68403
 4.55-1.50 -0.454 -0.454 -0.453 -0.453 -0.451  9.52699  9.48996-14.18416
 4.55-1.00 -0.452 -0.452 -0.452 -0.451 -0.449 10.02694  9.98998-13.68403
 4.55-0.50 -0.450 -0.450 -0.449 -0.449 -0.446 10.52699 10.48996-13.18409
 4.55 0.00 -0.447 -0.447 -0.447 -0.445 -0.443 11.02694 10.99003-12.68403
 4.55 0.50 -0.443 -0.443 -0.443 -0.441 -0.438 11.52699 11.49010-12.18409
 4.55 1.00 -0.437 -0.437 -0.436 -0.434 -0.430 12.02694 11.99016-11.68403
 4.55 1.25 -0.431 -0.430 -0.430 -0.428 -0.423 12.27686 12.24020-11.43396
 4.55 1.50 -0.422 -0.421 -0.421 -0.418 -0.414 12.52673 12.49024-11.18383
 4.55 1.75 -0.407 -0.407 -0.406 -0.404 -0.399 12.77648 12.74046-10.93357
 4.55 2.00 -0.386 -0.385 -0.385 -0.382 -0.376 13.02612 12.99083-10.68319
 4.55 2.25 -0.354 -0.354 -0.353 -0.350 -0.344 13.27568 13.24133-10.43272
 4.55 2.50 -0.309 -0.308 -0.307 -0.304 -0.297 13.52505 13.49206-10.18204
 4.55 2.75 -0.249 -0.248 -0.247 -0.244 -0.236 13.77397 13.74337 -9.93078
 4.55 3.00 -0.173 -0.173 -0.172 -0.169 -0.162 14.02243 13.99515 -9.67902
 4.55 3.20 -0.105 -0.105 -0.104 -0.100 -0.093 14.22044 14.19710 -9.47698
 4.55 3.40 -0.030 -0.029 -0.028 -0.024 -0.017 14.41845 14.39909 -9.27495
 4.55 3.60  0.053  0.053  0.055  0.057  0.064 14.61649 14.60112 -9.07291
 4.55 3.80  0.146  0.147  0.147  0.151  0.157 14.81462 14.80315 -8.87092
 4.55 4.00  0.252  0.252  0.253  0.256  0.263 15.01284 15.00518 -8.66898
 4.55 4.20  0.374  0.374  0.374  0.378  0.384 15.21142 15.20658 -8.46760
 4.55 4.40  0.512  0.512  0.513  0.516  0.521 15.41024 15.40768 -8.26648
 4.55 4.60  0.667  0.667  0.668  0.670  0.675 15.60934 15.60845 -8.06565
 4.55 4.80  0.838  0.838  0.839  0.840  0.844 15.80867 15.80901 -7.86502
 4.55 5.00  1.020  1.020  1.021  1.022  1.026 16.00817 16.00945 -7.66454
 4.55 5.20  1.215  1.215  1.216  1.217  1.220 16.20785 16.20978 -7.46425
 4.55 5.40  1.416  1.416  1.417  1.417  1.420 16.40757 16.41011 -7.26395
 4.55 5.60  1.623  1.623  1.623  1.625  1.627 16.60734 16.61045 -7.06364
 4.55 5.80  1.836  1.836  1.836  1.837  1.838 16.80712 16.81079 -6.86331
 4.55 6.00  2.050  2.050  2.051  2.051  2.052 17.00690 17.01115 -6.66294
 4.55 6.25  2.324  2.324  2.324  2.325  2.326 17.25627 17.26166 -6.41242
 4.55 6.50  2.599  2.599  2.599  2.599  2.600 17.50542 17.51229 -6.16178
 4.55 6.75  2.877  2.877  2.877  2.877  2.878 17.75440 17.76321 -5.91086
 4.55 7.00  3.161  3.161  3.161  3.162  3.162 18.00303 18.01452 -5.65956
 4.55 7.25  3.447  3.447  3.447  3.447  3.448 18.25099 18.26653 -5.40756
 4.55 7.50  3.733  3.733  3.733  3.733  3.733 18.49804 18.51944 -5.15465
 4.55 7.75  4.013  4.013  4.013  4.013  4.013 18.74324 18.77393 -4.90011
 4.55 8.00  4.285  4.285  4.285  4.285  4.285 18.98691 19.02979 -4.64417
 4.60-2.00 -0.453 -0.453 -0.453 -0.452 -0.450  8.97708  8.93997-14.73424
 4.60-1.50 -0.453 -0.453 -0.453 -0.452 -0.450  9.47698  9.43996-14.23418
 4.60-1.00 -0.452 -0.452 -0.452 -0.451 -0.449  9.97708  9.93997-13.73400
 4.60-0.50 -0.451 -0.451 -0.451 -0.450 -0.447 10.47698 10.43996-13.23411
 4.60 0.00 -0.449 -0.449 -0.449 -0.448 -0.445 10.97704 10.94002-12.73400
 4.60 0.50 -0.446 -0.446 -0.446 -0.444 -0.442 11.47698 11.43996-12.23411
 4.60 1.00 -0.441 -0.441 -0.440 -0.439 -0.435 11.97699 11.94007-11.73400
 4.60 1.25 -0.437 -0.437 -0.436 -0.434 -0.430 12.22691 12.19009-11.48402
 4.60 1.50 -0.430 -0.430 -0.430 -0.428 -0.423 12.47683 12.44012-11.23403
 4.60 1.75 -0.422 -0.421 -0.420 -0.418 -0.414 12.72684 12.69016-10.98390
 4.60 2.00 -0.408 -0.408 -0.407 -0.405 -0.399 12.97685 12.94022-10.73377
 4.60 2.25 -0.388 -0.387 -0.386 -0.384 -0.378 13.22671 13.19031-10.48372
 4.60 2.50 -0.356 -0.356 -0.355 -0.352 -0.345 13.47654 13.44044-10.23366
 4.60 2.75 -0.311 -0.311 -0.310 -0.307 -0.299 13.72637 13.69065 -9.98344
 4.60 3.00 -0.249 -0.249 -0.248 -0.244 -0.237 13.97617 13.94097 -9.73306
 4.60 3.20 -0.185 -0.184 -0.183 -0.179 -0.171 14.17577 14.14137 -9.53266
 4.60 3.40 -0.106 -0.106 -0.105 -0.101 -0.093 14.37517 14.34196 -9.33208
 4.60 3.60 -0.014 -0.014 -0.013 -0.009 -0.001 14.57435 14.54283 -9.13121
 4.60 3.80  0.091  0.092  0.093  0.096  0.103 14.77323 14.74407 -8.92995
 4.60 4.00  0.209  0.210  0.211  0.213  0.220 14.97183 14.94562 -8.72839
 4.60 4.20  0.338  0.339  0.340  0.342  0.348 15.16985 15.14772 -8.52635
 4.60 4.40  0.476  0.477  0.478  0.480  0.485 15.36786 15.34982 -8.32432
 4.60 4.60  0.623  0.624  0.624  0.627  0.631 15.56588 15.55189 -8.12228
 4.60 4.80  0.780  0.780  0.781  0.783  0.787 15.76394 15.75389 -7.92027
 4.60 5.00  0.946  0.946  0.947  0.949  0.952 15.96204 15.95578 -7.71829
 4.60 5.20  1.125  1.125  1.125  1.126  1.129 16.16067 16.15711 -7.51693
 4.60 5.40  1.311  1.311  1.312  1.312  1.315 16.35955 16.35819 -7.31584
 4.60 5.60  1.506  1.506  1.506  1.507  1.509 16.55874 16.55902 -7.11500
 4.60 5.80  1.709  1.709  1.709  1.710  1.712 16.75811 16.75970 -6.91432
 4.60 6.00  1.915  1.915  1.916  1.916  1.918 16.95756 16.96028 -6.71377
 4.60 6.25  2.182  2.182  2.182  2.182  2.183 17.20696 17.21089 -6.46323
 4.60 6.50  2.450  2.450  2.450  2.451  2.451 17.45637 17.46150 -6.21268
 4.60 6.75  2.718  2.718  2.718  2.718  2.719 17.70566 17.71219 -5.96197
 4.60 7.00  2.995  2.995  2.995  2.996  2.996 17.95482 17.96299 -5.71108
 4.60 7.25  3.275  3.275  3.275  3.276  3.276 18.20362 18.21411 -5.45994
 4.60 7.50  3.557  3.557  3.557  3.557  3.557 18.45194 18.46568 -5.20838
 4.60 7.75  3.837  3.837  3.837  3.837  3.837 18.69930 18.71824 -4.95582
 4.60 8.00  4.112  4.112  4.112  4.112  4.113 18.94586 18.97160 -4.70246
 4.65-2.00 -0.453 -0.452 -0.452 -0.451 -0.449  8.92706  8.88997-14.78410
 4.65-1.50 -0.452 -0.452 -0.451 -0.450 -0.448  9.42700  9.38987-14.28416
 4.65-1.00 -0.451 -0.451 -0.451 -0.450 -0.447  9.92706  9.88997-13.78410
 4.65-0.50 -0.450 -0.450 -0.450 -0.449 -0.446 10.42700 10.38988-13.28416
 4.65 0.00 -0.449 -0.449 -0.449 -0.448 -0.445 10.92706 10.89003-12.78410
 4.65 0.50 -0.448 -0.448 -0.447 -0.446 -0.443 11.42700 11.39005-12.28408
 4.65 1.00 -0.444 -0.444 -0.444 -0.443 -0.440 11.92701 11.89003-11.78410
 4.65 1.25 -0.442 -0.442 -0.441 -0.440 -0.437 12.17701 12.14003-11.53410
 4.65 1.50 -0.438 -0.438 -0.438 -0.436 -0.432 12.42700 12.39005-11.28408
 4.65 1.75 -0.433 -0.432 -0.432 -0.430 -0.426 12.67695 12.64010-11.03396
 4.65 2.00 -0.424 -0.424 -0.423 -0.421 -0.417 12.92691 12.89014-10.78383
 4.65 2.25 -0.411 -0.411 -0.410 -0.408 -0.403 13.17687 13.14019-10.53387
 4.65 2.50 -0.392 -0.391 -0.390 -0.388 -0.382 13.42684 13.39023-10.28391
 4.65 2.75 -0.361 -0.361 -0.360 -0.357 -0.350 13.67678 13.64029-10.03390
 4.65 3.00 -0.317 -0.317 -0.316 -0.313 -0.305 13.92670 13.89037 -9.78383
 4.65 3.20 -0.270 -0.269 -0.268 -0.264 -0.256 14.12659 14.09044 -9.58374
 4.65 3.40 -0.208 -0.208 -0.206 -0.203 -0.194 14.32644 14.29053 -9.38359
 4.65 3.60 -0.132 -0.132 -0.131 -0.127 -0.117 14.52626 14.49069 -9.18340
 4.65 3.80 -0.040 -0.039 -0.038 -0.034 -0.024 14.72605 14.69100 -8.98313
 4.65 4.00  0.068  0.069  0.070  0.074  0.084 14.92578 14.89143 -8.78278
 4.65 4.20  0.196  0.197  0.198  0.202  0.211 15.12526 15.09199 -8.58221
 4.65 4.40  0.341  0.341  0.343  0.346  0.354 15.32452 15.29276 -8.38141
 4.65 4.60  0.501  0.501  0.503  0.506  0.512 15.52348 15.49385 -8.18028
 4.65 4.80  0.673  0.673  0.674  0.676  0.682 15.72210 15.69532 -7.97879
 4.65 5.00  0.851  0.851  0.851  0.854  0.858 15.92044 15.89708 -7.77702
 4.65 5.20  1.033  1.033  1.034  1.036  1.039 16.11832 16.09929 -7.57484
 4.65 5.40  1.218  1.218  1.218  1.219  1.222 16.31620 16.30150 -7.37266
 4.65 5.60  1.404  1.404  1.404  1.405  1.408 16.51414 16.50363 -7.17052
 4.65 5.80  1.594  1.594  1.594  1.595  1.597 16.71228 16.70554 -6.96856
 4.65 6.00  1.788  1.788  1.788  1.789  1.790 16.91057 16.90725 -6.76675
 4.65 6.25  2.038  2.038  2.039  2.039  2.040 17.15898 17.15874 -6.51533
 4.65 6.50  2.295  2.295  2.295  2.296  2.296 17.40773 17.40993 -6.26416
 4.65 6.75  2.552  2.552  2.552  2.552  2.553 17.65687 17.66087 -6.01318
 4.65 7.00  2.814  2.814  2.814  2.814  2.815 17.90601 17.91180 -5.76221
 4.65 7.25  3.084  3.084  3.084  3.084  3.085 18.15500 18.16277 -5.51124
 4.65 7.50  3.355  3.355  3.355  3.355  3.356 18.40381 18.41380 -5.26027
 4.65 7.75  3.628  3.628  3.628  3.628  3.628 18.65220 18.66542 -5.00870
 4.65 8.00  3.898  3.898  3.898  3.898  3.898 18.90026 18.91745 -4.75671
 4.70-2.00 -0.452 -0.452 -0.452 -0.451 -0.448  8.87708  8.83998-14.83416
 4.70-1.50 -0.451 -0.451 -0.451 -0.450 -0.447  9.37712  9.33985-14.33414
 4.70-1.00 -0.450 -0.450 -0.450 -0.448 -0.446  9.87708  9.83998-13.83416
 4.70-0.50 -0.449 -0.449 -0.449 -0.448 -0.445 10.37694 10.34005-13.33414
 4.70 0.00 -0.448 -0.448 -0.448 -0.447 -0.443 10.87703 10.83998-12.83416
 4.70 0.50 -0.447 -0.447 -0.446 -0.445 -0.441 11.37694 11.34005-12.33414
 4.70 1.00 -0.445 -0.444 -0.444 -0.443 -0.439 11.87703 11.84004-11.83416
 4.70 1.25 -0.443 -0.443 -0.442 -0.441 -0.438 12.12698 12.09004-11.58411
 4.70 1.50 -0.441 -0.441 -0.440 -0.439 -0.436 12.37694 12.34005-11.33404
 4.70 1.75 -0.438 -0.438 -0.437 -0.436 -0.432 12.62696 12.59008-11.08396
 4.70 2.00 -0.433 -0.433 -0.433 -0.431 -0.427 12.87697 12.84011-10.83387
 4.70 2.25 -0.426 -0.425 -0.425 -0.424 -0.419 13.12696 13.09008-10.58391
 4.70 2.50 -0.414 -0.414 -0.413 -0.411 -0.407 13.37694 13.34005-10.33395
 4.70 2.75 -0.396 -0.396 -0.395 -0.393 -0.388 13.62690 13.59014-10.08391
 4.70 3.00 -0.368 -0.368 -0.367 -0.365 -0.359 13.87685 13.84023 -9.83387
 4.70 3.20 -0.336 -0.336 -0.335 -0.333 -0.326 14.07682 14.04024 -9.63383
 4.70 3.40 -0.294 -0.293 -0.292 -0.289 -0.282 14.27678 14.24024 -9.43379
 4.70 3.60 -0.237 -0.237 -0.236 -0.232 -0.223 14.47672 14.44031 -9.23374
 4.70 3.80 -0.166 -0.166 -0.165 -0.161 -0.151 14.67663 14.64045 -9.03366
 4.70 4.00 -0.079 -0.078 -0.076 -0.073 -0.062 14.87651 14.84061 -8.83357
 4.70 4.20  0.025  0.026  0.028  0.032  0.043 15.07635 15.04076 -8.63340
 4.70 4.40  0.149  0.149  0.151  0.155  0.166 15.27615 15.24094 -8.43316
 4.70 4.60  0.290  0.291  0.292  0.296  0.307 15.47589 15.44120 -8.23284
 4.70 4.80  0.448  0.448  0.450  0.454  0.464 15.67551 15.64164 -8.03239
 4.70 5.00  0.621  0.621  0.622  0.626  0.635 15.87500 15.84223 -7.83180
 4.70 5.20  0.807  0.808  0.809  0.811  0.819 16.07423 16.04305 -7.63099
 4.70 5.40  1.002  1.002  1.003  1.005  1.011 16.27317 16.24414 -7.42992
 4.70 5.60  1.203  1.203  1.204  1.206  1.210 16.47172 16.44570 -7.22843
 4.70 5.80  1.406  1.407  1.407  1.408  1.412 16.66993 16.64764 -7.02656
 4.70 6.00  1.609  1.609  1.609  1.611  1.613 16.86794 16.84973 -6.82449
 4.70 6.25  1.862  1.862  1.862  1.862  1.865 17.11521 17.10249 -6.57167
 4.70 6.50  2.113  2.113  2.113  2.114  2.115 17.36248 17.35526 -6.31885
 4.70 6.75  2.364  2.364  2.365  2.365  2.366 17.61028 17.60753 -6.06662
 4.70 7.00  2.602  2.603  2.603  2.603  2.604 17.85842 17.85944 -5.81474
 4.70 7.25  2.860  2.860  2.860  2.860  2.861 18.10703 18.11077 -5.56334
 4.70 7.50  3.120  3.120  3.120  3.120  3.121 18.35564 18.36211 -5.31194
 4.70 7.75  3.381  3.381  3.381  3.381  3.381 18.60423 18.61352 -5.06053
 4.70 8.00  3.642  3.642  3.642  3.642  3.642 18.85279 18.86498 -4.80911
 4.75-2.00 -0.452 -0.452 -0.452 -0.451 -0.448  8.82711  8.78993-14.88406
 4.75-1.50 -0.451 -0.451 -0.451 -0.450 -0.447  9.32695  9.29004-14.38416
 4.75-1.00 -0.451 -0.451 -0.450 -0.449 -0.446  9.82705  9.79000-13.88406
 4.75-0.50 -0.449 -0.449 -0.449 -0.447 -0.445 10.32695 10.29003-13.38416
 4.75 0.00 -0.448 -0.448 -0.447 -0.446 -0.443 10.82705 10.79000-12.88406
 4.75 0.50 -0.446 -0.446 -0.445 -0.444 -0.441 11.32695 11.29004-12.38416
 4.75 1.00 -0.443 -0.443 -0.443 -0.442 -0.438 11.82705 11.79000-11.88406
 4.75 1.25 -0.442 -0.442 -0.441 -0.440 -0.437 12.07700 12.04002-11.63405
 4.75 1.50 -0.440 -0.440 -0.440 -0.438 -0.435 12.32695 12.29004-11.38405
 4.75 1.75 -0.438 -0.438 -0.437 -0.436 -0.432 12.57697 12.54006-11.13405
 4.75 2.00 -0.435 -0.435 -0.434 -0.433 -0.429 12.82698 12.79007-10.88406
 4.75 2.25 -0.431 -0.431 -0.430 -0.428 -0.424 13.07697 13.04005-10.63402
 4.75 2.50 -0.424 -0.424 -0.423 -0.422 -0.417 13.32695 13.29003-10.38394
 4.75 2.75 -0.414 -0.414 -0.413 -0.411 -0.407 13.57690 13.54012-10.13383
 4.75 3.00 -0.397 -0.397 -0.397 -0.395 -0.390 13.82685 13.79022 -9.88372
 4.75 3.20 -0.379 -0.378 -0.378 -0.376 -0.370 14.02681 13.99023 -9.68377
 4.75 3.40 -0.352 -0.351 -0.351 -0.349 -0.343 14.22677 14.19025 -9.48382
 4.75 3.60 -0.315 -0.314 -0.314 -0.312 -0.305 14.42673 14.39028 -9.28383
 4.75 3.80 -0.266 -0.266 -0.265 -0.262 -0.255 14.62669 14.59035 -9.08379
 4.75 4.00 -0.203 -0.202 -0.201 -0.198 -0.190 14.82666 14.79043 -8.88373
 4.75 4.20 -0.123 -0.122 -0.121 -0.117 -0.108 15.02653 14.99053 -8.68366
 4.75 4.40 -0.025 -0.025 -0.024 -0.019 -0.010 15.22640 15.19065 -8.48357
 4.75 4.60  0.089  0.090  0.091  0.095  0.106 15.42630 15.39076 -8.28345
 4.75 4.80  0.222  0.223  0.224  0.229  0.240 15.62622 15.59087 -8.08328
 4.75 5.00  0.372  0.373  0.374  0.378  0.390 15.82614 15.79099 -7.88306
 4.75 5.20  0.536  0.537  0.538  0.543  0.554 16.02590 15.99123 -7.68280
 4.75 5.40  0.714  0.714  0.715  0.720  0.729 16.22554 16.19159 -7.48247
 4.75 5.60  0.902  0.903  0.903  0.907  0.915 16.42506 16.39209 -7.28201
 4.75 5.80  1.099  1.099  1.100  1.103  1.109 16.62440 16.59282 -7.08133
 4.75 6.00  1.303  1.303  1.304  1.306  1.311 16.82354 16.79379 -6.88041
 4.75 6.25  1.564  1.564  1.565  1.567  1.571 17.07187 17.04554 -6.62861
 4.75 6.50  1.831  1.831  1.831  1.832  1.835 17.31973 17.29776 -6.37634
 4.75 6.75  2.096  2.096  2.096  2.097  2.099 17.56699 17.55064 -6.12349
 4.75 7.00  2.345  2.345  2.345  2.346  2.348 17.81425 17.80353 -5.87063
 4.75 7.25  2.602  2.602  2.602  2.603  2.604 18.06157 18.05625 -5.61790
 4.75 7.50  2.858  2.858  2.858  2.858  2.859 18.30899 18.30878 -5.36532
 4.75 7.75  3.111  3.111  3.111  3.111  3.112 18.55692 18.56086 -5.11318
 4.75 8.00  3.364  3.364  3.364  3.364  3.364 18.80523 18.81258 -4.86138
 4.80-2.00 -0.452 -0.452 -0.452 -0.451 -0.448  8.77706  8.73997-14.93405
 4.80-1.50 -0.452 -0.452 -0.451 -0.450 -0.447  9.27715  9.24005-14.43415
 4.80-1.00 -0.451 -0.451 -0.451 -0.449 -0.446  9.77706  9.73997-13.93405
 4.80-0.50 -0.450 -0.450 -0.449 -0.448 -0.445 10.27692 10.24005-13.43415
 4.80 0.00 -0.448 -0.448 -0.448 -0.447 -0.444 10.77706 10.73997-12.93405
 4.80 0.50 -0.447 -0.447 -0.446 -0.445 -0.442 11.27692 11.24005-12.43415
 4.80 1.00 -0.444 -0.444 -0.444 -0.442 -0.439 11.77706 11.74005-11.93405
 4.80 1.25 -0.443 -0.442 -0.442 -0.441 -0.438 12.02699 11.99005-11.68404
 4.80 1.50 -0.441 -0.441 -0.440 -0.439 -0.435 12.27692 12.24005-11.43403
 4.80 1.75 -0.438 -0.438 -0.438 -0.437 -0.432 12.52696 12.49005-11.18404
 4.80 2.00 -0.435 -0.435 -0.435 -0.433 -0.429 12.77699 12.74005-10.93405
 4.80 2.25 -0.431 -0.431 -0.431 -0.429 -0.424 13.02696 12.99005-10.68404
 4.80 2.50 -0.426 -0.426 -0.425 -0.424 -0.419 13.27692 13.24005-10.43403
 4.80 2.75 -0.419 -0.419 -0.418 -0.417 -0.412 13.52692 13.49013-10.18404
 4.80 3.00 -0.409 -0.409 -0.409 -0.406 -0.402 13.77692 13.74020 -9.93405
 4.80 3.20 -0.398 -0.397 -0.397 -0.395 -0.390 13.97683 13.94025 -9.73401
 4.80 3.40 -0.381 -0.381 -0.381 -0.379 -0.373 14.17674 14.14028 -9.53395
 4.80 3.60 -0.359 -0.359 -0.359 -0.356 -0.350 14.37669 14.34031 -9.33387
 4.80 3.80 -0.328 -0.328 -0.327 -0.325 -0.319 14.57670 14.54034 -9.13377
 4.80 4.00 -0.286 -0.286 -0.285 -0.283 -0.277 14.77670 14.74036 -8.93367
 4.80 4.20 -0.232 -0.231 -0.230 -0.228 -0.221 14.97661 14.94044 -8.73368
 4.80 4.40 -0.161 -0.161 -0.160 -0.157 -0.149 15.17651 15.14051 -8.53368
 4.80 4.60 -0.074 -0.074 -0.073 -0.069 -0.061 15.37645 15.34058 -8.33361
 4.80 4.80  0.029  0.030  0.031  0.035  0.044 15.57643 15.54063 -8.13345
 4.80 5.00  0.152  0.153  0.154  0.157  0.167 15.77641 15.74068 -7.93330
 4.80 5.20  0.292  0.293  0.294  0.298  0.308 15.97628 15.94079 -7.73322
 4.80 5.40  0.448  0.448  0.450  0.454  0.464 16.17611 16.14095 -7.53313
 4.80 5.60  0.617  0.618  0.619  0.623  0.632 16.37591 16.34116 -7.33296
 4.80 5.80  0.798  0.799  0.799  0.803  0.811 16.57568 16.54143 -7.13262
 4.80 6.00  0.988  0.988  0.989  0.992  0.999 16.77539 16.74178 -6.93219
 4.80 6.25  1.234  1.234  1.235  1.237  1.243 17.02480 16.99240 -6.68157
 4.80 6.50  1.487  1.487  1.487  1.490  1.494 17.27393 17.24329 -6.43074
 4.80 6.75  1.749  1.749  1.749  1.751  1.755 17.52256 17.49478 -6.17932
 4.80 7.00  2.015  2.015  2.015  2.016  2.019 17.77071 17.74679 -5.92738
 4.80 7.25  2.278  2.278  2.278  2.278  2.281 18.01808 17.99950 -5.67470
 4.80 7.50  2.545  2.545  2.545  2.546  2.547 18.26529 18.25237 -5.42182
 4.80 7.75  2.805  2.805  2.806  2.806  2.807 18.51245 18.50529 -5.16886
 4.80 8.00  3.061  3.062  3.062  3.062  3.062 18.75952 18.75831 -4.91578
 4.85-2.00 -0.452 -0.452 -0.452 -0.451 -0.448  8.72705  8.68993-14.98422
 4.85-1.50 -0.451 -0.451 -0.451 -0.450 -0.447  9.22712  9.19005-14.48413
 4.85-1.00 -0.451 -0.450 -0.450 -0.449 -0.447  9.72705  9.68993-13.98422
 4.85-0.50 -0.450 -0.449 -0.449 -0.448 -0.446 10.22712 10.19005-13.48413
 4.85 0.00 -0.449 -0.448 -0.448 -0.447 -0.445 10.72705 10.69002-12.98422
 4.85 0.50 -0.448 -0.448 -0.447 -0.446 -0.443 11.22711 11.19005-12.48413
 4.85 1.00 -0.446 -0.446 -0.446 -0.444 -0.441 11.72705 11.69002-11.98422
 4.85 1.25 -0.445 -0.445 -0.444 -0.443 -0.440 11.97696 11.94003-11.73417
 4.85 1.50 -0.443 -0.443 -0.442 -0.441 -0.438 12.22686 12.19005-11.48413
 4.85 1.75 -0.441 -0.441 -0.441 -0.439 -0.436 12.47691 12.44004-11.23417
 4.85 2.00 -0.439 -0.438 -0.438 -0.437 -0.433 12.72697 12.69002-10.98422
 4.85 2.25 -0.435 -0.435 -0.435 -0.433 -0.429 12.97692 12.94003-10.73411
 4.85 2.50 -0.430 -0.429 -0.429 -0.427 -0.423 13.22686 13.19005-10.48399
 4.85 2.75 -0.423 -0.423 -0.422 -0.420 -0.416 13.47687 13.44008-10.23389
 4.85 3.00 -0.414 -0.414 -0.413 -0.411 -0.407 13.72689 13.69011 -9.98380
 4.85 3.20 -0.405 -0.404 -0.404 -0.402 -0.397 13.92688 13.89009 -9.78383
 4.85 3.40 -0.393 -0.393 -0.392 -0.391 -0.385 14.12687 14.09006 -9.58385
 4.85 3.60 -0.378 -0.378 -0.378 -0.376 -0.370 14.32685 14.29010 -9.38385
 4.85 3.80 -0.358 -0.358 -0.358 -0.355 -0.349 14.52683 14.49019 -9.18383
 4.85 4.00 -0.332 -0.331 -0.330 -0.328 -0.322 14.72681 14.69028 -8.98380
 4.85 4.20 -0.295 -0.295 -0.294 -0.291 -0.285 14.92673 14.89030 -8.78378
 4.85 4.40 -0.247 -0.247 -0.246 -0.244 -0.237 15.12664 15.09032 -8.58375
 4.85 4.60 -0.186 -0.186 -0.185 -0.182 -0.175 15.32658 15.29036 -8.38366
 4.85 4.80 -0.109 -0.109 -0.108 -0.105 -0.097 15.52653 15.49045 -8.18352
 4.85 5.00 -0.017 -0.016 -0.016 -0.012 -0.004 15.72648 15.69055 -7.98339
 4.85 5.20  0.095  0.095  0.096  0.099  0.108 15.92643 15.89068 -7.78336
 4.85 5.40  0.224  0.225  0.226  0.229  0.238 16.12637 16.09082 -7.58334
 4.85 5.60  0.371  0.371  0.372  0.375  0.384 16.32627 16.29096 -7.38329
 4.85 5.80  0.533  0.534  0.534  0.537  0.545 16.52611 16.49111 -7.18316
 4.85 6.00  0.708  0.708  0.709  0.712  0.719 16.72591 16.69126 -6.98297
 4.85 6.25  0.939  0.940  0.940  0.943  0.950 16.97565 16.94157 -6.73261
 4.85 6.50  1.179  1.179  1.180  1.182  1.188 17.22531 17.19201 -6.48214
 4.85 6.75  1.426  1.427  1.427  1.429  1.434 17.47476 17.44258 -6.23160
 4.85 7.00  1.683  1.683  1.684  1.685  1.689 17.72395 17.69337 -5.98089
 4.85 7.25  1.939  1.939  1.939  1.940  1.943 17.97264 17.94467 -5.72955
 4.85 7.50  2.202  2.202  2.203  2.203  2.205 18.22089 18.19645 -5.47769
 4.85 7.75  2.465  2.465  2.466  2.466  2.468 18.46865 18.44885 -5.22525
 4.85 8.00  2.730  2.730  2.730  2.730  2.732 18.71592 18.70183 -4.97224
 4.90-2.00 -0.452 -0.452 -0.452 -0.451 -0.449  8.67706  8.63998-15.03414
 4.90-1.50 -0.452 -0.452 -0.451 -0.451 -0.448  9.17696  9.13988-14.53417
 4.90-1.00 -0.451 -0.451 -0.450 -0.449 -0.447  9.67706  9.63998-14.03414
 4.90-0.50 -0.450 -0.449 -0.449 -0.448 -0.446 10.17696 10.13988-13.53417
 4.90 0.00 -0.448 -0.448 -0.448 -0.447 -0.444 10.67706 10.63999-13.03409
 4.90 0.50 -0.447 -0.447 -0.447 -0.446 -0.443 11.17696 11.13988-12.53417
 4.90 1.00 -0.446 -0.446 -0.445 -0.444 -0.441 11.67706 11.63998-12.03409
 4.90 1.25 -0.445 -0.445 -0.444 -0.443 -0.440 11.92701 11.88993-11.78413
 4.90 1.50 -0.444 -0.444 -0.443 -0.442 -0.439 12.17696 12.13988-11.53417
 4.90 1.75 -0.443 -0.442 -0.442 -0.441 -0.438 12.42696 12.38998-11.28411
 4.90 2.00 -0.441 -0.441 -0.441 -0.440 -0.436 12.67697 12.64008-11.03405
 4.90 2.25 -0.439 -0.439 -0.438 -0.437 -0.433 12.92696 12.89016-10.78403
 4.90 2.50 -0.436 -0.435 -0.435 -0.434 -0.430 13.17696 13.14019-10.53402
 4.90 2.75 -0.430 -0.430 -0.429 -0.428 -0.424 13.42696 13.39014-10.28399
 4.90 3.00 -0.423 -0.422 -0.422 -0.421 -0.416 13.67697 13.64008-10.03395
 4.90 3.20 -0.415 -0.414 -0.414 -0.412 -0.408 13.87697 13.84013 -9.83392
 4.90 3.40 -0.404 -0.404 -0.403 -0.402 -0.397 14.07696 14.04017 -9.63389
 4.90 3.60 -0.391 -0.391 -0.390 -0.389 -0.384 14.27692 14.24021 -9.43386
 4.90 3.80 -0.375 -0.375 -0.374 -0.372 -0.367 14.47686 14.44025 -9.23384
 4.90 4.00 -0.354 -0.354 -0.353 -0.351 -0.346 14.67679 14.64028 -9.03381
 4.90 4.20 -0.328 -0.327 -0.327 -0.325 -0.319 14.87673 14.84025 -8.83378
 4.90 4.40 -0.294 -0.294 -0.293 -0.290 -0.284 15.07669 15.04021 -8.63375
 4.90 4.60 -0.250 -0.250 -0.249 -0.247 -0.240 15.27666 15.24024 -8.43370
 4.90 4.80 -0.195 -0.195 -0.194 -0.191 -0.185 15.47663 15.44036 -8.23364
 4.90 5.00 -0.126 -0.126 -0.125 -0.123 -0.116 15.67660 15.64048 -8.03358
 4.90 5.20 -0.041 -0.041 -0.040 -0.038 -0.030 15.87652 15.84062 -7.83352
 4.90 5.40  0.059  0.060  0.061  0.063  0.071 16.07643 16.04075 -7.63346
 4.90 5.60  0.180  0.180  0.180  0.183  0.191 16.27634 16.24085 -7.43338
 4.90 5.80  0.318  0.318  0.319  0.321  0.329 16.47624 16.44092 -7.23325
 4.90 6.00  0.472  0.472  0.473  0.475  0.482 16.67615 16.64098 -7.03311
 4.90 6.25  0.685  0.686  0.686  0.689  0.695 16.92599 16.89118 -6.78292
 4.90 6.50  0.915  0.915  0.916  0.918  0.923 17.17580 17.14145 -6.53269
 4.90 6.75  1.147  1.148  1.148  1.149  1.154 17.42548 17.39176 -6.28237
 4.90 7.00  1.396  1.396  1.397  1.398  1.402 17.67505 17.64217 -6.03194
 4.90 7.25  1.645  1.645  1.646  1.647  1.650 17.92451 17.89278 -5.78133
 4.90 7.50  1.901  1.901  1.901  1.902  1.904 18.17377 18.14364 -5.53047
 4.90 7.75  2.155  2.155  2.155  2.156  2.158 18.42250 18.39497 -5.27915
 4.90 8.00  2.415  2.415  2.415  2.415  2.416 18.67080 18.64670 -5.02743
 4.95-2.00 -0.453 -0.453 -0.452 -0.452 -0.450  8.62706  8.58995-15.08413
 4.95-1.50 -0.452 -0.452 -0.452 -0.452 -0.450  9.12710  9.08991-14.58419
 4.95-1.00 -0.452 -0.452 -0.452 -0.451 -0.449  9.62706  9.58995-14.08413
 4.95-0.50 -0.451 -0.451 -0.451 -0.450 -0.447 10.12711 10.08990-13.58419
 4.95 0.00 -0.449 -0.449 -0.449 -0.448 -0.446 10.62706 10.58995-13.08413
 4.95 0.50 -0.448 -0.448 -0.447 -0.446 -0.443 11.12710 11.08991-12.58419
 4.95 1.00 -0.446 -0.446 -0.445 -0.444 -0.442 11.62706 11.58995-12.08407
 4.95 1.25 -0.445 -0.444 -0.444 -0.443 -0.441 11.87708 11.83993-11.83413
 4.95 1.50 -0.444 -0.444 -0.443 -0.442 -0.439 12.12710 12.08991-11.58419
 4.95 1.75 -0.443 -0.443 -0.442 -0.441 -0.438 12.37708 12.33998-11.33413
 4.95 2.00 -0.441 -0.441 -0.441 -0.440 -0.436 12.62706 12.59006-11.08407
 4.95 2.25 -0.440 -0.440 -0.439 -0.438 -0.434 12.87708 12.83998-10.83405
 4.95 2.50 -0.438 -0.437 -0.437 -0.435 -0.432 13.12711 13.08991-10.58403
 4.95 2.75 -0.434 -0.434 -0.433 -0.432 -0.428 13.37704 13.33997-10.33400
 4.95 3.00 -0.429 -0.429 -0.429 -0.428 -0.423 13.62696 13.59006-10.08397
 4.95 3.20 -0.424 -0.424 -0.424 -0.422 -0.418 13.82689 13.79014 -9.88399
 4.95 3.40 -0.417 -0.416 -0.416 -0.414 -0.411 14.02682 13.99022 -9.68401
 4.95 3.60 -0.406 -0.406 -0.405 -0.404 -0.400 14.22680 14.19027 -9.48399
 4.95 3.80 -0.393 -0.392 -0.392 -0.391 -0.386 14.42682 14.39028 -9.28393
 4.95 4.00 -0.375 -0.375 -0.375 -0.374 -0.369 14.62685 14.59028 -9.08386
 4.95 4.20 -0.353 -0.353 -0.353 -0.351 -0.345 14.82683 14.79027 -8.88386
 4.95 4.40 -0.325 -0.325 -0.325 -0.323 -0.318 15.02680 14.99026 -8.68386
 4.95 4.60 -0.291 -0.290 -0.290 -0.288 -0.283 15.22676 15.19028 -8.48382
 4.95 4.80 -0.248 -0.248 -0.247 -0.245 -0.239 15.42671 15.39033 -8.28373
 4.95 5.00 -0.195 -0.195 -0.194 -0.192 -0.185 15.62665 15.59040 -8.08365
 4.95 5.20 -0.129 -0.129 -0.129 -0.126 -0.119 15.82658 15.79048 -7.88360
 4.95 5.40 -0.049 -0.049 -0.049 -0.047 -0.039 16.02650 15.99057 -7.68355
 4.95 5.60  0.045  0.045  0.046  0.049  0.055 16.22642 16.19066 -7.48347
 4.95 5.80  0.159  0.159  0.159  0.162  0.169 16.42633 16.39075 -7.28335
 4.95 6.00  0.289  0.290  0.291  0.293  0.299 16.62624 16.59084 -7.08323
 4.95 6.25  0.478  0.478  0.479  0.481  0.487 16.87602 16.84090 -6.83313
 4.95 6.50  0.690  0.690  0.690  0.692  0.697 17.12581 17.09096 -6.58303
 4.95 6.75  0.906  0.907  0.907  0.909  0.913 17.37566 17.34127 -6.33278
 4.95 7.00  1.147  1.147  1.147  1.148  1.152 17.62552 17.59162 -6.08244
 4.95 7.25  1.392  1.392  1.392  1.393  1.396 17.87524 17.84198 -5.83204
 4.95 7.50  1.642  1.642  1.642  1.643  1.646 18.12483 18.09237 -5.58153
 4.95 7.75  1.892  1.892  1.892  1.893  1.894 18.37415 18.34314 -5.33084
 4.95 8.00  2.145  2.145  2.145  2.146  2.147 18.62325 18.59417 -5.07998
 5.00-2.00 -0.452 -0.452 -0.452 -0.452 -0.450  8.57715  8.53995-15.13413
 5.00-1.50 -0.452 -0.452 -0.452 -0.452 -0.450  9.07700  9.03981-14.63414
 5.00-1.00 -0.452 -0.452 -0.452 -0.451 -0.450  9.57703  9.53995-14.13413
 5.00-0.50 -0.452 -0.452 -0.452 -0.451 -0.450 10.07700 10.03981-13.63414
 5.00 0.00 -0.451 -0.451 -0.451 -0.451 -0.449 10.57703 10.53995-13.13413
 5.00 0.50 -0.450 -0.450 -0.450 -0.449 -0.447 11.07700 11.03981-12.63414
 5.00 1.00 -0.448 -0.448 -0.448 -0.447 -0.444 11.57703 11.53995-12.13407
 5.00 1.25 -0.447 -0.447 -0.447 -0.446 -0.443 11.82702 11.78988-11.88410
 5.00 1.50 -0.445 -0.445 -0.445 -0.444 -0.441 12.07700 12.03981-11.63414
 5.00 1.75 -0.444 -0.443 -0.443 -0.442 -0.440 12.32702 12.28995-11.38410
 5.00 2.00 -0.442 -0.442 -0.442 -0.441 -0.437 12.57703 12.54008-11.13407
 5.00 2.25 -0.441 -0.441 -0.440 -0.439 -0.435 12.82703 12.79017-10.88410
 5.00 2.50 -0.438 -0.438 -0.437 -0.436 -0.432 13.07701 13.04021-10.63414
 5.00 2.75 -0.435 -0.435 -0.435 -0.434 -0.430 13.32696 13.29014-10.38407
 5.00 3.00 -0.432 -0.432 -0.431 -0.430 -0.426 13.57692 13.54008-10.13401
 5.00 3.20 -0.428 -0.428 -0.427 -0.426 -0.422 13.77695 13.74013 -9.93399
 5.00 3.40 -0.423 -0.423 -0.423 -0.421 -0.417 13.97699 13.94018 -9.73396
 5.00 3.60 -0.416 -0.416 -0.416 -0.415 -0.410 14.17700 14.14021 -9.53394
 5.00 3.80 -0.407 -0.407 -0.407 -0.405 -0.401 14.37697 14.34021 -9.33392
 5.00 4.00 -0.395 -0.395 -0.394 -0.392 -0.388 14.57692 14.54020 -9.13389
 5.00 4.20 -0.377 -0.377 -0.377 -0.375 -0.370 14.77681 14.74020 -8.93384
 5.00 4.40 -0.355 -0.355 -0.354 -0.353 -0.348 14.97670 14.94021 -8.73379
 5.00 4.60 -0.326 -0.326 -0.326 -0.324 -0.319 15.17665 15.14022 -8.53375
 5.00 4.80 -0.290 -0.290 -0.289 -0.288 -0.283 15.37667 15.34027 -8.33373
 5.00 5.00 -0.246 -0.246 -0.245 -0.244 -0.239 15.57669 15.54033 -8.13371
 5.00 5.20 -0.192 -0.192 -0.192 -0.189 -0.184 15.77668 15.74044 -7.93367
 5.00 5.40 -0.127 -0.127 -0.126 -0.124 -0.119 15.97666 15.94055 -7.73361
 5.00 5.60 -0.048 -0.048 -0.047 -0.046 -0.040 16.17659 16.14063 -7.53353
 5.00 5.80  0.045  0.045  0.045  0.048  0.053 16.37648 16.34067 -7.33345
 5.00 6.00  0.155  0.156  0.156  0.158  0.163 16.57634 16.54070 -7.13336
 5.00 6.25  0.319  0.319  0.320  0.322  0.327 16.82613 16.79083 -6.88328
 5.00 6.50  0.508  0.508  0.509  0.510  0.515 17.07591 17.04100 -6.63320
 5.00 6.75  0.716  0.716  0.717  0.718  0.722 17.32584 17.29123 -6.38298
 5.00 7.00  0.934  0.934  0.934  0.935  0.939 17.57577 17.54145 -6.13271
 5.00 7.25  1.172  1.172  1.173  1.173  1.176 17.82552 17.79162 -5.88242
 5.00 7.50  1.418  1.418  1.418  1.419  1.421 18.07518 18.04179 -5.63209
 5.00 7.75  1.664  1.664  1.664  1.665  1.667 18.32477 18.29226 -5.38165
 5.00 8.00  1.915  1.915  1.915  1.916  1.917 18.57426 18.54295 -5.13112
 5.05-2.00 -0.451 -0.451 -0.451 -0.451 -0.449  8.52711  8.48996-15.18416
 5.05-1.50 -0.451 -0.451 -0.451 -0.451 -0.449  9.02694  8.98994-14.68424
 5.05-1.00 -0.451 -0.451 -0.451 -0.451 -0.449  9.52711  9.48996-14.18416
 5.05-0.50 -0.451 -0.451 -0.451 -0.451 -0.449 10.02694  9.98994-13.68424
 5.05 0.00 -0.451 -0.451 -0.451 -0.450 -0.449 10.52711 10.48996-13.18409
 5.05 0.50 -0.451 -0.451 -0.451 -0.450 -0.448 11.02694 10.98994-12.68424
 5.05 1.00 -0.450 -0.450 -0.450 -0.449 -0.447 11.52711 11.48996-12.18409
 5.05 1.25 -0.449 -0.449 -0.449 -0.448 -0.446 11.77703 11.73997-11.93405
 5.05 1.50 -0.448 -0.448 -0.448 -0.447 -0.446 12.02694 11.98998-11.68403
 5.05 1.75 -0.447 -0.447 -0.447 -0.446 -0.444 12.27696 12.23997-11.43406
 5.05 2.00 -0.446 -0.446 -0.446 -0.445 -0.442 12.52699 12.48996-11.18409
 5.05 2.25 -0.444 -0.444 -0.443 -0.443 -0.440 12.77696 12.73996-10.93406
 5.05 2.50 -0.442 -0.442 -0.441 -0.441 -0.438 13.02694 12.98998-10.68403
 5.05 2.75 -0.440 -0.439 -0.439 -0.438 -0.435 13.27696 13.24004-10.43402
 5.05 3.00 -0.436 -0.436 -0.435 -0.434 -0.430 13.52699 13.49010-10.18402
 5.05 3.20 -0.433 -0.432 -0.432 -0.430 -0.427 13.72698 13.69009 -9.98403
 5.05 3.40 -0.428 -0.428 -0.428 -0.427 -0.423 13.92696 13.89008 -9.78403
 5.05 3.60 -0.424 -0.423 -0.423 -0.422 -0.417 14.12692 14.09011 -9.58400
 5.05 3.80 -0.417 -0.417 -0.416 -0.415 -0.410 14.32689 14.29017 -9.38395
 5.05 4.00 -0.408 -0.408 -0.407 -0.405 -0.401 14.52686 14.49024 -9.18389
 5.05 4.20 -0.396 -0.395 -0.395 -0.393 -0.389 14.72689 14.69023 -8.98386
 5.05 4.40 -0.379 -0.379 -0.378 -0.377 -0.372 14.92692 14.89021 -8.78383
 5.05 4.60 -0.357 -0.357 -0.356 -0.355 -0.350 15.12690 15.09024 -8.58381
 5.05 4.80 -0.328 -0.328 -0.328 -0.326 -0.322 15.32681 15.29031 -8.38378
 5.05 5.00 -0.292 -0.292 -0.291 -0.290 -0.285 15.52673 15.49038 -8.18376
 5.05 5.20 -0.246 -0.246 -0.246 -0.244 -0.239 15.72665 15.69040 -7.98371
 5.05 5.40 -0.191 -0.191 -0.190 -0.188 -0.184 15.92657 15.89042 -7.78364
 5.05 5.60 -0.124 -0.124 -0.123 -0.122 -0.117 16.12652 16.09048 -7.58358
 5.05 5.80 -0.043 -0.043 -0.043 -0.041 -0.037 16.32650 16.29057 -7.38351
 5.05 6.00  0.050  0.050  0.050  0.051  0.056 16.52647 16.49066 -7.18343
 5.05 6.25  0.192  0.192  0.193  0.194  0.198 16.77630 16.74077 -6.93332
 5.05 6.50  0.360  0.360  0.360  0.362  0.366 17.02612 16.99087 -6.68319
 5.05 6.75  0.553  0.554  0.554  0.555  0.559 17.27604 17.24104 -6.43306
 5.05 7.00  0.753  0.753  0.753  0.754  0.758 17.52595 17.49122 -6.18290
 5.05 7.25  0.981  0.981  0.981  0.983  0.985 17.77563 17.74141 -5.93264
 5.05 7.50  1.220  1.220  1.221  1.222  1.224 18.02530 17.99162 -5.68235
 5.05 7.75  1.464  1.464  1.464  1.464  1.466 18.27503 18.24195 -5.43204
 5.05 8.00  1.711  1.711  1.712  1.712  1.713 18.52479 18.49234 -5.18171
 5.10-2.00 -0.449 -0.449 -0.449 -0.448 -0.447  8.47712  8.43996-15.23411
 5.10-1.50 -0.449 -0.449 -0.449 -0.448 -0.447  8.97704  8.93992-14.73424
 5.10-1.00 -0.449 -0.449 -0.449 -0.448 -0.447  9.47712  9.43996-14.23411
 5.10-0.50 -0.449 -0.449 -0.449 -0.448 -0.447  9.97704  9.93992-13.73424
 5.10 0.00 -0.449 -0.449 -0.449 -0.448 -0.447 10.47712 10.43996-13.23411
 5.10 0.50 -0.449 -0.449 -0.449 -0.448 -0.447 10.97704 10.93992-12.73424
 5.10 1.00 -0.448 -0.448 -0.448 -0.448 -0.446 11.47712 11.43997-12.23411
 5.10 1.25 -0.448 -0.448 -0.448 -0.447 -0.446 11.72706 11.68997-11.98417
 5.10 1.50 -0.448 -0.448 -0.447 -0.447 -0.446 11.97699 11.93997-11.73424
 5.10 1.75 -0.447 -0.447 -0.447 -0.446 -0.445 12.22698 12.18997-11.48417
 5.10 2.00 -0.446 -0.446 -0.446 -0.446 -0.445 12.47698 12.43996-11.23411
 5.10 2.25 -0.446 -0.446 -0.446 -0.445 -0.443 12.72698 12.68998-10.98405
 5.10 2.50 -0.445 -0.445 -0.444 -0.444 -0.442 12.97699 12.94002-10.73400
 5.10 2.75 -0.443 -0.443 -0.442 -0.442 -0.440 13.22699 13.19007-10.48402
 5.10 3.00 -0.441 -0.441 -0.441 -0.440 -0.438 13.47698 13.44012-10.23403
 5.10 3.20 -0.439 -0.439 -0.439 -0.438 -0.435 13.67695 13.64010-10.03403
 5.10 3.40 -0.436 -0.436 -0.435 -0.434 -0.432 13.87692 13.84008 -9.83401
 5.10 3.60 -0.432 -0.432 -0.432 -0.431 -0.427 14.07692 14.04008 -9.63400
 5.10 3.80 -0.427 -0.426 -0.426 -0.425 -0.422 14.27695 14.24010 -9.43398
 5.10 4.00 -0.420 -0.420 -0.420 -0.419 -0.415 14.47698 14.44012 -9.23396
 5.10 4.20 -0.411 -0.411 -0.411 -0.410 -0.405 14.67691 14.64014 -9.03398
 5.10 4.40 -0.399 -0.399 -0.398 -0.397 -0.393 14.87684 14.84016 -8.83399
 5.10 4.60 -0.384 -0.383 -0.383 -0.381 -0.377 15.07681 15.04019 -8.63397
 5.10 4.80 -0.362 -0.362 -0.361 -0.360 -0.355 15.27682 15.24024 -8.43389
 5.10 5.00 -0.333 -0.333 -0.333 -0.331 -0.326 15.47683 15.44028 -8.23381
 5.10 5.20 -0.296 -0.296 -0.295 -0.294 -0.289 15.67675 15.64031 -8.03379
 5.10 5.40 -0.250 -0.249 -0.249 -0.248 -0.243 15.87667 15.84035 -7.83378
 5.10 5.60 -0.192 -0.192 -0.192 -0.190 -0.185 16.07661 16.04041 -7.63372
 5.10 5.80 -0.123 -0.123 -0.122 -0.121 -0.116 16.27658 16.24050 -7.43361
 5.10 6.00 -0.041 -0.040 -0.040 -0.038 -0.034 16.47654 16.44059 -7.23351
 5.10 6.25  0.084  0.084  0.084  0.085  0.089 16.72642 16.69068 -6.98341
 5.10 6.50  0.233  0.233  0.233  0.234  0.238 16.97631 16.94077 -6.73330
 5.10 6.75  0.409  0.409  0.409  0.411  0.413 17.22621 17.19091 -6.48316
 5.10 7.00  0.600  0.600  0.600  0.601  0.604 17.47611 17.44107 -6.23299
 5.10 7.25  0.814  0.814  0.814  0.815  0.817 17.72589 17.69123 -5.98281
 5.10 7.50  1.046  1.046  1.046  1.047  1.050 17.97566 17.94141 -5.73259
 5.10 7.75  1.284  1.284  1.285  1.285  1.287 18.22545 18.19168 -5.48233
 5.10 8.00  1.529  1.529  1.529  1.529  1.531 18.47524 18.44201 -5.23203
 5.15-2.00 -0.444 -0.444 -0.444 -0.443 -0.442  8.42716  8.38987-15.28416
 5.15-1.50 -0.444 -0.444 -0.444 -0.443 -0.442  8.92706  8.88992-14.78410
 5.15-1.00 -0.444 -0.444 -0.444 -0.443 -0.442  9.42716  9.38987-14.28416
 5.15-0.50 -0.444 -0.444 -0.444 -0.443 -0.442  9.92706  9.88992-13.78410
 5.15 0.00 -0.444 -0.444 -0.444 -0.443 -0.442 10.42700 10.39005-13.28416
 5.15 0.50 -0.444 -0.444 -0.444 -0.443 -0.442 10.92701 10.88992-12.78410
 5.15 1.00 -0.444 -0.444 -0.444 -0.443 -0.442 11.42700 11.39005-12.28408
 5.15 1.25 -0.444 -0.444 -0.444 -0.443 -0.442 11.67701 11.64001-12.03409
 5.15 1.50 -0.444 -0.444 -0.444 -0.443 -0.442 11.92701 11.88997-11.78410
 5.15 1.75 -0.444 -0.444 -0.443 -0.443 -0.442 12.17701 12.14001-11.53409
 5.15 2.00 -0.443 -0.443 -0.443 -0.443 -0.442 12.42700 12.39005-11.28408
 5.15 2.25 -0.443 -0.443 -0.443 -0.443 -0.441 12.67701 12.64001-11.03409
 5.15 2.50 -0.443 -0.443 -0.443 -0.442 -0.441 12.92701 12.88997-10.78410
 5.15 2.75 -0.442 -0.442 -0.442 -0.441 -0.440 13.17701 13.14001-10.53409
 5.15 3.00 -0.441 -0.441 -0.440 -0.440 -0.439 13.42700 13.39005-10.28408
 5.15 3.20 -0.439 -0.439 -0.439 -0.439 -0.438 13.62698 13.59004-10.08409
 5.15 3.40 -0.438 -0.438 -0.438 -0.438 -0.436 13.82697 13.79003 -9.88410
 5.15 3.60 -0.436 -0.436 -0.436 -0.436 -0.434 14.02697 13.99003 -9.68408
 5.15 3.80 -0.434 -0.434 -0.434 -0.433 -0.431 14.22698 14.19004 -9.48405
 5.15 4.00 -0.430 -0.430 -0.429 -0.429 -0.426 14.42700 14.39005 -9.28400
 5.15 4.20 -0.424 -0.424 -0.424 -0.423 -0.421 14.62694 14.59009 -9.08393
 5.15 4.40 -0.417 -0.417 -0.416 -0.416 -0.413 14.82689 14.79012 -8.88387
 5.15 4.60 -0.406 -0.406 -0.406 -0.405 -0.401 15.02685 14.99016 -8.68383
 5.15 4.80 -0.392 -0.391 -0.391 -0.390 -0.387 15.22684 15.19019 -8.48383
 5.15 5.00 -0.372 -0.372 -0.371 -0.370 -0.366 15.42684 15.39023 -8.28383
 5.15 5.20 -0.344 -0.344 -0.344 -0.342 -0.338 15.62679 15.59026 -8.08383
 5.15 5.40 -0.308 -0.308 -0.308 -0.306 -0.301 15.82674 15.79029 -7.88383
 5.15 5.60 -0.261 -0.261 -0.261 -0.259 -0.255 16.02666 15.99037 -7.68378
 5.15 5.80 -0.202 -0.202 -0.202 -0.200 -0.196 16.22659 16.19047 -7.48368
 5.15 6.00 -0.131 -0.131 -0.130 -0.128 -0.124 16.42651 16.39058 -7.28358
 5.15 6.25 -0.021 -0.021 -0.020 -0.019 -0.015 16.67645 16.64062 -7.03358
 5.15 6.50  0.112  0.112  0.113  0.114  0.118 16.92639 16.89065 -6.78357
 5.15 6.75  0.271  0.271  0.271  0.272  0.276 17.17631 17.14079 -6.53337
 5.15 7.00  0.453  0.453  0.453  0.454  0.458 17.42619 17.39094 -6.28316
 5.15 7.25  0.646  0.646  0.646  0.647  0.650 17.67602 17.64109 -6.03297
 5.15 7.50  0.868  0.868  0.868  0.869  0.871 17.92583 17.89126 -5.78278
 5.15 7.75  1.100  1.100  1.100  1.100  1.102 18.17561 18.14151 -5.53256
 5.15 8.00  1.340  1.340  1.340  1.340  1.342 18.42537 18.39182 -5.28233
 5.20-2.00 -0.436 -0.436 -0.436 -0.435 -0.434  8.37712  8.34005-15.33414
 5.20-1.50 -0.436 -0.436 -0.436 -0.435 -0.434  8.87703  8.83992-14.83416
 5.20-1.00 -0.436 -0.436 -0.436 -0.435 -0.434  9.37712  9.34005-14.33414
 5.20-0.50 -0.436 -0.436 -0.436 -0.436 -0.434  9.87703  9.83992-13.83416
 5.20 0.00 -0.436 -0.436 -0.436 -0.436 -0.434 10.37712 10.34005-13.33414
 5.20 0.50 -0.436 -0.436 -0.436 -0.436 -0.434 10.87703 10.83992-12.83416
 5.20 1.00 -0.436 -0.436 -0.436 -0.436 -0.434 11.37712 11.34005-12.33414
 5.20 1.25 -0.436 -0.436 -0.436 -0.436 -0.434 11.62708 11.59001-12.08415
 5.20 1.50 -0.436 -0.436 -0.436 -0.436 -0.434 11.87703 11.83998-11.83416
 5.20 1.75 -0.436 -0.436 -0.436 -0.435 -0.434 12.12708 12.09001-11.58410
 5.20 2.00 -0.436 -0.436 -0.436 -0.435 -0.434 12.37712 12.34005-11.33404
 5.20 2.25 -0.436 -0.436 -0.436 -0.435 -0.434 12.62708 12.59001-11.08410
 5.20 2.50 -0.436 -0.436 -0.436 -0.435 -0.434 12.87703 12.83998-10.83416
 5.20 2.75 -0.435 -0.435 -0.435 -0.435 -0.434 13.12698 13.09001-10.58410
 5.20 3.00 -0.435 -0.435 -0.435 -0.435 -0.434 13.37694 13.34005-10.33404
 5.20 3.20 -0.435 -0.435 -0.435 -0.434 -0.433 13.57695 13.54005-10.13409
 5.20 3.40 -0.434 -0.434 -0.434 -0.434 -0.433 13.77696 13.74004 -9.93414
 5.20 3.60 -0.433 -0.433 -0.433 -0.433 -0.432 13.97697 13.94004 -9.73412
 5.20 3.80 -0.432 -0.432 -0.432 -0.432 -0.430 14.17696 14.14005 -9.53404
 5.20 4.00 -0.430 -0.430 -0.430 -0.429 -0.428 14.37694 14.34005 -9.33395
 5.20 4.20 -0.427 -0.427 -0.427 -0.426 -0.425 14.57691 14.54006 -9.13390
 5.20 4.40 -0.423 -0.423 -0.423 -0.423 -0.420 14.77687 14.74009 -8.93388
 5.20 4.60 -0.417 -0.417 -0.417 -0.416 -0.414 14.97683 14.94014 -8.73386
 5.20 4.80 -0.409 -0.409 -0.409 -0.408 -0.406 15.17680 15.14019 -8.53386
 5.20 5.00 -0.397 -0.397 -0.397 -0.396 -0.394 15.37676 15.34025 -8.33386
 5.20 5.20 -0.380 -0.379 -0.379 -0.378 -0.376 15.57675 15.54027 -8.13386
 5.20 5.40 -0.356 -0.356 -0.355 -0.354 -0.351 15.77674 15.74028 -7.93386
 5.20 5.60 -0.322 -0.322 -0.322 -0.321 -0.318 15.97670 15.94033 -7.73383
 5.20 5.80 -0.278 -0.278 -0.278 -0.277 -0.273 16.17664 16.14038 -7.53375
 5.20 6.00 -0.222 -0.222 -0.221 -0.220 -0.216 16.37658 16.34044 -7.33367
 5.20 6.25 -0.130 -0.130 -0.129 -0.128 -0.124 16.62651 16.59050 -7.08362
 5.20 6.50 -0.014 -0.014 -0.013 -0.012 -0.008 16.87645 16.84055 -6.83357
 5.20 6.75  0.128  0.128  0.128  0.129  0.133 17.12633 17.09069 -6.58344
 5.20 7.00  0.294  0.295  0.295  0.296  0.300 17.37621 17.34084 -6.33330
 5.20 7.25  0.472  0.472  0.473  0.474  0.477 17.62610 17.59098 -6.08315
 5.20 7.50  0.682  0.682  0.682  0.683  0.686 17.87599 17.84111 -5.83298
 5.20 7.75  0.903  0.903  0.903  0.904  0.906 18.12584 18.09134 -5.58278
 5.20 8.00  1.134  1.134  1.134  1.135  1.136 18.37566 18.34163 -5.33255
 5.25-2.00 -0.424 -0.424 -0.424 -0.424 -0.422  8.32716  8.29004-15.38415
 5.25-1.50 -0.424 -0.424 -0.424 -0.424 -0.422  8.82705  8.78993-14.88406
 5.25-1.00 -0.424 -0.424 -0.424 -0.424 -0.422  9.32715  9.29004-14.38416
 5.25-0.50 -0.424 -0.424 -0.424 -0.424 -0.422  9.82705  9.78993-13.88406
 5.25 0.00 -0.424 -0.424 -0.424 -0.424 -0.422 10.32716 10.29003-13.38416
 5.25 0.50 -0.424 -0.424 -0.424 -0.424 -0.422 10.82705 10.78993-12.88406
 5.25 1.00 -0.424 -0.424 -0.424 -0.424 -0.422 11.32716 11.29004-12.38416
 5.25 1.25 -0.424 -0.424 -0.424 -0.424 -0.422 11.57710 11.53998-12.13411
 5.25 1.50 -0.424 -0.424 -0.424 -0.424 -0.422 11.82705 11.78993-11.88406
 5.25 1.75 -0.424 -0.424 -0.424 -0.424 -0.422 12.07710 12.03998-11.63405
 5.25 2.00 -0.424 -0.424 -0.424 -0.424 -0.422 12.32716 12.29004-11.38405
 5.25 2.25 -0.424 -0.424 -0.424 -0.424 -0.422 12.57707 12.54002-11.13405
 5.25 2.50 -0.424 -0.424 -0.424 -0.423 -0.422 12.82698 12.79000-10.88406
 5.25 2.75 -0.424 -0.424 -0.424 -0.423 -0.422 13.07695 13.04002-10.63405
 5.25 3.00 -0.424 -0.424 -0.424 -0.423 -0.422 13.32695 13.29003-10.38405
 5.25 3.20 -0.424 -0.423 -0.423 -0.423 -0.422 13.52696 13.49002-10.18405
 5.25 3.40 -0.423 -0.423 -0.423 -0.423 -0.422 13.72698 13.69001 -9.98406
 5.25 3.60 -0.423 -0.423 -0.423 -0.422 -0.421 13.92698 13.89001 -9.78406
 5.25 3.80 -0.422 -0.422 -0.422 -0.422 -0.421 14.12696 14.09002 -9.58405
 5.25 4.00 -0.421 -0.421 -0.421 -0.421 -0.420 14.32695 14.29004 -9.38405
 5.25 4.20 -0.420 -0.420 -0.420 -0.419 -0.418 14.52694 14.49005 -9.18405
 5.25 4.40 -0.418 -0.418 -0.418 -0.417 -0.416 14.72692 14.69007 -8.98406
 5.25 4.60 -0.414 -0.414 -0.414 -0.414 -0.413 14.92692 14.89011 -8.78404
 5.25 4.80 -0.410 -0.410 -0.410 -0.410 -0.408 15.12694 15.09018 -8.58400
 5.25 5.00 -0.404 -0.404 -0.404 -0.403 -0.402 15.32695 15.29026 -8.38395
 5.25 5.20 -0.393 -0.393 -0.393 -0.393 -0.391 15.52689 15.49024 -8.18386
 5.25 5.40 -0.379 -0.379 -0.379 -0.378 -0.377 15.72682 15.69022 -7.98377
 5.25 5.60 -0.359 -0.359 -0.359 -0.358 -0.356 15.92678 15.89027 -7.78373
 5.25 5.80 -0.330 -0.330 -0.330 -0.329 -0.327 16.12676 16.09037 -7.58373
 5.25 6.00 -0.292 -0.291 -0.291 -0.290 -0.288 16.32675 16.29048 -7.38373
 5.25 6.25 -0.225 -0.225 -0.224 -0.223 -0.221 16.57664 16.54049 -7.13373
 5.25 6.50 -0.134 -0.134 -0.134 -0.132 -0.130 16.82653 16.79050 -6.88372
 5.25 6.75 -0.017 -0.017 -0.017 -0.016 -0.012 17.07643 17.04059 -6.63352
 5.25 7.00  0.128  0.128  0.128  0.129  0.133 17.32634 17.29070 -6.38332
 5.25 7.25  0.295  0.295  0.296  0.297  0.300 17.57622 17.54083 -6.13319
 5.25 7.50  0.481  0.481  0.481  0.482  0.485 17.82607 17.79099 -5.88306
 5.25 7.75  0.688  0.688  0.688  0.689  0.691 18.07591 18.04117 -5.63289
 5.25 8.00  0.907  0.907  0.907  0.908  0.910 18.32572 18.29137 -5.38269
 5.30-2.00 -0.407 -0.407 -0.407 -0.407 -0.405  8.27715  8.24005-15.43415
 5.30-1.50 -0.407 -0.407 -0.407 -0.407 -0.405  8.77706  8.73989-14.93405
 5.30-1.00 -0.407 -0.407 -0.407 -0.407 -0.405  9.27715  9.24005-14.43415
 5.30-0.50 -0.407 -0.407 -0.407 -0.407 -0.405  9.77706  9.73989-13.93405
 5.30 0.00 -0.407 -0.407 -0.407 -0.407 -0.405 10.27715 10.24005-13.43415
 5.30 0.50 -0.407 -0.407 -0.407 -0.407 -0.405 10.77706 10.73997-12.93405
 5.30 1.00 -0.407 -0.407 -0.407 -0.407 -0.405 11.27715 11.24005-12.43415
 5.30 1.25 -0.407 -0.407 -0.407 -0.407 -0.405 11.52711 11.49001-12.18410
 5.30 1.50 -0.407 -0.407 -0.407 -0.407 -0.405 11.77706 11.73997-11.93405
 5.30 1.75 -0.407 -0.407 -0.407 -0.407 -0.405 12.02711 11.99001-11.68410
 5.30 2.00 -0.407 -0.407 -0.407 -0.407 -0.405 12.27715 12.24005-11.43415
 5.30 2.25 -0.407 -0.407 -0.407 -0.407 -0.405 12.52707 12.49001-11.18410
 5.30 2.50 -0.407 -0.407 -0.407 -0.407 -0.405 12.77699 12.73997-10.93405
 5.30 2.75 -0.407 -0.407 -0.407 -0.407 -0.405 13.02694 12.99001-10.68404
 5.30 3.00 -0.407 -0.407 -0.407 -0.406 -0.405 13.27692 13.24005-10.43403
 5.30 3.20 -0.407 -0.407 -0.407 -0.406 -0.405 13.47695 13.44002-10.23404
 5.30 3.40 -0.407 -0.407 -0.407 -0.406 -0.405 13.67698 13.63999-10.03405
 5.30 3.60 -0.407 -0.406 -0.406 -0.406 -0.405 13.87698 13.83998 -9.83405
 5.30 3.80 -0.406 -0.406 -0.406 -0.406 -0.404 14.07695 14.04002 -9.63404
 5.30 4.00 -0.406 -0.406 -0.406 -0.405 -0.404 14.27692 14.24005 -9.43403
 5.30 4.20 -0.405 -0.405 -0.405 -0.404 -0.403 14.47692 14.44005 -9.23404
 5.30 4.40 -0.404 -0.404 -0.403 -0.403 -0.402 14.67692 14.64005 -9.03405
 5.30 4.60 -0.402 -0.402 -0.402 -0.401 -0.400 14.87692 14.84005 -8.83402
 5.30 4.80 -0.399 -0.399 -0.399 -0.399 -0.398 15.07692 15.04005 -8.63397
 5.30 5.00 -0.396 -0.396 -0.396 -0.395 -0.394 15.27692 15.24005 -8.43392
 5.30 5.20 -0.390 -0.390 -0.390 -0.389 -0.388 15.47686 15.44011 -8.23397
 5.30 5.40 -0.382 -0.382 -0.382 -0.381 -0.380 15.67680 15.64017 -8.03402
 5.30 5.60 -0.369 -0.369 -0.369 -0.369 -0.368 15.87676 15.84022 -7.83400
 5.30 5.80 -0.352 -0.352 -0.352 -0.351 -0.350 16.07673 16.04026 -7.63390
 5.30 6.00 -0.328 -0.328 -0.327 -0.327 -0.325 16.27669 16.24030 -7.43380
 5.30 6.25 -0.283 -0.283 -0.283 -0.283 -0.281 16.52662 16.49037 -7.18374
 5.30 6.50 -0.220 -0.220 -0.220 -0.219 -0.217 16.77656 16.74044 -6.93368
 5.30 6.75 -0.133 -0.133 -0.132 -0.132 -0.129 17.02651 16.99050 -6.68356
 5.30 7.00 -0.019 -0.019 -0.019 -0.018 -0.016 17.27646 17.24055 -6.43345
 5.30 7.25  0.120  0.120  0.120  0.121  0.124 17.52633 17.49067 -6.18337
 5.30 7.50  0.278  0.278  0.279  0.279  0.281 17.77619 17.74084 -5.93330
 5.30 7.75  0.465  0.465  0.465  0.466  0.468 18.02609 17.99105 -5.68312
 5.30 8.00  0.667  0.667  0.667  0.668  0.670 18.27600 18.24130 -5.43286
