
 ROSSELAND MASS ABSORPTION COEFFICENTS
 logT logP  0km/s  1km/s  2km/s  4km/s  8km/s  log Ne   log Na  log rho IPloCM-1
 3.32-2.00 -5.231 -5.219 -5.201 -5.171 -5.137  5.20737 10.54008-13.12755
 3.32-1.50 -5.261 -5.248 -5.229 -5.198 -5.161  5.63084 11.04100-12.62672
 3.32-1.00 -5.303 -5.290 -5.268 -5.236 -5.200  6.03822 11.54382-12.12378
 3.32-0.50 -5.345 -5.330 -5.309 -5.277 -5.240  6.44279 12.05192-11.61547
 3.32 0.00 -5.370 -5.356 -5.334 -5.302 -5.264  6.86338 12.57345-11.09415
 3.32 0.50 -5.371 -5.356 -5.335 -5.302 -5.266  7.30492 13.11461-10.55300
 3.32 1.00 -5.361 -5.345 -5.324 -5.292 -5.254  7.73231 13.66811 -9.99957
 3.32 1.25 -5.352 -5.337 -5.317 -5.285 -5.247  7.92804 13.94310 -9.72452
 3.32 1.50 -5.344 -5.329 -5.308 -5.276 -5.240  8.11327 14.21617 -9.45136
 3.32 1.75 -5.332 -5.317 -5.297 -5.266 -5.231  8.28750 14.48512 -9.18247
 3.32 2.00 -5.316 -5.302 -5.282 -5.252 -5.218  8.45591 14.75082 -8.91686
 3.32 2.25 -5.293 -5.280 -5.262 -5.234 -5.201  8.61887 15.01310 -8.65459
 3.32 2.50 -5.267 -5.253 -5.236 -5.210 -5.177  8.78183 15.27277 -8.39491
 3.32 2.75 -5.232 -5.220 -5.202 -5.177 -5.147  8.94502 15.53018 -8.13748
 3.32 3.00 -5.190 -5.178 -5.162 -5.139 -5.109  9.10857 15.78590 -7.88174
 3.32 3.20 -5.148 -5.137 -5.122 -5.101 -5.073  9.24163 15.98947 -7.67818
 3.32 3.40 -5.102 -5.092 -5.078 -5.057 -5.031  9.37469 16.19238 -7.47528
 3.32 3.60 -5.049 -5.040 -5.027 -5.008 -4.984  9.50737 16.39463 -7.27299
 3.32 3.80 -4.990 -4.982 -4.971 -4.953 -4.930  9.63872 16.59645 -7.07113
 3.32 4.00 -4.926 -4.919 -4.910 -4.893 -4.872  9.76879 16.79789 -6.86967
 3.32 4.20 -4.865 -4.858 -4.849 -4.833 -4.811  9.89484 16.99905 -6.66854
 3.32 4.40 -4.797 -4.792 -4.782 -4.766 -4.745 10.01779 17.19999 -6.46762
 3.32 4.60 -4.727 -4.721 -4.712 -4.696 -4.676 10.13721 17.40073 -6.26690
 3.32 4.80 -4.653 -4.646 -4.637 -4.622 -4.601 10.25331 17.60134 -6.06630
 3.32 5.00 -4.571 -4.564 -4.555 -4.540 -4.519 10.36661 17.80182 -5.86582
 3.32 5.20 -4.479 -4.474 -4.465 -4.451 -4.430 10.47735 18.00215 -5.66545
 3.32 5.40 -4.379 -4.373 -4.365 -4.351 -4.330 10.58618 18.20243 -5.46515
 3.32 5.60 -4.265 -4.260 -4.253 -4.238 -4.219 10.69318 18.40267 -5.26490
 3.32 5.80 -4.135 -4.130 -4.123 -4.111 -4.092 10.79888 18.60288 -5.06470
 3.32 6.00 -3.986 -3.982 -3.976 -3.964 -3.947 10.90342 18.80305 -4.86455
 3.32 6.25 -3.767 -3.764 -3.759 -3.748 -3.734 11.03281 19.05312 -4.61441
 3.32 6.50 -3.502 -3.498 -3.495 -3.486 -3.474 11.16107 19.30320 -4.36432
 3.32 6.75 -3.179 -3.177 -3.174 -3.168 -3.158 11.28837 19.55329 -4.11427
 3.32 7.00 -2.974 -2.972 -2.970 -2.964 -2.957 11.41497 19.80339 -3.86423
 3.32 7.25 -2.864 -2.863 -2.860 -2.855 -2.849 11.54113 20.05340 -3.61418
 3.32 7.50 -2.760 -2.758 -2.756 -2.751 -2.745 11.66671 20.30341 -3.36411
 3.32 7.75 -2.658 -2.657 -2.655 -2.651 -2.645 11.79161 20.55346 -3.11403
 3.32 8.00 -2.561 -2.559 -2.557 -2.553 -2.549 11.91587 20.80353 -2.86391
 3.34-2.00 -5.162 -5.153 -5.136 -5.109 -5.074  5.27370 10.51970-13.14795
 3.34-1.50 -5.176 -5.165 -5.146 -5.115 -5.078  5.71700 11.01995-12.64762
 3.34-1.00 -5.195 -5.181 -5.161 -5.128 -5.089  6.14706 11.52088-12.14679
 3.34-0.50 -5.220 -5.205 -5.182 -5.148 -5.107  6.55979 12.02366-11.64397
 3.34 0.00 -5.238 -5.222 -5.198 -5.163 -5.122  6.96511 12.53161-11.13596
 3.34 0.50 -5.229 -5.212 -5.189 -5.153 -5.112  7.37949 13.05231-10.61529
 3.34 1.00 -5.183 -5.166 -5.142 -5.106 -5.066  7.81471 13.59306-10.07453
 3.34 1.25 -5.150 -5.134 -5.110 -5.075 -5.033  8.03082 13.86975 -9.79791
 3.34 1.50 -5.117 -5.101 -5.078 -5.043 -5.003  8.24452 14.14644 -9.52129
 3.34 1.75 -5.085 -5.069 -5.046 -5.011 -4.972  8.44358 14.42159 -9.24611
 3.34 2.00 -5.054 -5.038 -5.016 -4.984 -4.945  8.63215 14.69496 -8.97265
 3.34 2.25 -5.023 -5.007 -4.986 -4.955 -4.918  8.80856 14.96409 -8.70354
 3.34 2.50 -4.993 -4.977 -4.957 -4.927 -4.892  8.97804 15.22994 -8.43771
 3.34 2.75 -4.958 -4.944 -4.924 -4.896 -4.862  9.14126 15.49238 -8.17526
 3.34 3.00 -4.920 -4.906 -4.887 -4.861 -4.829  9.30320 15.75220 -7.91543
 3.34 3.20 -4.884 -4.871 -4.853 -4.828 -4.798  9.43208 15.95836 -7.70925
 3.34 3.40 -4.843 -4.832 -4.815 -4.792 -4.762  9.56097 16.16341 -7.50420
 3.34 3.60 -4.797 -4.786 -4.772 -4.750 -4.722  9.69061 16.36741 -7.30025
 3.34 3.80 -4.745 -4.735 -4.722 -4.702 -4.676  9.82100 16.57068 -7.09705
 3.34 4.00 -4.686 -4.679 -4.668 -4.649 -4.625  9.95139 16.77328 -6.89449
 3.34 4.20 -4.632 -4.625 -4.615 -4.597 -4.573 10.08091 16.97528 -6.69240
 3.34 4.40 -4.575 -4.568 -4.557 -4.540 -4.517 10.20939 17.17692 -6.49069
 3.34 4.60 -4.516 -4.509 -4.499 -4.483 -4.460 10.33578 17.37825 -6.28935
 3.34 4.80 -4.457 -4.450 -4.441 -4.424 -4.401 10.45882 17.57936 -6.08826
 3.34 5.00 -4.395 -4.389 -4.379 -4.364 -4.340 10.57910 17.78025 -5.88739
 3.34 5.20 -4.333 -4.327 -4.318 -4.302 -4.280 10.69594 17.98094 -5.68673
 3.34 5.40 -4.268 -4.263 -4.254 -4.239 -4.217 10.81016 18.18149 -5.48618
 3.34 5.60 -4.203 -4.197 -4.189 -4.174 -4.152 10.92175 18.38191 -5.28573
 3.34 5.80 -4.135 -4.130 -4.122 -4.108 -4.085 11.03127 18.58223 -5.08535
 3.34 6.00 -4.066 -4.062 -4.054 -4.040 -4.019 11.13893 18.78247 -4.88506
 3.34 6.25 -3.979 -3.974 -3.967 -3.954 -3.934 11.27131 19.03267 -4.63485
 3.34 6.50 -3.890 -3.885 -3.878 -3.866 -3.847 11.40192 19.28285 -4.38468
 3.34 6.75 -3.800 -3.796 -3.789 -3.777 -3.760 11.53120 19.53303 -4.13452
 3.34 7.00 -3.710 -3.706 -3.700 -3.688 -3.671 11.65935 19.78319 -3.88439
 3.34 7.25 -3.620 -3.617 -3.610 -3.600 -3.584 11.78655 20.03325 -3.63438
 3.34 7.50 -3.530 -3.527 -3.521 -3.510 -3.496 11.91291 20.28330 -3.38437
 3.34 7.75 -3.441 -3.437 -3.431 -3.422 -3.408 12.03856 20.53335 -3.13425
 3.34 8.00 -3.351 -3.347 -3.342 -3.333 -3.321 12.16346 20.78340 -2.88406
 3.36-2.00 -5.070 -5.061 -5.045 -5.019 -4.985  5.38739 10.49955-13.16800
 3.36-1.50 -5.106 -5.096 -5.078 -5.050 -5.014  5.79323 10.99965-12.66797
 3.36-1.00 -5.118 -5.106 -5.088 -5.056 -5.016  6.22583 11.49996-12.16762
 3.36-0.50 -5.122 -5.109 -5.087 -5.052 -5.010  6.65725 12.00087-11.66675
 3.36 0.00 -5.121 -5.104 -5.081 -5.043 -5.000  7.07408 12.50365-11.16387
 3.36 0.50 -5.097 -5.080 -5.054 -5.015 -4.970  7.48173 13.01199-10.65561
 3.36 1.00 -5.033 -5.014 -4.988 -4.949 -4.904  7.89382 13.53314-10.13448
 3.36 1.25 -4.984 -4.965 -4.939 -4.901 -4.857  8.10864 13.80169 -9.86588
 3.36 1.50 -4.927 -4.909 -4.883 -4.845 -4.801  8.32346 14.07408 -9.59346
 3.36 1.75 -4.866 -4.848 -4.823 -4.786 -4.744  8.53809 14.35083 -9.31673
 3.36 2.00 -4.807 -4.789 -4.765 -4.729 -4.688  8.75236 14.62757 -9.04001
 3.36 2.25 -4.751 -4.734 -4.710 -4.675 -4.637  8.95258 14.90263 -8.76493
 3.36 2.50 -4.700 -4.684 -4.661 -4.628 -4.590  9.14270 15.17580 -8.49174
 3.36 2.75 -4.653 -4.636 -4.615 -4.584 -4.548  9.32046 15.44481 -8.22274
 3.36 3.00 -4.607 -4.592 -4.572 -4.543 -4.508  9.49066 15.71054 -7.95703
 3.36 3.20 -4.569 -4.556 -4.536 -4.509 -4.476  9.62154 15.92056 -7.74701
 3.36 3.40 -4.530 -4.517 -4.500 -4.474 -4.442  9.75096 16.12893 -7.53865
 3.36 3.60 -4.487 -4.476 -4.460 -4.436 -4.405  9.87886 16.33570 -7.33192
 3.36 3.80 -4.439 -4.430 -4.416 -4.394 -4.366 10.00636 16.54129 -7.12637
 3.36 4.00 -4.387 -4.380 -4.368 -4.349 -4.323 10.13386 16.74578 -6.92191
 3.36 4.20 -4.339 -4.332 -4.321 -4.302 -4.276 10.26189 16.94929 -6.71834
 3.36 4.40 -4.286 -4.279 -4.268 -4.250 -4.227 10.38992 17.15215 -6.51542
 3.36 4.60 -4.231 -4.224 -4.214 -4.198 -4.174 10.51764 17.35441 -6.31311
 3.36 4.80 -4.174 -4.168 -4.158 -4.142 -4.119 10.64431 17.55629 -6.11122
 3.36 5.00 -4.115 -4.109 -4.100 -4.084 -4.061 10.76997 17.75778 -5.90974
 3.36 5.20 -4.054 -4.049 -4.040 -4.024 -4.002 10.89246 17.95896 -5.70865
 3.36 5.40 -3.990 -3.985 -3.977 -3.962 -3.940 11.01245 18.15992 -5.50775
 3.36 5.60 -3.925 -3.920 -3.912 -3.898 -3.877 11.12966 18.36065 -5.30701
 3.36 5.80 -3.859 -3.853 -3.846 -3.832 -3.812 11.24414 18.56124 -5.10638
 3.36 6.00 -3.790 -3.786 -3.779 -3.765 -3.746 11.35622 18.76170 -4.90588
 3.36 6.25 -3.702 -3.699 -3.692 -3.680 -3.661 11.49313 19.01213 -4.65546
 3.36 6.50 -3.615 -3.610 -3.604 -3.593 -3.576 11.62737 19.26245 -4.40517
 3.36 6.75 -3.525 -3.522 -3.516 -3.505 -3.489 11.75938 19.51271 -4.15500
 3.36 7.00 -3.436 -3.432 -3.427 -3.417 -3.402 11.88964 19.76291 -3.90483
 3.36 7.25 -3.345 -3.343 -3.338 -3.328 -3.314 12.01847 20.01305 -3.65461
 3.36 7.50 -3.257 -3.253 -3.248 -3.240 -3.227 12.14613 20.26316 -3.40439
 3.36 7.75 -3.168 -3.165 -3.160 -3.152 -3.141 12.27288 20.51327 -3.15424
 3.36 8.00 -3.079 -3.076 -3.072 -3.065 -3.054 12.39863 20.76335 -2.90413
 3.38-2.00 -4.910 -4.902 -4.887 -4.863 -4.830  5.60086 10.47958-13.18802
 3.38-1.50 -4.990 -4.981 -4.965 -4.938 -4.902  5.94606 10.97955-12.68804
 3.38-1.00 -5.038 -5.027 -5.009 -4.978 -4.940  6.32490 11.47972-12.18789
 3.38-0.50 -5.049 -5.037 -5.016 -4.983 -4.941  6.73838 11.97996-11.68761
 3.38 0.00 -5.032 -5.018 -4.995 -4.958 -4.913  7.16495 12.48101-11.18662
 3.38 0.50 -4.988 -4.971 -4.946 -4.907 -4.859  7.58365 12.98394-10.68361
 3.38 1.00 -4.901 -4.883 -4.856 -4.814 -4.766  7.99357 13.49276-10.17477
 3.38 1.25 -4.839 -4.820 -4.793 -4.753 -4.705  8.19905 13.75184 -9.91563
 3.38 1.50 -4.766 -4.746 -4.719 -4.678 -4.632  8.40535 14.01494 -9.65248
 3.38 1.75 -4.683 -4.665 -4.638 -4.599 -4.553  8.61820 14.28429 -9.38320
 3.38 2.00 -4.597 -4.578 -4.552 -4.514 -4.470  8.83110 14.55727 -9.11031
 3.38 2.25 -4.510 -4.492 -4.467 -4.431 -4.389  9.04403 14.83410 -8.83352
 3.38 2.50 -4.429 -4.411 -4.388 -4.353 -4.313  9.25696 15.11093 -8.55674
 3.38 2.75 -4.354 -4.338 -4.316 -4.284 -4.246  9.45702 15.38576 -8.28187
 3.38 3.00 -4.288 -4.274 -4.253 -4.223 -4.187  9.64748 15.65849 -8.00908
 3.38 3.20 -4.239 -4.226 -4.207 -4.179 -4.144  9.79059 15.87358 -7.79402
 3.38 3.40 -4.193 -4.181 -4.164 -4.138 -4.105  9.92869 16.08658 -7.58105
 3.38 3.60 -4.148 -4.137 -4.122 -4.098 -4.067 10.06152 16.29736 -7.37023
 3.38 3.80 -4.102 -4.093 -4.080 -4.058 -4.029 10.19138 16.50628 -7.16124
 3.38 4.00 -4.055 -4.047 -4.036 -4.017 -3.990 10.31931 16.71358 -6.95390
 3.38 4.20 -4.012 -4.005 -3.995 -3.976 -3.951 10.44561 16.91947 -6.74809
 3.38 4.40 -3.966 -3.960 -3.950 -3.932 -3.908 10.57176 17.12432 -6.54330
 3.38 4.60 -3.918 -3.912 -3.904 -3.887 -3.864 10.69785 17.32814 -6.33943
 3.38 4.80 -3.870 -3.864 -3.855 -3.839 -3.816 10.82388 17.53127 -6.13622
 3.38 5.00 -3.817 -3.812 -3.803 -3.787 -3.765 10.94978 17.73376 -5.93368
 3.38 5.20 -3.760 -3.756 -3.748 -3.733 -3.711 11.07466 17.93576 -5.73181
 3.38 5.40 -3.701 -3.697 -3.690 -3.675 -3.655 11.19840 18.13738 -5.53031
 3.38 5.60 -3.640 -3.635 -3.628 -3.615 -3.595 11.32038 18.33861 -5.32914
 3.38 5.80 -3.575 -3.571 -3.565 -3.552 -3.533 11.43978 18.53958 -5.12818
 3.38 6.00 -3.509 -3.505 -3.499 -3.487 -3.468 11.55691 18.74036 -4.92738
 3.38 6.25 -3.424 -3.421 -3.414 -3.404 -3.386 11.69934 18.99118 -4.67652
 3.38 6.50 -3.337 -3.334 -3.329 -3.319 -3.302 11.83835 19.24179 -4.42585
 3.38 6.75 -3.249 -3.246 -3.241 -3.232 -3.216 11.97420 19.49221 -4.17548
 3.38 7.00 -3.161 -3.157 -3.154 -3.144 -3.131 12.10755 19.74249 -3.92518
 3.38 7.25 -3.072 -3.069 -3.065 -3.056 -3.044 12.23877 19.99264 -3.67491
 3.38 7.50 -2.983 -2.981 -2.977 -2.969 -2.958 12.36829 20.24279 -3.42470
 3.38 7.75 -2.895 -2.893 -2.890 -2.882 -2.872 12.49653 20.49298 -3.17454
 3.38 8.00 -2.809 -2.806 -2.803 -2.796 -2.787 12.62335 20.74320 -2.92445
 3.40-2.00 -4.716 -4.709 -4.695 -4.673 -4.643  5.84825 10.45954-13.20803
 3.40-1.50 -4.818 -4.809 -4.795 -4.769 -4.735  6.17609 10.95952-12.70819
 3.40-1.00 -4.901 -4.892 -4.875 -4.846 -4.809  6.50893 11.45954-12.20803
 3.40-0.50 -4.951 -4.940 -4.921 -4.889 -4.847  6.86564 11.95966-11.70797
 3.40 0.00 -4.952 -4.941 -4.919 -4.883 -4.838  7.25744 12.46000-11.20754
 3.40 0.50 -4.903 -4.889 -4.865 -4.826 -4.776  7.67284 12.96114-10.70642
 3.40 1.00 -4.797 -4.781 -4.755 -4.714 -4.663  8.08955 13.46449-10.20301
 3.40 1.25 -4.722 -4.705 -4.679 -4.637 -4.587  8.29517 13.71827 -9.94928
 3.40 1.50 -4.632 -4.613 -4.587 -4.545 -4.495  8.50079 13.97428 -9.69336
 3.40 1.75 -4.531 -4.512 -4.486 -4.445 -4.397  8.70687 14.23435 -9.43333
 3.40 2.00 -4.422 -4.403 -4.377 -4.337 -4.290  8.91366 14.49859 -9.16909
 3.40 2.25 -4.311 -4.293 -4.267 -4.230 -4.186  9.12526 14.76894 -8.89872
 3.40 2.50 -4.200 -4.184 -4.160 -4.125 -4.082  9.33686 15.04258 -8.62507
 3.40 2.75 -4.095 -4.081 -4.060 -4.027 -3.987  9.54806 15.31948 -8.34816
 3.40 3.00 -4.001 -3.988 -3.968 -3.938 -3.901  9.75853 15.59638 -8.07125
 3.40 3.20 -3.931 -3.920 -3.903 -3.875 -3.840  9.91813 15.81608 -7.85154
 3.40 3.40 -3.870 -3.859 -3.844 -3.818 -3.786 10.07181 16.03422 -7.63340
 3.40 3.60 -3.813 -3.804 -3.790 -3.767 -3.737 10.21838 16.25021 -7.41743
 3.40 3.80 -3.760 -3.753 -3.740 -3.720 -3.692 10.35849 16.46366 -7.20402
 3.40 4.00 -3.711 -3.704 -3.694 -3.676 -3.651 10.49360 16.67505 -6.99268
 3.40 4.20 -3.668 -3.662 -3.653 -3.636 -3.612 10.62391 16.88435 -6.78340
 3.40 4.40 -3.626 -3.620 -3.612 -3.596 -3.572 10.75206 17.09208 -6.57566
 3.40 4.60 -3.583 -3.579 -3.570 -3.556 -3.534 10.87808 17.29824 -6.36942
 3.40 4.80 -3.541 -3.536 -3.530 -3.515 -3.493 11.00319 17.50327 -6.16429
 3.40 5.00 -3.496 -3.492 -3.484 -3.470 -3.450 11.12775 17.70732 -5.96019
 3.40 5.20 -3.449 -3.444 -3.438 -3.424 -3.405 11.25225 17.91056 -5.75701
 3.40 5.40 -3.397 -3.393 -3.387 -3.374 -3.355 11.37626 18.11321 -5.55442
 3.40 5.60 -3.342 -3.339 -3.332 -3.320 -3.301 11.49958 18.31529 -5.35233
 3.40 5.80 -3.283 -3.280 -3.273 -3.263 -3.245 11.62164 18.51699 -5.15060
 3.40 6.00 -3.221 -3.218 -3.213 -3.202 -3.186 11.74241 18.71834 -4.94923
 3.40 6.25 -3.141 -3.138 -3.134 -3.123 -3.108 11.88997 18.96964 -4.69802
 3.40 6.50 -3.057 -3.055 -3.050 -3.041 -3.027 12.03423 19.22063 -4.44709
 3.40 6.75 -2.972 -2.970 -2.966 -2.957 -2.944 12.17477 19.47137 -4.19635
 3.40 7.00 -2.886 -2.884 -2.880 -2.872 -2.860 12.31218 19.72189 -3.94577
 3.40 7.25 -2.799 -2.797 -2.793 -2.786 -2.776 12.44665 19.97219 -3.69534
 3.40 7.50 -2.713 -2.711 -2.707 -2.701 -2.691 12.57875 20.22246 -3.44503
 3.40 7.75 -2.626 -2.624 -2.621 -2.615 -2.607 12.70902 20.47272 -3.19478
 3.40 8.00 -2.541 -2.539 -2.536 -2.530 -2.523 12.83727 20.72296 -2.94462
 3.42-2.00 -4.533 -4.526 -4.514 -4.493 -4.467  6.06108 10.43965-13.22805
 3.42-1.50 -4.628 -4.621 -4.607 -4.583 -4.552  6.41078 10.93957-12.72793
 3.42-1.00 -4.723 -4.714 -4.699 -4.673 -4.637  6.74170 11.43965-12.22797
 3.42-0.50 -4.799 -4.789 -4.771 -4.740 -4.701  7.06893 11.93962-11.72793
 3.42 0.00 -4.834 -4.823 -4.802 -4.768 -4.723  7.41044 12.43981-11.22783
 3.42 0.50 -4.809 -4.796 -4.773 -4.735 -4.685  7.78168 12.94017-10.72746
 3.42 1.00 -4.708 -4.694 -4.670 -4.628 -4.575  8.18213 13.44154-10.22607
 3.42 1.25 -4.627 -4.613 -4.588 -4.546 -4.492  8.38776 13.69303 -9.97458
 3.42 1.50 -4.529 -4.513 -4.488 -4.445 -4.393  8.59340 13.94547 -9.72216
 3.42 1.75 -4.412 -4.397 -4.372 -4.330 -4.279  8.79886 14.19989 -9.46776
 3.42 2.00 -4.283 -4.267 -4.242 -4.202 -4.153  9.00432 14.45682 -9.21084
 3.42 2.25 -4.149 -4.133 -4.109 -4.071 -4.025  9.21076 14.71810 -8.94951
 3.42 2.50 -4.012 -3.998 -3.976 -3.940 -3.896  9.41830 14.98372 -8.68382
 3.42 2.75 -3.883 -3.870 -3.849 -3.817 -3.776  9.62924 15.25574 -8.41184
 3.42 3.00 -3.760 -3.748 -3.730 -3.701 -3.664  9.84017 15.53033 -8.13727
 3.42 3.20 -3.670 -3.660 -3.643 -3.617 -3.582 10.00783 15.75174 -7.91584
 3.42 3.40 -3.587 -3.577 -3.563 -3.540 -3.509 10.17398 15.97315 -7.69441
 3.42 3.60 -3.511 -3.503 -3.491 -3.470 -3.442 10.33603 16.19363 -7.47393
 3.42 3.80 -3.443 -3.437 -3.426 -3.407 -3.382 10.49082 16.41184 -7.25574
 3.42 4.00 -3.382 -3.377 -3.368 -3.352 -3.329 10.63988 16.62829 -7.03934
 3.42 4.20 -3.331 -3.326 -3.318 -3.303 -3.281 10.78113 16.84196 -6.82572
 3.42 4.40 -3.283 -3.280 -3.273 -3.259 -3.238 10.91752 17.05360 -6.61411
 3.42 4.60 -3.241 -3.237 -3.231 -3.218 -3.198 11.04890 17.26317 -6.40453
 3.42 4.80 -3.201 -3.197 -3.191 -3.178 -3.160 11.17719 17.47108 -6.19659
 3.42 5.00 -3.161 -3.157 -3.151 -3.139 -3.121 11.30320 17.67752 -5.99012
 3.42 5.20 -3.119 -3.116 -3.110 -3.099 -3.082 11.42756 17.88267 -5.78496
 3.42 5.40 -3.076 -3.072 -3.067 -3.056 -3.039 11.55105 18.08689 -5.58074
 3.42 5.60 -3.029 -3.025 -3.021 -3.010 -2.994 11.67396 18.29023 -5.37746
 3.42 5.80 -2.978 -2.975 -2.970 -2.960 -2.944 11.79636 18.49297 -5.17478
 3.42 6.00 -2.924 -2.921 -2.916 -2.906 -2.892 11.91798 18.69513 -4.97265
 3.42 6.25 -2.851 -2.848 -2.844 -2.835 -2.822 12.06831 18.94712 -4.72055
 3.42 6.50 -2.773 -2.772 -2.767 -2.760 -2.747 12.21643 19.19866 -4.46890
 3.42 6.75 -2.694 -2.691 -2.688 -2.681 -2.669 12.36132 19.44992 -4.21757
 3.42 7.00 -2.611 -2.609 -2.606 -2.599 -2.589 12.50311 19.70088 -3.96658
 3.42 7.25 -2.527 -2.526 -2.523 -2.516 -2.507 12.64137 19.95148 -3.71601
 3.42 7.50 -2.443 -2.442 -2.438 -2.433 -2.424 12.77677 20.20194 -3.46559
 3.42 7.75 -2.359 -2.358 -2.354 -2.350 -2.342 12.90977 20.45236 -3.21524
 3.42 8.00 -2.275 -2.274 -2.272 -2.267 -2.260 13.04021 20.70269 -2.96497
 3.44-2.00 -4.389 -4.382 -4.371 -4.352 -4.326  6.20871 10.41963-13.24803
 3.44-1.50 -4.459 -4.452 -4.439 -4.417 -4.389  6.60021 10.91955-12.74812
 3.44-1.00 -4.541 -4.533 -4.518 -4.493 -4.460  6.96085 11.41963-12.24803
 3.44-0.50 -4.617 -4.609 -4.591 -4.563 -4.526  7.29732 11.91955-11.74812
 3.44 0.00 -4.668 -4.658 -4.639 -4.606 -4.562  7.62315 12.41963-11.24795
 3.44 0.50 -4.669 -4.656 -4.635 -4.596 -4.547  7.95497 12.91981-10.74788
 3.44 1.00 -4.595 -4.581 -4.557 -4.515 -4.460  8.30984 13.42029-10.24726
 3.44 1.25 -4.523 -4.509 -4.484 -4.441 -4.385  8.49915 13.67088 -9.99666
 3.44 1.50 -4.427 -4.413 -4.389 -4.346 -4.290  8.69408 13.92190 -9.74569
 3.44 1.75 -4.309 -4.294 -4.271 -4.228 -4.174  8.89416 14.17370 -9.49387
 3.44 2.00 -4.173 -4.158 -4.135 -4.095 -4.042  9.09656 14.42667 -9.24086
 3.44 2.25 -4.023 -4.010 -3.987 -3.950 -3.901  9.30014 14.68196 -8.98559
 3.44 2.50 -3.867 -3.854 -3.834 -3.799 -3.754  9.50529 14.94012 -8.72746
 3.44 2.75 -3.713 -3.701 -3.682 -3.651 -3.610  9.71205 15.20318 -8.46440
 3.44 3.00 -3.564 -3.553 -3.536 -3.509 -3.472  9.92028 15.47070 -8.19688
 3.44 3.20 -3.453 -3.444 -3.430 -3.405 -3.371 10.08850 15.68968 -7.97803
 3.44 3.40 -3.350 -3.342 -3.329 -3.306 -3.276 10.25673 15.90962 -7.75815
 3.44 3.60 -3.255 -3.248 -3.236 -3.217 -3.190 10.42417 16.13051 -7.53723
 3.44 3.80 -3.168 -3.162 -3.152 -3.136 -3.112 10.58897 16.35163 -7.31604
 3.44 4.00 -3.089 -3.084 -3.077 -3.062 -3.041 10.75128 16.57276 -7.09485
 3.44 4.20 -3.022 -3.018 -3.011 -2.998 -2.978 10.90623 16.79096 -6.87664
 3.44 4.40 -2.963 -2.960 -2.953 -2.941 -2.924 11.05554 17.00721 -6.66039
 3.44 4.60 -2.911 -2.909 -2.903 -2.891 -2.875 11.19836 17.22122 -6.44640
 3.44 4.80 -2.865 -2.863 -2.858 -2.847 -2.831 11.33545 17.43297 -6.23468
 3.44 5.00 -2.824 -2.820 -2.816 -2.806 -2.790 11.46790 17.64276 -6.02489
 3.44 5.20 -2.783 -2.780 -2.776 -2.766 -2.752 11.59599 17.85063 -5.81698
 3.44 5.40 -2.743 -2.741 -2.737 -2.727 -2.713 11.72183 18.05713 -5.61042
 3.44 5.60 -2.702 -2.700 -2.696 -2.687 -2.674 11.84567 18.26234 -5.40516
 3.44 5.80 -2.659 -2.656 -2.653 -2.645 -2.631 11.96836 18.46663 -5.20084
 3.44 6.00 -2.612 -2.610 -2.607 -2.598 -2.586 12.08991 18.67006 -4.99740
 3.44 6.25 -2.550 -2.548 -2.544 -2.536 -2.525 12.24096 18.92331 -4.74418
 3.44 6.50 -2.482 -2.480 -2.477 -2.470 -2.459 12.39041 19.17580 -4.49174
 3.44 6.75 -2.410 -2.407 -2.405 -2.398 -2.388 12.53795 19.42777 -4.23987
 3.44 7.00 -2.333 -2.332 -2.329 -2.323 -2.313 12.68314 19.67924 -3.98843
 3.44 7.25 -2.255 -2.253 -2.250 -2.245 -2.237 12.82506 19.93021 -3.73734
 3.44 7.50 -2.175 -2.173 -2.171 -2.166 -2.158 12.96398 20.18099 -3.48652
 3.44 7.75 -2.094 -2.093 -2.090 -2.086 -2.079 13.09987 20.43167 -3.23589
 3.44 8.00 -2.014 -2.013 -2.010 -2.006 -2.000 13.23274 20.68224 -2.98548
 3.46-2.00 -4.289 -4.284 -4.274 -4.255 -4.231  6.29292 10.39950-13.26809
 3.46-1.50 -4.332 -4.325 -4.313 -4.293 -4.265  6.72444 10.89949-12.76802
 3.46-1.00 -4.385 -4.378 -4.365 -4.341 -4.309  7.12743 11.39950-12.26809
 3.46-0.50 -4.443 -4.434 -4.418 -4.391 -4.354  7.49859 11.89949-11.76802
 3.46 0.00 -4.484 -4.474 -4.457 -4.424 -4.382  7.84198 12.39950-11.26801
 3.46 0.50 -4.489 -4.477 -4.457 -4.419 -4.371  8.16909 12.89960-10.76802
 3.46 1.00 -4.432 -4.419 -4.396 -4.354 -4.299  8.49541 13.39985-10.26777
 3.46 1.25 -4.373 -4.359 -4.335 -4.292 -4.234  8.66410 13.65009-10.01748
 3.46 1.50 -4.291 -4.277 -4.252 -4.208 -4.150  8.83784 13.90048 -9.76700
 3.46 1.75 -4.184 -4.170 -4.146 -4.102 -4.045  9.01952 14.15127 -9.51626
 3.46 2.00 -4.054 -4.041 -4.018 -3.977 -3.921  9.20737 14.40261 -9.26504
 3.46 2.25 -3.905 -3.892 -3.871 -3.833 -3.780  9.40139 14.65488 -9.01273
 3.46 2.50 -3.744 -3.733 -3.714 -3.678 -3.631  9.59956 14.90854 -8.75895
 3.46 2.75 -3.577 -3.566 -3.549 -3.518 -3.476  9.80075 15.16504 -8.50246
 3.46 3.00 -3.410 -3.400 -3.385 -3.359 -3.321 10.00475 15.42488 -8.24268
 3.46 3.20 -3.280 -3.272 -3.259 -3.234 -3.201 10.17016 15.63676 -8.03082
 3.46 3.40 -3.157 -3.149 -3.137 -3.116 -3.087 10.33638 15.85145 -7.81614
 3.46 3.60 -3.042 -3.036 -3.026 -3.007 -2.981 10.50348 16.07018 -7.59742
 3.46 3.80 -2.935 -2.931 -2.922 -2.906 -2.884 10.67085 16.29083 -7.37678
 3.46 4.00 -2.838 -2.834 -2.827 -2.814 -2.794 10.83822 16.51148 -7.15615
 3.46 4.20 -2.754 -2.750 -2.744 -2.733 -2.715 11.00206 16.73211 -6.93556
 3.46 4.40 -2.678 -2.675 -2.669 -2.659 -2.643 11.16256 16.95269 -6.71506
 3.46 4.60 -2.612 -2.609 -2.604 -2.595 -2.580 11.31816 17.17176 -6.49602
 3.46 4.80 -2.554 -2.552 -2.548 -2.538 -2.525 11.46723 17.38779 -6.27990
 3.46 5.00 -2.503 -2.500 -2.496 -2.488 -2.475 11.61077 17.60173 -6.06586
 3.46 5.20 -2.457 -2.456 -2.451 -2.444 -2.431 11.74764 17.81325 -5.85432
 3.46 5.40 -2.415 -2.413 -2.409 -2.401 -2.390 11.88021 18.02294 -5.64462
 3.46 5.60 -2.374 -2.373 -2.369 -2.362 -2.351 12.00848 18.23082 -5.43674
 3.46 5.80 -2.334 -2.332 -2.329 -2.322 -2.312 12.13398 18.43731 -5.23025
 3.46 6.00 -2.293 -2.292 -2.288 -2.282 -2.272 12.25720 18.64256 -5.02503
 3.46 6.25 -2.239 -2.238 -2.234 -2.228 -2.219 12.40906 18.89774 -4.77000
 3.46 6.50 -2.181 -2.180 -2.176 -2.171 -2.161 12.55895 19.15168 -4.51613
 3.46 6.75 -2.118 -2.116 -2.114 -2.108 -2.099 12.70759 19.40459 -4.26311
 3.46 7.00 -2.050 -2.049 -2.046 -2.041 -2.033 12.85437 19.65677 -4.01082
 3.46 7.25 -1.980 -1.978 -1.976 -1.971 -1.963 12.99888 19.90835 -3.75918
 3.46 7.50 -1.906 -1.905 -1.902 -1.898 -1.891 13.14082 20.15957 -3.50794
 3.46 7.75 -1.830 -1.829 -1.827 -1.823 -1.816 13.27950 20.41058 -3.25693
 3.46 8.00 -1.754 -1.753 -1.751 -1.747 -1.741 13.41514 20.66134 -3.00621
 3.48-2.00 -4.231 -4.227 -4.217 -4.201 -4.179  6.32449 10.37912-13.28845
 3.48-1.50 -4.245 -4.239 -4.228 -4.208 -4.184  6.79176 10.87915-12.78835
 3.48-1.00 -4.272 -4.264 -4.252 -4.229 -4.198  7.23300 11.37931-12.28836
 3.48-0.50 -4.300 -4.292 -4.277 -4.250 -4.215  7.64591 11.87921-11.78835
 3.48 0.00 -4.316 -4.306 -4.288 -4.258 -4.216  8.02735 12.37931-11.28836
 3.48 0.50 -4.301 -4.290 -4.270 -4.234 -4.186  8.37822 12.87927-10.78835
 3.48 1.00 -4.240 -4.228 -4.205 -4.165 -4.110  8.70825 13.37931-10.28819
 3.48 1.25 -4.186 -4.173 -4.148 -4.106 -4.049  8.87003 13.62941-10.03814
 3.48 1.50 -4.111 -4.097 -4.073 -4.030 -3.972  9.03181 13.87961 -9.78808
 3.48 1.75 -4.015 -4.001 -3.977 -3.935 -3.877  9.19690 14.12998 -9.53773
 3.48 2.00 -3.898 -3.885 -3.862 -3.821 -3.765  9.36549 14.38057 -9.28710
 3.48 2.25 -3.762 -3.749 -3.728 -3.689 -3.636  9.54075 14.63153 -9.03605
 3.48 2.50 -3.610 -3.599 -3.579 -3.544 -3.495  9.72198 14.88309 -8.78436
 3.48 2.75 -3.445 -3.436 -3.418 -3.387 -3.343  9.91003 15.13609 -8.53141
 3.48 3.00 -3.275 -3.267 -3.252 -3.224 -3.186 10.10346 15.39094 -8.27671
 3.48 3.20 -3.138 -3.130 -3.117 -3.092 -3.059 10.26166 15.59713 -8.07054
 3.48 3.40 -3.002 -2.996 -2.984 -2.963 -2.934 10.42244 15.80574 -7.86193
 3.48 3.60 -2.871 -2.865 -2.855 -2.837 -2.812 10.58657 16.01766 -7.64999
 3.48 3.80 -2.746 -2.741 -2.733 -2.718 -2.696 10.75227 16.23300 -7.43464
 3.48 4.00 -2.629 -2.625 -2.618 -2.606 -2.588 10.91813 16.45086 -7.21674
 3.48 4.20 -2.527 -2.523 -2.517 -2.506 -2.490 11.08410 16.67208 -6.99546
 3.48 4.40 -2.432 -2.430 -2.425 -2.415 -2.401 11.25006 16.89329 -6.77418
 3.48 4.60 -2.350 -2.348 -2.343 -2.335 -2.322 11.41410 17.11420 -6.55323
 3.48 4.80 -2.277 -2.275 -2.271 -2.263 -2.251 11.57319 17.33410 -6.33336
 3.48 5.00 -2.212 -2.210 -2.207 -2.200 -2.188 11.72827 17.55303 -6.11453
 3.48 5.20 -2.155 -2.154 -2.150 -2.143 -2.133 11.87655 17.76880 -5.89876
 3.48 5.40 -2.105 -2.103 -2.100 -2.094 -2.083 12.01943 17.98246 -5.68510
 3.48 5.60 -2.059 -2.057 -2.055 -2.049 -2.038 12.15639 18.19388 -5.47367
 3.48 5.80 -2.017 -2.016 -2.013 -2.006 -1.997 12.28850 18.40339 -5.26416
 3.48 6.00 -1.977 -1.974 -1.972 -1.967 -1.957 12.41664 18.61119 -5.05636
 3.48 6.25 -1.926 -1.925 -1.923 -1.916 -1.908 12.57228 18.86889 -4.79866
 3.48 6.50 -1.875 -1.873 -1.871 -1.865 -1.857 12.72444 19.12483 -4.54272
 3.48 6.75 -1.821 -1.819 -1.816 -1.812 -1.804 12.87414 19.37932 -4.28822
 3.48 7.00 -1.763 -1.762 -1.758 -1.754 -1.747 13.02160 19.63276 -4.03480
 3.48 7.25 -1.701 -1.699 -1.697 -1.692 -1.685 13.16746 19.88538 -3.78226
 3.48 7.50 -1.635 -1.633 -1.631 -1.627 -1.620 13.31112 20.13735 -3.53033
 3.48 7.75 -1.566 -1.565 -1.562 -1.559 -1.553 13.45199 20.38888 -3.27878
 3.48 8.00 -1.497 -1.495 -1.493 -1.490 -1.484 13.59028 20.63988 -3.02771
 3.50-2.00 -4.206 -4.201 -4.194 -4.181 -4.165  6.32160 10.35946-13.30812
 3.50-1.50 -4.199 -4.194 -4.183 -4.167 -4.144  6.81043 10.85944-12.80827
 3.50-1.00 -4.198 -4.191 -4.180 -4.158 -4.130  7.28398 11.35946-12.30812
 3.50-0.50 -4.199 -4.191 -4.177 -4.151 -4.118  7.73255 11.85950-11.80799
 3.50 0.00 -4.186 -4.176 -4.159 -4.129 -4.089  8.15259 12.35965-11.30803
 3.50 0.50 -4.139 -4.128 -4.109 -4.073 -4.026  8.54133 12.85956-10.80799
 3.50 1.00 -4.052 -4.040 -4.018 -3.978 -3.924  8.89829 13.35965-10.30795
 3.50 1.25 -3.990 -3.977 -3.954 -3.913 -3.857  9.06653 13.60969-10.05797
 3.50 1.50 -3.912 -3.899 -3.876 -3.835 -3.778  9.23121 13.85974 -9.80799
 3.50 1.75 -3.819 -3.805 -3.783 -3.741 -3.685  9.39261 14.10992 -9.55778
 3.50 2.00 -3.708 -3.697 -3.674 -3.634 -3.580  9.55400 14.36022 -9.30742
 3.50 2.25 -3.583 -3.572 -3.550 -3.512 -3.461  9.71704 14.61063 -9.05698
 3.50 2.50 -3.444 -3.433 -3.414 -3.379 -3.332  9.88218 14.86130 -8.80632
 3.50 2.75 -3.293 -3.283 -3.266 -3.235 -3.192 10.05319 15.11265 -8.55493
 3.50 3.00 -3.132 -3.124 -3.109 -3.081 -3.043 10.22968 15.36493 -8.30260
 3.50 3.20 -2.998 -2.990 -2.977 -2.953 -2.919 10.37592 15.56799 -8.09951
 3.50 3.40 -2.862 -2.855 -2.844 -2.822 -2.793 10.52607 15.77256 -7.89494
 3.50 3.60 -2.726 -2.720 -2.709 -2.692 -2.666 10.68036 15.97914 -7.68838
 3.50 3.80 -2.591 -2.586 -2.577 -2.562 -2.541 10.83815 16.18865 -7.47891
 3.50 4.00 -2.461 -2.457 -2.450 -2.437 -2.419 10.99900 16.40088 -7.26672
 3.50 4.20 -2.340 -2.338 -2.332 -2.321 -2.306 11.16398 16.61752 -7.05005
 3.50 4.40 -2.228 -2.227 -2.221 -2.212 -2.198 11.32896 16.83607 -6.83148
 3.50 4.60 -2.128 -2.126 -2.121 -2.113 -2.102 11.49376 17.05681 -6.61073
 3.50 4.80 -2.038 -2.036 -2.033 -2.025 -2.014 11.65769 17.27832 -6.38924
 3.50 5.00 -1.957 -1.956 -1.952 -1.946 -1.936 11.82073 17.49982 -6.16775
 3.50 5.20 -1.887 -1.885 -1.882 -1.876 -1.867 11.97807 17.71928 -5.94833
 3.50 5.40 -1.824 -1.823 -1.820 -1.814 -1.806 12.13082 17.93706 -5.73058
 3.50 5.60 -1.769 -1.767 -1.764 -1.759 -1.750 12.27808 18.15263 -5.51501
 3.50 5.80 -1.719 -1.717 -1.714 -1.709 -1.701 12.41945 18.36569 -5.30191
 3.50 6.00 -1.674 -1.673 -1.669 -1.664 -1.657 12.55570 18.57669 -5.09087
 3.50 6.25 -1.622 -1.620 -1.618 -1.613 -1.605 12.71868 18.83762 -4.82995
 3.50 6.50 -1.572 -1.571 -1.569 -1.563 -1.556 12.87605 19.09621 -4.57138
 3.50 6.75 -1.523 -1.521 -1.519 -1.515 -1.507 13.02892 19.35288 -4.31475
 3.50 7.00 -1.472 -1.470 -1.468 -1.464 -1.457 13.17840 19.60799 -4.05963
 3.50 7.25 -1.418 -1.417 -1.414 -1.410 -1.404 13.32537 19.86174 -3.80577
 3.50 7.50 -1.361 -1.359 -1.357 -1.354 -1.348 13.46982 20.11461 -3.55284
 3.50 7.75 -1.301 -1.299 -1.297 -1.293 -1.288 13.61203 20.36692 -3.30057
 3.50 8.00 -1.238 -1.237 -1.235 -1.231 -1.225 13.75189 20.61857 -3.04905
 3.52-2.00 -4.188 -4.185 -4.180 -4.172 -4.161  6.31133 10.33945-13.32818
 3.52-1.50 -4.179 -4.174 -4.167 -4.154 -4.139  6.80414 10.83942-12.82827
 3.52-1.00 -4.162 -4.156 -4.147 -4.129 -4.106  7.29469 11.33945-12.32809
 3.52-0.50 -4.139 -4.132 -4.118 -4.095 -4.065  7.77284 11.83948-11.82827
 3.52 0.00 -4.097 -4.089 -4.073 -4.044 -4.006  8.22789 12.33945-11.32809
 3.52 0.50 -4.020 -4.010 -3.990 -3.956 -3.910  8.65437 12.83954-10.82798
 3.52 1.00 -3.897 -3.884 -3.862 -3.823 -3.772  9.04961 13.33965-10.32799
 3.52 1.25 -3.818 -3.806 -3.783 -3.743 -3.688  9.23460 13.58963-10.07799
 3.52 1.50 -3.727 -3.715 -3.692 -3.651 -3.595  9.41229 13.83960 -9.82798
 3.52 1.75 -3.625 -3.612 -3.590 -3.549 -3.495  9.58264 14.08969 -9.57789
 3.52 2.00 -3.511 -3.499 -3.477 -3.439 -3.386  9.74850 14.33985 -9.32772
 3.52 2.25 -3.386 -3.375 -3.355 -3.319 -3.269  9.90982 14.59005 -9.07748
 3.52 2.50 -3.254 -3.243 -3.225 -3.192 -3.146 10.07115 14.84036 -8.82711
 3.52 2.75 -3.112 -3.103 -3.086 -3.056 -3.015 10.23294 15.09097 -8.57650
 3.52 3.00 -2.964 -2.956 -2.942 -2.915 -2.878 10.39550 15.34203 -8.32551
 3.52 3.20 -2.840 -2.832 -2.819 -2.796 -2.763 10.52929 15.54347 -8.12408
 3.52 3.40 -2.712 -2.706 -2.694 -2.673 -2.644 10.66621 15.74572 -7.92186
 3.52 3.60 -2.581 -2.575 -2.565 -2.547 -2.522 10.80686 15.94903 -7.71857
 3.52 3.80 -2.448 -2.443 -2.434 -2.419 -2.398 10.95204 16.15423 -7.51338
 3.52 4.00 -2.314 -2.311 -2.304 -2.291 -2.273 11.10140 16.36135 -7.30627
 3.52 4.20 -2.186 -2.183 -2.176 -2.166 -2.150 11.25604 16.57189 -7.09579
 3.52 4.40 -2.062 -2.059 -2.054 -2.045 -2.031 11.41396 16.78528 -6.88244
 3.52 4.60 -1.946 -1.943 -1.939 -1.931 -1.920 11.57600 17.00266 -6.66503
 3.52 4.80 -1.839 -1.837 -1.833 -1.826 -1.816 11.73968 17.22245 -6.44520
 3.52 5.00 -1.740 -1.739 -1.736 -1.730 -1.720 11.90336 17.44295 -6.22468
 3.52 5.20 -1.655 -1.653 -1.651 -1.645 -1.637 12.06532 17.66394 -6.00370
 3.52 5.40 -1.577 -1.576 -1.573 -1.569 -1.560 12.22527 17.88492 -5.78272
 3.52 5.60 -1.510 -1.508 -1.506 -1.500 -1.493 12.38156 18.10464 -5.56299
 3.52 5.80 -1.449 -1.447 -1.445 -1.440 -1.433 12.53203 18.32159 -5.34601
 3.52 6.00 -1.395 -1.394 -1.391 -1.387 -1.380 12.67761 18.53656 -5.13100
 3.52 6.25 -1.335 -1.334 -1.332 -1.327 -1.320 12.85106 18.80184 -4.86581
 3.52 6.50 -1.282 -1.281 -1.278 -1.274 -1.268 13.01703 19.06409 -4.60363
 3.52 6.75 -1.232 -1.231 -1.229 -1.224 -1.219 13.17591 19.32343 -4.34423
 3.52 7.00 -1.184 -1.183 -1.181 -1.177 -1.171 13.32960 19.58070 -4.08693
 3.52 7.25 -1.136 -1.135 -1.132 -1.129 -1.123 13.47916 19.83632 -3.83135
 3.52 7.50 -1.086 -1.085 -1.083 -1.079 -1.073 13.62531 20.09061 -3.57708
 3.52 7.75 -1.034 -1.033 -1.030 -1.026 -1.021 13.76889 20.34393 -3.32374
 3.52 8.00 -0.980 -0.979 -0.976 -0.972 -0.967 13.90961 20.59616 -3.07145
 3.54-2.00 -4.152 -4.149 -4.147 -4.141 -4.133  6.32572 10.31952-13.34814
 3.54-1.50 -4.158 -4.155 -4.150 -4.141 -4.131  6.79927 10.81941-12.84832
 3.54-1.00 -4.145 -4.141 -4.134 -4.122 -4.106  7.28758 11.31952-12.34814
 3.54-0.50 -4.114 -4.108 -4.097 -4.079 -4.055  7.77786 11.81941-11.84832
 3.54 0.00 -4.052 -4.044 -4.030 -4.005 -3.971  8.25912 12.31952-11.34814
 3.54 0.50 -3.946 -3.936 -3.918 -3.886 -3.843  8.71908 12.81948-10.84802
 3.54 1.00 -3.786 -3.775 -3.754 -3.717 -3.667  9.15076 13.31952-10.34804
 3.54 1.25 -3.689 -3.678 -3.655 -3.617 -3.564  9.35483 13.56953-10.09804
 3.54 1.50 -3.580 -3.568 -3.546 -3.506 -3.452  9.55084 13.81954 -9.84802
 3.54 1.75 -3.461 -3.449 -3.427 -3.388 -3.335  9.73819 14.06963 -9.59799
 3.54 2.00 -3.334 -3.322 -3.301 -3.263 -3.213  9.91792 14.31973 -9.34795
 3.54 2.25 -3.201 -3.189 -3.170 -3.135 -3.088 10.08985 14.56983 -9.09786
 3.54 2.50 -3.063 -3.053 -3.035 -3.003 -2.958 10.25672 14.81994 -8.84771
 3.54 2.75 -2.922 -2.913 -2.897 -2.868 -2.828 10.41855 15.07024 -8.59737
 3.54 3.00 -2.779 -2.770 -2.756 -2.730 -2.694 10.57978 15.32077 -8.34679
 3.54 3.20 -2.660 -2.652 -2.640 -2.617 -2.584 10.70850 15.52146 -8.14609
 3.54 3.40 -2.540 -2.533 -2.523 -2.502 -2.473 10.83721 15.72253 -7.94503
 3.54 3.60 -2.417 -2.411 -2.401 -2.384 -2.359 10.96724 15.92414 -7.74344
 3.54 3.80 -2.292 -2.286 -2.279 -2.263 -2.241 11.10072 16.12682 -7.54076
 3.54 4.00 -2.164 -2.161 -2.154 -2.141 -2.122 11.23704 16.33062 -7.33696
 3.54 4.20 -2.037 -2.034 -2.029 -2.017 -2.002 11.37815 16.53654 -7.13109
 3.54 4.40 -1.911 -1.909 -1.904 -1.895 -1.881 11.52358 16.74483 -6.92287
 3.54 4.60 -1.789 -1.787 -1.783 -1.775 -1.763 11.67432 16.95630 -6.71139
 3.54 4.80 -1.671 -1.670 -1.666 -1.659 -1.648 11.82941 17.17115 -6.49647
 3.54 5.00 -1.560 -1.559 -1.555 -1.549 -1.539 11.98753 17.38864 -6.27893
 3.54 5.20 -1.460 -1.457 -1.454 -1.449 -1.441 12.14903 17.60981 -6.05779
 3.54 5.40 -1.367 -1.365 -1.362 -1.358 -1.349 12.31054 17.83098 -5.83664
 3.54 5.60 -1.283 -1.283 -1.281 -1.276 -1.268 12.47084 18.05191 -5.61573
 3.54 5.80 -1.211 -1.210 -1.207 -1.203 -1.196 12.62771 18.27199 -5.39565
 3.54 6.00 -1.145 -1.144 -1.142 -1.138 -1.131 12.78161 18.49122 -5.17640
 3.54 6.25 -1.074 -1.073 -1.071 -1.067 -1.061 12.96558 18.76093 -4.90663
 3.54 6.50 -1.012 -1.011 -1.009 -1.005 -0.999 13.14176 19.02735 -4.64017
 3.54 6.75 -0.957 -0.956 -0.954 -0.950 -0.944 13.30924 19.29041 -4.37718
 3.54 7.00 -0.908 -0.906 -0.905 -0.901 -0.895 13.46982 19.55072 -4.11691
 3.54 7.25 -0.861 -0.859 -0.857 -0.854 -0.848 13.62422 19.80845 -3.85902
 3.54 7.50 -0.815 -0.814 -0.812 -0.808 -0.803 13.77371 20.06446 -3.60293
 3.54 7.75 -0.768 -0.768 -0.765 -0.762 -0.756 13.91946 20.31933 -3.34813
 3.54 8.00 -0.722 -0.720 -0.719 -0.714 -0.709 14.06108 20.57287 -3.09480
 3.56-2.00 -4.050 -4.049 -4.047 -4.042 -4.037  6.43441 10.29929-13.36825
 3.56-1.50 -4.102 -4.101 -4.097 -4.092 -4.083  6.84292 10.79934-12.86838
 3.56-1.00 -4.117 -4.115 -4.110 -4.102 -4.090  7.29491 11.29929-12.36825
 3.56-0.50 -4.099 -4.095 -4.088 -4.075 -4.058  7.77349 11.79934-11.86838
 3.56 0.00 -4.040 -4.034 -4.023 -4.003 -3.977  8.26126 12.29929-11.36825
 3.56 0.50 -3.918 -3.910 -3.895 -3.867 -3.831  8.74343 12.79934-10.86838
 3.56 1.00 -3.728 -3.717 -3.697 -3.663 -3.618  9.20710 13.29951-10.36815
 3.56 1.25 -3.611 -3.599 -3.579 -3.543 -3.494  9.42847 13.54946-10.11809
 3.56 1.50 -3.482 -3.470 -3.448 -3.411 -3.360  9.64237 13.79941 -9.86806
 3.56 1.75 -3.344 -3.332 -3.311 -3.274 -3.224  9.84829 14.04946 -9.61805
 3.56 2.00 -3.199 -3.187 -3.167 -3.130 -3.081 10.04611 14.29951 -9.36805
 3.56 2.25 -3.050 -3.039 -3.020 -2.986 -2.939 10.23520 14.54956 -9.11806
 3.56 2.50 -2.899 -2.890 -2.872 -2.840 -2.797 10.41648 14.79962 -8.86806
 3.56 2.75 -2.749 -2.740 -2.724 -2.696 -2.657 10.58975 15.04983 -8.61787
 3.56 3.00 -2.599 -2.592 -2.577 -2.552 -2.517 10.75747 15.30016 -8.36754
 3.56 3.20 -2.480 -2.472 -2.460 -2.437 -2.406 10.88730 15.50049 -8.16722
 3.56 3.40 -2.360 -2.354 -2.343 -2.322 -2.294 11.01637 15.70097 -7.96675
 3.56 3.60 -2.240 -2.235 -2.225 -2.207 -2.182 11.14471 15.90173 -7.76599
 3.56 3.80 -2.119 -2.115 -2.106 -2.091 -2.069 11.27288 16.10312 -7.56458
 3.56 4.00 -1.998 -1.994 -1.987 -1.974 -1.955 11.40106 16.30514 -7.36251
 3.56 4.20 -1.877 -1.873 -1.867 -1.856 -1.839 11.53213 16.50826 -7.15932
 3.56 4.40 -1.754 -1.752 -1.747 -1.737 -1.723 11.66584 16.71290 -6.95462
 3.56 4.60 -1.634 -1.631 -1.627 -1.619 -1.606 11.80312 16.91961 -6.74791
 3.56 4.80 -1.515 -1.513 -1.509 -1.502 -1.490 11.94524 17.12934 -6.53826
 3.56 5.00 -1.398 -1.396 -1.393 -1.387 -1.377 12.09167 17.34183 -6.32587
 3.56 5.20 -1.288 -1.287 -1.284 -1.279 -1.270 12.24466 17.55868 -6.10895
 3.56 5.40 -1.184 -1.183 -1.181 -1.175 -1.168 12.39985 17.77736 -5.89021
 3.56 5.60 -1.089 -1.088 -1.086 -1.081 -1.073 12.55742 17.99813 -5.66942
 3.56 5.80 -1.003 -1.002 -1.000 -0.995 -0.988 12.71569 18.21960 -5.44797
 3.56 6.00 -0.925 -0.924 -0.922 -0.918 -0.911 12.87396 18.44107 -5.22651
 3.56 6.25 -0.840 -0.840 -0.837 -0.834 -0.827 13.06545 18.71493 -4.95268
 3.56 6.50 -0.767 -0.766 -0.763 -0.760 -0.755 13.25115 18.98615 -4.68152
 3.56 6.75 -0.703 -0.702 -0.701 -0.697 -0.691 13.42803 19.25334 -4.41434
 3.56 7.00 -0.648 -0.647 -0.645 -0.641 -0.636 13.59726 19.51733 -4.15034
 3.56 7.25 -0.598 -0.597 -0.595 -0.591 -0.586 13.75849 19.77815 -3.88947
 3.56 7.50 -0.553 -0.551 -0.549 -0.546 -0.540 13.91329 20.03663 -3.63097
 3.56 7.75 -0.509 -0.508 -0.506 -0.502 -0.496 14.06287 20.29336 -3.37424
 3.56 8.00 -0.466 -0.465 -0.463 -0.459 -0.453 14.20683 20.54815 -3.11947
 3.58-2.00 -3.852 -3.850 -3.848 -3.845 -3.840  6.67201 10.27921-13.38828
 3.58-1.50 -3.964 -3.962 -3.960 -3.955 -3.949  7.00475 10.77931-12.88840
 3.58-1.00 -4.036 -4.034 -4.030 -4.025 -4.016  7.37912 11.27944-12.38828
 3.58-0.50 -4.060 -4.057 -4.052 -4.043 -4.031  7.80195 11.77931-11.88840
 3.58 0.00 -4.026 -4.022 -4.014 -4.001 -3.983  8.26435 12.27944-11.38817
 3.58 0.50 -3.918 -3.911 -3.899 -3.879 -3.852  8.74562 12.77938-10.88840
 3.58 1.00 -3.717 -3.707 -3.691 -3.664 -3.626  9.22686 13.27944-10.38817
 3.58 1.25 -3.585 -3.575 -3.557 -3.526 -3.484  9.46203 13.52941-10.13810
 3.58 1.50 -3.436 -3.425 -3.406 -3.373 -3.329  9.69214 13.77938 -9.88807
 3.58 1.75 -3.279 -3.268 -3.248 -3.214 -3.169  9.91461 14.02940 -9.63806
 3.58 2.00 -3.113 -3.102 -3.083 -3.049 -3.003 10.12969 14.27944 -9.38806
 3.58 2.25 -2.946 -2.936 -2.918 -2.885 -2.841 10.33671 14.52948 -9.13807
 3.58 2.50 -2.778 -2.768 -2.751 -2.720 -2.678 10.53555 14.77952 -8.88807
 3.58 2.75 -2.612 -2.603 -2.588 -2.560 -2.523 10.72555 15.02969 -8.63795
 3.58 3.00 -2.450 -2.441 -2.428 -2.403 -2.368 10.90757 15.27990 -8.38775
 3.58 3.20 -2.322 -2.315 -2.303 -2.280 -2.248 11.04707 15.48007 -8.18754
 3.58 3.40 -2.197 -2.190 -2.179 -2.159 -2.130 11.18290 15.68027 -7.98724
 3.58 3.60 -2.073 -2.068 -2.057 -2.039 -2.014 11.31464 15.88062 -7.78683
 3.58 3.80 -1.951 -1.946 -1.937 -1.921 -1.899 11.44427 16.08134 -7.58616
 3.58 4.00 -1.830 -1.826 -1.818 -1.804 -1.784 11.57287 16.28240 -7.38521
 3.58 4.20 -1.709 -1.705 -1.699 -1.687 -1.669 11.70070 16.48403 -7.18357
 3.58 4.40 -1.589 -1.586 -1.581 -1.571 -1.555 11.82852 16.68653 -6.98103
 3.58 4.60 -1.470 -1.467 -1.463 -1.454 -1.441 11.95747 16.89021 -6.77731
 3.58 4.80 -1.353 -1.350 -1.347 -1.339 -1.326 12.08955 17.09599 -6.57154
 3.58 5.00 -1.237 -1.235 -1.232 -1.224 -1.214 12.22427 17.30384 -6.36371
 3.58 5.20 -1.124 -1.122 -1.119 -1.114 -1.104 12.36415 17.51534 -6.15225
 3.58 5.40 -1.016 -1.014 -1.012 -1.007 -0.998 12.50811 17.72967 -5.93795
 3.58 5.60 -0.914 -0.912 -0.910 -0.905 -0.897 12.65789 17.94810 -5.71958
 3.58 5.80 -0.818 -0.817 -0.815 -0.811 -0.803 12.81086 18.16858 -5.49913
 3.58 6.00 -0.730 -0.729 -0.727 -0.723 -0.716 12.96435 18.38917 -5.27852
 3.58 6.25 -0.632 -0.632 -0.630 -0.626 -0.619 13.15662 18.66497 -5.00264
 3.58 6.50 -0.547 -0.546 -0.544 -0.539 -0.534 13.34889 18.94077 -4.72677
 3.58 6.75 -0.472 -0.472 -0.470 -0.465 -0.460 13.53308 19.21214 -4.45542
 3.58 7.00 -0.408 -0.407 -0.405 -0.401 -0.396 13.71071 19.48029 -4.18729
 3.58 7.25 -0.352 -0.352 -0.350 -0.345 -0.340 13.87974 19.74459 -3.92286
 3.58 7.50 -0.303 -0.303 -0.301 -0.296 -0.291 14.04139 20.00604 -3.66134
 3.58 7.75 -0.259 -0.259 -0.256 -0.252 -0.246 14.19621 20.26526 -3.40219
 3.58 8.00 -0.218 -0.217 -0.215 -0.211 -0.204 14.34400 20.52205 -3.14557
 3.60-2.00 -3.582 -3.580 -3.578 -3.575 -3.569  6.98753 10.25912-13.40838
 3.60-1.50 -3.736 -3.734 -3.733 -3.728 -3.722  7.27807 10.75929-12.90833
 3.60-1.00 -3.863 -3.862 -3.859 -3.853 -3.846  7.58883 11.25936-12.40827
 3.60-0.50 -3.949 -3.946 -3.943 -3.936 -3.925  7.93288 11.75937-11.90833
 3.60 0.00 -3.972 -3.969 -3.963 -3.953 -3.939  8.32366 12.25936-11.40816
 3.60 0.50 -3.905 -3.900 -3.892 -3.878 -3.858  8.76268 12.75937-10.90833
 3.60 1.00 -3.726 -3.719 -3.707 -3.686 -3.658  9.23274 13.25935-10.40816
 3.60 1.25 -3.593 -3.585 -3.572 -3.548 -3.515  9.47156 13.50936-10.15825
 3.60 1.50 -3.437 -3.428 -3.412 -3.386 -3.350  9.71037 13.75937 -9.90833
 3.60 1.75 -3.265 -3.255 -3.239 -3.211 -3.173  9.94507 14.00936 -9.65825
 3.60 2.00 -3.081 -3.071 -3.054 -3.024 -2.985 10.17551 14.25936 -9.40816
 3.60 2.25 -2.894 -2.885 -2.868 -2.839 -2.799 10.39828 14.50944 -9.15807
 3.60 2.50 -2.706 -2.697 -2.681 -2.652 -2.614 10.61374 14.75952 -8.90798
 3.60 2.75 -2.522 -2.514 -2.498 -2.472 -2.436 10.82096 15.00956 -8.65796
 3.60 3.00 -2.342 -2.334 -2.320 -2.295 -2.261 11.01995 15.25959 -8.40793
 3.60 3.20 -2.202 -2.194 -2.182 -2.159 -2.128 11.17267 15.45969 -8.20786
 3.60 3.40 -2.066 -2.059 -2.048 -2.027 -1.998 11.32028 15.65986 -8.00772
 3.60 3.60 -1.933 -1.927 -1.916 -1.898 -1.872 11.46245 15.86010 -7.80751
 3.60 3.80 -1.803 -1.798 -1.788 -1.772 -1.748 11.60021 16.06048 -7.60714
 3.60 4.00 -1.676 -1.671 -1.664 -1.649 -1.628 11.73424 16.26103 -7.40660
 3.60 4.20 -1.552 -1.548 -1.541 -1.528 -1.509 11.86415 16.46189 -7.20571
 3.60 4.40 -1.429 -1.425 -1.420 -1.409 -1.392 11.99314 16.66324 -7.00432
 3.60 4.60 -1.309 -1.306 -1.301 -1.291 -1.276 12.12122 16.86526 -6.80229
 3.60 4.80 -1.191 -1.188 -1.184 -1.176 -1.162 12.24908 17.06858 -6.59899
 3.60 5.00 -1.074 -1.072 -1.068 -1.061 -1.049 12.37694 17.27323 -6.39437
 3.60 5.20 -0.960 -0.959 -0.955 -0.949 -0.939 12.50792 17.48035 -6.18721
 3.60 5.40 -0.850 -0.848 -0.845 -0.840 -0.830 12.64164 17.69006 -5.97745
 3.60 5.60 -0.743 -0.743 -0.740 -0.735 -0.727 12.77940 17.90331 -5.76421
 3.60 5.80 -0.644 -0.643 -0.640 -0.635 -0.628 12.92172 18.11986 -5.54774
 3.60 6.00 -0.551 -0.549 -0.547 -0.543 -0.535 13.06744 18.33866 -5.32901
 3.60 6.25 -0.444 -0.443 -0.441 -0.437 -0.430 13.25559 18.61543 -5.05224
 3.60 6.50 -0.348 -0.347 -0.345 -0.341 -0.335 13.44373 18.89221 -4.77547
 3.60 6.75 -0.264 -0.263 -0.261 -0.257 -0.251 13.63011 19.16693 -4.50069
 3.60 7.00 -0.191 -0.190 -0.188 -0.183 -0.177 13.81405 19.43949 -4.22805
 3.60 7.25 -0.127 -0.126 -0.124 -0.119 -0.114 13.98971 19.70785 -3.95971
 3.60 7.50 -0.072 -0.071 -0.068 -0.065 -0.058 14.15836 19.97294 -3.69465
 3.60 7.75 -0.025 -0.024 -0.022 -0.017 -0.011 14.31913 20.23503 -3.43256
 3.60 8.00  0.017  0.019  0.021  0.026  0.031 14.47232 20.49401 -3.17354
 3.62-2.00 -3.273 -3.270 -3.268 -3.265 -3.259  7.33325 10.23880-13.42876
 3.62-1.50 -3.454 -3.452 -3.450 -3.445 -3.438  7.60433 10.73902-12.92849
 3.62-1.00 -3.616 -3.615 -3.611 -3.606 -3.599  7.88417 11.23930-12.42841
 3.62-0.50 -3.749 -3.747 -3.743 -3.737 -3.727  8.17898 11.73926-11.92849
 3.62 0.00 -3.832 -3.829 -3.824 -3.816 -3.804  8.49941 12.23930-11.42829
 3.62 0.50 -3.831 -3.827 -3.822 -3.810 -3.793  8.86028 12.73934-10.92812
 3.62 1.00 -3.707 -3.703 -3.694 -3.678 -3.656  9.27138 13.23930-10.42829
 3.62 1.25 -3.594 -3.588 -3.578 -3.559 -3.535  9.49473 13.48932-10.17820
 3.62 1.50 -3.448 -3.442 -3.430 -3.410 -3.382  9.72428 13.73934 -9.92812
 3.62 1.75 -3.278 -3.270 -3.257 -3.235 -3.204  9.95953 13.98932 -9.67815
 3.62 2.00 -3.088 -3.080 -3.066 -3.042 -3.010 10.19479 14.23930 -9.42817
 3.62 2.25 -2.887 -2.880 -2.865 -2.841 -2.807 10.42758 14.48935 -9.17815
 3.62 2.50 -2.683 -2.674 -2.660 -2.635 -2.602 10.65734 14.73941 -8.92812
 3.62 2.75 -2.480 -2.473 -2.460 -2.435 -2.402 10.87960 14.98948 -8.67809
 3.62 3.00 -2.281 -2.274 -2.260 -2.237 -2.206 11.09482 15.23955 -8.42806
 3.62 3.20 -2.128 -2.121 -2.108 -2.086 -2.056 11.26097 15.43959 -8.22795
 3.62 3.40 -1.977 -1.970 -1.959 -1.938 -1.909 11.42181 15.63963 -8.02782
 3.62 3.60 -1.831 -1.824 -1.814 -1.795 -1.768 11.57702 15.83973 -7.82769
 3.62 3.80 -1.689 -1.684 -1.674 -1.657 -1.632 11.72674 16.03996 -7.62754
 3.62 4.00 -1.552 -1.547 -1.539 -1.523 -1.500 11.87134 16.24030 -7.42736
 3.62 4.20 -1.418 -1.414 -1.407 -1.392 -1.372 12.01050 16.44077 -7.22687
 3.62 4.40 -1.289 -1.285 -1.279 -1.267 -1.248 12.14604 16.64149 -7.02607
 3.62 4.60 -1.164 -1.160 -1.155 -1.144 -1.128 12.27739 16.84255 -6.82493
 3.62 4.80 -1.040 -1.038 -1.033 -1.023 -1.008 12.40675 17.04437 -6.62312
 3.62 5.00 -0.920 -0.918 -0.914 -0.905 -0.893 12.53542 17.24699 -6.42056
 3.62 5.20 -0.803 -0.802 -0.798 -0.790 -0.778 12.66363 17.45122 -6.21640
 3.62 5.40 -0.689 -0.688 -0.684 -0.678 -0.668 12.79184 17.65738 -6.01033
 3.62 5.60 -0.580 -0.579 -0.576 -0.570 -0.561 12.92149 17.86610 -5.80165
 3.62 5.80 -0.477 -0.475 -0.473 -0.468 -0.460 13.05467 18.07809 -5.58965
 3.62 6.00 -0.379 -0.377 -0.375 -0.370 -0.363 13.19061 18.29292 -5.37479
 3.62 6.25 -0.266 -0.265 -0.262 -0.258 -0.251 13.36737 18.56715 -5.10057
 3.62 6.50 -0.164 -0.163 -0.161 -0.156 -0.149 13.54753 18.84261 -4.82507
 3.62 6.75 -0.073 -0.072 -0.069 -0.065 -0.058 13.73088 19.11888 -4.54872
 3.62 7.00  0.008  0.009  0.011  0.015  0.022 13.91424 19.39515 -4.27238
 3.62 7.25  0.078  0.079  0.081  0.086  0.093 14.09302 19.66731 -4.00022
 3.62 7.50  0.140  0.141  0.143  0.148  0.155 14.26717 19.93636 -3.73119
 3.62 7.75  0.192  0.194  0.196  0.201  0.208 14.43308 20.20178 -3.46576
 3.62 8.00  0.238  0.239  0.241  0.246  0.253 14.59195 20.46374 -3.20377
 3.64-2.00 -2.943 -2.941 -2.938 -2.934 -2.928  7.68287 10.21827-13.44940
 3.64-1.50 -3.143 -3.141 -3.139 -3.134 -3.127  7.94478 10.71867-12.94885
 3.64-1.00 -3.329 -3.326 -3.323 -3.317 -3.309  8.21085 11.21906-12.44855
 3.64-0.50 -3.491 -3.488 -3.484 -3.477 -3.467  8.48316 11.71917-11.94846
 3.64 0.00 -3.613 -3.610 -3.605 -3.597 -3.586  8.76678 12.21932-11.44831
 3.64 0.50 -3.666 -3.663 -3.656 -3.647 -3.632  9.07041 12.71933-10.94846
 3.64 1.00 -3.610 -3.606 -3.598 -3.586 -3.566  9.40671 13.21932-10.44818
 3.64 1.25 -3.531 -3.526 -3.518 -3.503 -3.481  9.59248 13.46933-10.19811
 3.64 1.50 -3.417 -3.411 -3.402 -3.385 -3.362  9.79014 13.71933 -9.94808
 3.64 1.75 -3.270 -3.263 -3.253 -3.234 -3.208 10.00153 13.96933 -9.69813
 3.64 2.00 -3.095 -3.089 -3.077 -3.057 -3.030 10.22167 14.21932 -9.44818
 3.64 2.25 -2.899 -2.892 -2.881 -2.859 -2.831 10.45123 14.46936 -9.19813
 3.64 2.50 -2.691 -2.685 -2.672 -2.651 -2.622 10.68079 14.71941 -8.94808
 3.64 2.75 -2.478 -2.471 -2.459 -2.438 -2.408 10.90992 14.96950 -8.69806
 3.64 3.00 -2.265 -2.257 -2.246 -2.224 -2.194 11.13830 15.21958 -8.44806
 3.64 3.20 -2.097 -2.090 -2.079 -2.057 -2.029 11.31529 15.41958 -8.24807
 3.64 3.40 -1.933 -1.926 -1.914 -1.895 -1.867 11.48800 15.61958 -8.04807
 3.64 3.60 -1.773 -1.766 -1.756 -1.736 -1.709 11.65595 15.81960 -7.84803
 3.64 3.80 -1.617 -1.612 -1.602 -1.583 -1.558 11.81839 16.01969 -7.64790
 3.64 4.00 -1.466 -1.461 -1.452 -1.434 -1.411 11.97557 16.21985 -7.44770
 3.64 4.20 -1.321 -1.316 -1.308 -1.293 -1.270 12.12680 16.42014 -7.24747
 3.64 4.40 -1.180 -1.176 -1.168 -1.155 -1.135 12.27299 16.62060 -7.04713
 3.64 4.60 -1.044 -1.040 -1.034 -1.022 -1.004 12.41379 16.82126 -6.84656
 3.64 4.80 -0.913 -0.910 -0.905 -0.893 -0.877 12.55041 17.02229 -6.64545
 3.64 5.00 -0.786 -0.783 -0.778 -0.769 -0.754 12.68359 17.22375 -6.44382
 3.64 5.20 -0.663 -0.660 -0.656 -0.648 -0.635 12.81257 17.42620 -6.24141
 3.64 5.40 -0.544 -0.541 -0.538 -0.531 -0.520 12.94155 17.62991 -6.03780
 3.64 5.60 -0.429 -0.428 -0.424 -0.418 -0.408 13.07054 17.83529 -5.83247
 3.64 5.80 -0.320 -0.319 -0.316 -0.310 -0.301 13.19962 18.04329 -5.62439
 3.64 6.00 -0.217 -0.216 -0.213 -0.208 -0.199 13.32879 18.25382 -5.41375
 3.64 6.25 -0.098 -0.097 -0.095 -0.089 -0.081 13.49553 18.52265 -5.14486
 3.64 6.50  0.010  0.011  0.013  0.019  0.026 13.66605 18.79525 -4.87225
 3.64 6.75  0.106  0.108  0.110  0.115  0.123 13.84258 19.07207 -4.59550
 3.64 7.00  0.192  0.193  0.197  0.201  0.208 14.01912 19.34889 -4.31876
 3.64 7.25  0.269  0.270  0.272  0.277  0.285 14.19551 19.62387 -4.04381
 3.64 7.50  0.336  0.336  0.340  0.345  0.352 14.37162 19.89686 -3.77083
 3.64 7.75  0.393  0.395  0.397  0.402  0.410 14.54029 20.16573 -3.50191
 3.64 8.00  0.443  0.444  0.447  0.452  0.460 14.70389 20.43120 -3.23635
 3.66-2.00 -2.605 -2.602 -2.599 -2.595 -2.588  8.02816 10.19645-13.47108
 3.66-1.50 -2.819 -2.818 -2.814 -2.808 -2.799  8.28578 10.69767-12.96981
 3.66-1.00 -3.021 -3.018 -3.015 -3.008 -2.999  8.54506 11.19838-12.46916
 3.66-0.50 -3.202 -3.200 -3.195 -3.188 -3.177  8.80733 11.69880-11.96859
 3.66 0.00 -3.350 -3.347 -3.342 -3.333 -3.320  9.07445 12.19921-11.46852
 3.66 0.50 -3.436 -3.432 -3.427 -3.416 -3.400  9.35025 12.69923-10.96859
 3.66 1.00 -3.425 -3.421 -3.414 -3.401 -3.383  9.64138 13.19921-10.46827
 3.66 1.25 -3.375 -3.371 -3.363 -3.349 -3.329  9.79622 13.44925-10.21820
 3.66 1.50 -3.294 -3.289 -3.280 -3.266 -3.244  9.95914 13.69932 -9.96819
 3.66 1.75 -3.182 -3.177 -3.168 -3.151 -3.127 10.13292 13.94940 -9.71823
 3.66 2.00 -3.042 -3.036 -3.026 -3.009 -2.984 10.31785 14.19948 -9.46827
 3.66 2.25 -2.875 -2.868 -2.858 -2.839 -2.813 10.51653 14.44940 -9.21823
 3.66 2.50 -2.688 -2.681 -2.669 -2.650 -2.624 10.72558 14.69932 -8.96819
 3.66 2.75 -2.484 -2.477 -2.465 -2.445 -2.418 10.94625 14.94940 -8.71816
 3.66 3.00 -2.270 -2.263 -2.252 -2.232 -2.204 11.16938 15.19948 -8.46814
 3.66 3.20 -2.097 -2.090 -2.079 -2.059 -2.031 11.34918 15.39945 -8.26816
 3.66 3.40 -1.924 -1.917 -1.906 -1.887 -1.859 11.52898 15.59942 -8.06818
 3.66 3.60 -1.753 -1.747 -1.736 -1.717 -1.689 11.70674 15.79947 -7.86815
 3.66 3.80 -1.585 -1.579 -1.569 -1.550 -1.525 11.87953 15.99960 -7.66804
 3.66 4.00 -1.421 -1.415 -1.405 -1.388 -1.363 12.04844 16.19976 -7.46788
 3.66 4.20 -1.262 -1.257 -1.248 -1.232 -1.209 12.21174 16.39991 -7.26772
 3.66 4.40 -1.107 -1.103 -1.095 -1.081 -1.059 12.36987 16.60009 -7.06751
 3.66 4.60 -0.959 -0.954 -0.948 -0.934 -0.914 12.52243 16.80039 -6.86719
 3.66 4.80 -0.816 -0.813 -0.806 -0.794 -0.776 12.66963 17.00101 -6.66659
 3.66 5.00 -0.678 -0.675 -0.670 -0.659 -0.643 12.81198 17.20194 -6.46572
 3.66 5.20 -0.546 -0.544 -0.539 -0.530 -0.515 12.94915 17.40335 -6.26426
 3.66 5.40 -0.419 -0.417 -0.413 -0.405 -0.391 13.08329 17.60552 -6.06201
 3.66 5.60 -0.297 -0.295 -0.292 -0.285 -0.273 13.21378 17.80874 -5.85875
 3.66 5.80 -0.181 -0.181 -0.178 -0.171 -0.160 13.34290 18.01386 -5.65367
 3.66 6.00 -0.072 -0.070 -0.067 -0.061 -0.051 13.47202 18.22089 -5.44672
 3.66 6.25  0.055  0.056  0.059  0.065  0.074 13.63419 18.48432 -5.18331
 3.66 6.50  0.171  0.173  0.175  0.181  0.190 13.79741 18.75220 -4.91542
 3.66 6.75  0.276  0.277  0.280  0.285  0.294 13.96503 19.02644 -4.64122
 3.66 7.00  0.368  0.369  0.372  0.377  0.386 14.13481 19.30190 -4.36572
 3.66 7.25  0.449  0.449  0.452  0.458  0.466 14.30691 19.57816 -4.08938
 3.66 7.50  0.519  0.520  0.523  0.529  0.537 14.47900 19.85443 -3.81304
 3.66 7.75  0.580  0.581  0.584  0.590  0.599 14.64709 20.12653 -3.54093
 3.66 8.00  0.633  0.635  0.637  0.643  0.652 14.81251 20.39585 -3.27165
 3.68-2.00 -2.266 -2.264 -2.261 -2.256 -2.247  8.36078 10.17290-13.49471
 3.68-1.50 -2.490 -2.488 -2.484 -2.478 -2.469  8.61679 10.67569-12.99183
 3.68-1.00 -2.704 -2.701 -2.697 -2.690 -2.680  8.87321 11.17725-12.49026
 3.68-0.50 -2.900 -2.897 -2.892 -2.884 -2.872  9.13098 11.67815-11.98928
 3.68 0.00 -3.065 -3.062 -3.056 -3.046 -3.032  9.39058 12.17869-11.48879
 3.68 0.50 -3.173 -3.169 -3.162 -3.151 -3.135  9.65408 12.67897-10.98843
 3.68 1.00 -3.189 -3.184 -3.177 -3.164 -3.145  9.92438 13.17927-10.48838
 3.68 1.25 -3.156 -3.151 -3.143 -3.128 -3.108 10.06366 13.42926-10.23841
 3.68 1.50 -3.095 -3.090 -3.082 -3.065 -3.043 10.20683 13.67925 -9.98843
 3.68 1.75 -3.008 -3.002 -2.993 -2.977 -2.954 10.35555 13.92925 -9.73834
 3.68 2.00 -2.898 -2.891 -2.882 -2.864 -2.840 10.51095 14.17927 -9.48825
 3.68 2.25 -2.764 -2.758 -2.747 -2.729 -2.704 10.67537 14.42929 -9.23834
 3.68 2.50 -2.611 -2.605 -2.594 -2.576 -2.550 10.84973 14.67934 -8.98843
 3.68 2.75 -2.439 -2.432 -2.421 -2.402 -2.376 11.03697 14.92945 -8.73827
 3.68 3.00 -2.251 -2.244 -2.233 -2.213 -2.187 11.23502 15.17955 -8.48812
 3.68 3.20 -2.089 -2.083 -2.071 -2.051 -2.024 11.40303 15.37950 -8.28806
 3.68 3.40 -1.922 -1.915 -1.905 -1.885 -1.858 11.57410 15.57945 -8.08802
 3.68 3.60 -1.751 -1.745 -1.734 -1.714 -1.688 11.74841 15.77944 -7.88800
 3.68 3.80 -1.579 -1.572 -1.561 -1.543 -1.516 11.92370 15.97948 -7.68799
 3.68 4.00 -1.407 -1.401 -1.390 -1.372 -1.347 12.09899 16.17955 -7.48798
 3.68 4.20 -1.237 -1.232 -1.223 -1.206 -1.181 12.27035 16.37964 -7.28788
 3.68 4.40 -1.072 -1.066 -1.058 -1.042 -1.019 12.43837 16.57979 -7.08770
 3.68 4.60 -0.910 -0.906 -0.898 -0.883 -0.862 12.60215 16.78002 -6.88747
 3.68 4.80 -0.754 -0.751 -0.743 -0.730 -0.711 12.76046 16.98041 -6.68712
 3.68 5.00 -0.604 -0.600 -0.595 -0.582 -0.564 12.91381 17.18099 -6.48665
 3.68 5.20 -0.460 -0.457 -0.452 -0.442 -0.425 13.06129 17.38183 -6.28586
 3.68 5.40 -0.321 -0.319 -0.315 -0.305 -0.290 13.20419 17.58313 -6.08460
 3.68 5.60 -0.190 -0.188 -0.184 -0.176 -0.162 13.34208 17.78503 -5.88270
 3.68 5.80 -0.066 -0.064 -0.060 -0.053 -0.041 13.47657 17.98816 -5.67949
 3.68 6.00  0.052  0.054  0.057  0.064  0.075 13.60863 18.19257 -5.47496
 3.68 6.25  0.189  0.191  0.194  0.201  0.211 13.77058 18.45164 -5.21584
 3.68 6.50  0.316  0.317  0.320  0.326  0.336 13.93252 18.71475 -4.95272
 3.68 6.75  0.429  0.432  0.434  0.440  0.451 14.09564 18.98405 -4.68353
 3.68 7.00  0.530  0.532  0.535  0.541  0.550 14.25983 19.25696 -4.41072
 3.68 7.25  0.617  0.619  0.622  0.628  0.637 14.42639 19.53370 -4.13401
 3.68 7.50  0.692  0.694  0.697  0.704  0.713 14.59295 19.81043 -3.85730
 3.68 7.75  0.757  0.758  0.761  0.767  0.777 14.75785 20.08500 -3.58268
 3.68 8.00  0.812  0.813  0.817  0.823  0.833 14.92163 20.35813 -3.30945
 3.70-2.00 -1.933 -1.931 -1.928 -1.922 -1.914  8.67743 10.14489-13.52273
 3.70-1.50 -2.162 -2.160 -2.157 -2.151 -2.141  8.93576 10.65108-13.01651
 3.70-1.00 -2.384 -2.381 -2.377 -2.369 -2.358  9.19201 11.15473-12.51286
 3.70-0.50 -2.589 -2.586 -2.582 -2.573 -2.561  9.44778 11.65667-12.01091
 3.70 0.00 -2.768 -2.765 -2.759 -2.748 -2.734  9.70432 12.15776-11.50976
 3.70 0.50 -2.893 -2.889 -2.882 -2.870 -2.852  9.96232 12.65849-11.00908
 3.70 1.00 -2.930 -2.924 -2.917 -2.901 -2.882 10.22324 13.15897-10.50864
 3.70 1.25 -2.906 -2.901 -2.892 -2.877 -2.855 10.35551 13.40901-10.25857
 3.70 1.50 -2.858 -2.852 -2.842 -2.826 -2.803 10.48954 13.65906-10.00851
 3.70 1.75 -2.783 -2.778 -2.768 -2.751 -2.727 10.62609 13.90916 -9.75843
 3.70 2.00 -2.690 -2.684 -2.673 -2.655 -2.630 10.76582 14.15927 -9.50836
 3.70 2.25 -2.578 -2.572 -2.561 -2.543 -2.516 10.90994 14.40926 -9.25835
 3.70 2.50 -2.451 -2.445 -2.434 -2.414 -2.388 11.05956 14.65925 -9.00833
 3.70 2.75 -2.310 -2.303 -2.292 -2.273 -2.246 11.21700 14.90925 -8.75828
 3.70 3.00 -2.155 -2.148 -2.137 -2.117 -2.090 11.38310 15.15927 -8.50822
 3.70 3.20 -2.020 -2.013 -2.002 -1.981 -1.954 11.52408 15.35929 -8.30823
 3.70 3.40 -1.876 -1.869 -1.858 -1.837 -1.810 11.67172 15.55932 -8.10824
 3.70 3.60 -1.724 -1.717 -1.706 -1.685 -1.658 11.82739 15.75939 -7.90821
 3.70 3.80 -1.563 -1.556 -1.546 -1.526 -1.499 11.98907 15.95948 -7.70814
 3.70 4.00 -1.398 -1.391 -1.381 -1.362 -1.336 12.15473 16.15957 -7.50808
 3.70 4.20 -1.229 -1.222 -1.212 -1.194 -1.168 12.32448 16.35959 -7.30804
 3.70 4.40 -1.058 -1.053 -1.043 -1.026 -1.002 12.49422 16.55962 -7.10800
 3.70 4.60 -0.890 -0.885 -0.877 -0.860 -0.837 12.66293 16.75968 -6.90792
 3.70 4.80 -0.724 -0.719 -0.712 -0.697 -0.676 12.82860 16.95987 -6.70770
 3.70 5.00 -0.561 -0.558 -0.551 -0.538 -0.518 12.99163 17.16017 -6.50738
 3.70 5.20 -0.405 -0.403 -0.396 -0.384 -0.366 13.14907 17.36070 -6.30686
 3.70 5.40 -0.254 -0.252 -0.247 -0.236 -0.220 13.30190 17.56155 -6.10603
 3.70 5.60 -0.111 -0.109 -0.104 -0.095 -0.080 13.44957 17.76278 -5.90483
 3.70 5.80  0.024  0.025  0.030  0.037  0.051 13.59247 17.96478 -5.70285
 3.70 6.00  0.152  0.154  0.157  0.165  0.178 13.73127 18.16761 -5.50004
 3.70 6.25  0.301  0.302  0.306  0.313  0.326 13.89892 18.42348 -5.24410
 3.70 6.50  0.438  0.440  0.443  0.451  0.462 14.06371 18.68242 -4.98506
 3.70 6.75  0.563  0.566  0.568  0.576  0.587 14.22608 18.94667 -4.72086
 3.70 7.00  0.676  0.678  0.681  0.687  0.698 14.38846 19.21537 -4.45223
 3.70 7.25  0.772  0.773  0.776  0.784  0.795 14.55110 19.49019 -4.17735
 3.70 7.50  0.854  0.857  0.859  0.866  0.877 14.71374 19.76582 -3.90170
 3.70 7.75  0.923  0.924  0.928  0.935  0.946 14.87504 20.04172 -3.62581
 3.70 8.00  0.981  0.983  0.986  0.993  1.004 15.03543 20.31806 -3.34950
 3.73-2.00 -1.451 -1.449 -1.446 -1.440 -1.431  9.10653 10.08636-13.58137
 3.73-1.50 -1.682 -1.680 -1.677 -1.670 -1.660  9.37803 10.60444-13.06318
 3.73-1.00 -1.908 -1.905 -1.901 -1.894 -1.882  9.64088 11.11528-12.55238
 3.73-0.50 -2.122 -2.118 -2.114 -2.105 -2.093  9.89900 11.62128-12.04634
 3.73 0.00 -2.312 -2.309 -2.303 -2.293 -2.277 10.15503 12.12483-11.54272
 3.73 0.50 -2.456 -2.452 -2.444 -2.432 -2.413 10.41044 12.62675-11.04082
 3.73 1.00 -2.517 -2.511 -2.503 -2.487 -2.466 10.66614 13.12808-10.53970
 3.73 1.25 -2.507 -2.502 -2.492 -2.476 -2.452 10.79448 13.37835-10.28931
 3.73 1.50 -2.470 -2.464 -2.454 -2.438 -2.412 10.92330 13.62859-10.03901
 3.73 1.75 -2.410 -2.404 -2.393 -2.375 -2.349 11.05281 13.87883 -9.78880
 3.73 2.00 -2.331 -2.324 -2.313 -2.295 -2.268 11.18327 14.12905 -9.53865
 3.73 2.25 -2.235 -2.229 -2.217 -2.199 -2.171 11.31522 14.37908 -9.28853
 3.73 2.50 -2.129 -2.122 -2.110 -2.090 -2.063 11.44902 14.62910 -9.03844
 3.73 2.75 -2.011 -2.005 -1.993 -1.973 -1.945 11.58542 14.87924 -8.78839
 3.73 3.00 -1.887 -1.880 -1.868 -1.848 -1.819 11.72509 15.12937 -8.53835
 3.73 3.20 -1.780 -1.773 -1.762 -1.741 -1.712 11.84005 15.32934 -8.33831
 3.73 3.40 -1.668 -1.661 -1.650 -1.629 -1.600 11.95854 15.52932 -8.13827
 3.73 3.60 -1.550 -1.543 -1.532 -1.512 -1.483 12.08108 15.72931 -7.93824
 3.73 3.80 -1.425 -1.419 -1.408 -1.387 -1.358 12.20893 15.92933 -7.73822
 3.73 4.00 -1.294 -1.288 -1.276 -1.256 -1.227 12.34203 16.12937 -7.53820
 3.73 4.20 -1.153 -1.147 -1.137 -1.116 -1.089 12.48216 16.32942 -7.33817
 3.73 4.40 -1.006 -0.999 -0.990 -0.970 -0.944 12.62789 16.52948 -7.13813
 3.73 4.60 -0.851 -0.845 -0.836 -0.818 -0.793 12.78066 16.72954 -6.93806
 3.73 4.80 -0.691 -0.686 -0.678 -0.661 -0.636 12.93757 16.92961 -6.73793
 3.73 5.00 -0.528 -0.523 -0.516 -0.500 -0.478 13.09621 17.12969 -6.53775
 3.73 5.20 -0.364 -0.361 -0.354 -0.340 -0.319 13.25617 17.32997 -6.33751
 3.73 5.40 -0.201 -0.199 -0.193 -0.181 -0.162 13.41612 17.53043 -6.13715
 3.73 5.60 -0.044 -0.042 -0.037 -0.027 -0.008 13.57442 17.73109 -5.93659
 3.73 5.80  0.106  0.108  0.112  0.123  0.139 13.72863 17.93210 -5.73561
 3.73 6.00  0.252  0.255  0.258  0.267  0.282 13.87961 18.13354 -5.53417
 3.73 6.25  0.419  0.422  0.425  0.434  0.449 14.06116 18.38655 -5.28114
 3.73 6.50  0.577  0.579  0.583  0.592  0.605 14.23679 18.64137 -5.02627
 3.73 6.75  0.721  0.723  0.727  0.735  0.749 14.40654 18.89975 -4.76790
 3.73 7.00  0.853  0.854  0.859  0.867  0.880 14.57252 19.16197 -4.50571
 3.73 7.25  0.968  0.970  0.974  0.981  0.994 14.73584 19.43002 -4.23773
 3.73 7.50  1.067  1.069  1.072  1.081  1.093 14.89664 19.70200 -3.96577
 3.73 7.75  1.148  1.150  1.153  1.162  1.175 15.05538 19.97698 -3.69072
 3.73 8.00  1.215  1.217  1.220  1.229  1.241 15.21192 20.25527 -3.41229
 3.76-2.00 -1.011 -1.009 -1.006 -1.000 -0.990  9.44979  9.98945-13.67819
 3.76-1.50 -1.227 -1.225 -1.222 -1.215 -1.204  9.75937 10.53173-13.13585
 3.76-1.00 -1.447 -1.444 -1.441 -1.434 -1.422 10.04376 11.05956-12.60801
 3.76-0.50 -1.658 -1.656 -1.652 -1.644 -1.631 10.31366 11.57634-12.09125
 3.76 0.00 -1.852 -1.849 -1.843 -1.834 -1.819 10.57542 12.08636-11.58137
 3.76 0.50 -2.003 -2.000 -1.993 -1.981 -1.964 10.83302 12.59196-11.07567
 3.76 1.00 -2.082 -2.077 -2.069 -2.055 -2.033 11.08849 13.09517-10.57235
 3.76 1.25 -2.085 -2.080 -2.070 -2.055 -2.031 11.21605 13.34624-10.32135
 3.76 1.50 -2.062 -2.056 -2.046 -2.029 -2.004 11.34361 13.59704-10.07058
 3.76 1.75 -2.013 -2.008 -1.998 -1.980 -1.954 11.47121 13.84753 -9.81993
 3.76 2.00 -1.947 -1.941 -1.930 -1.911 -1.885 11.59890 14.09795 -9.56944
 3.76 2.25 -1.863 -1.857 -1.846 -1.827 -1.800 11.72704 14.34835 -9.31916
 3.76 2.50 -1.769 -1.763 -1.751 -1.732 -1.704 11.85570 14.59868 -9.06895
 3.76 2.75 -1.664 -1.658 -1.648 -1.628 -1.599 11.98528 14.84887 -8.81878
 3.76 3.00 -1.554 -1.548 -1.536 -1.516 -1.488 12.11594 15.09899 -8.56864
 3.76 3.20 -1.461 -1.454 -1.443 -1.423 -1.395 12.22150 15.29904 -8.36855
 3.76 3.40 -1.365 -1.359 -1.347 -1.326 -1.298 12.32832 15.49909 -8.16847
 3.76 3.60 -1.265 -1.258 -1.247 -1.227 -1.197 12.43659 15.69916 -7.96842
 3.76 3.80 -1.161 -1.155 -1.144 -1.123 -1.094 12.54708 15.89925 -7.76837
 3.76 4.00 -1.054 -1.048 -1.037 -1.016 -0.988 12.65982 16.09934 -7.56832
 3.76 4.20 -0.941 -0.935 -0.924 -0.903 -0.875 12.77561 16.29934 -7.36827
 3.76 4.40 -0.824 -0.817 -0.807 -0.788 -0.758 12.89496 16.49934 -7.16821
 3.76 4.60 -0.699 -0.694 -0.684 -0.665 -0.637 13.01844 16.69941 -6.96816
 3.76 4.80 -0.568 -0.563 -0.554 -0.536 -0.510 13.14692 16.89954 -6.76808
 3.76 5.00 -0.432 -0.428 -0.419 -0.402 -0.377 13.28012 17.09968 -6.56799
 3.76 5.20 -0.288 -0.284 -0.276 -0.260 -0.237 13.41939 17.29981 -6.36787
 3.76 5.40 -0.138 -0.135 -0.128 -0.115 -0.093 13.56250 17.49993 -6.16769
 3.76 5.60  0.013  0.015  0.021  0.033  0.053 13.71045 17.70015 -5.96742
 3.76 5.80  0.163  0.167  0.171  0.183  0.201 13.86037 17.90065 -5.76694
 3.76 6.00  0.316  0.317  0.322  0.333  0.350 14.01030 18.10140 -5.56623
 3.76 6.25  0.494  0.496  0.501  0.511  0.528 14.19693 18.35296 -5.31467
 3.76 6.50  0.668  0.669  0.674  0.684  0.701 14.38238 18.60552 -5.06208
 3.76 6.75  0.829  0.832  0.836  0.845  0.862 14.56178 18.86011 -4.80751
 3.76 7.00  0.982  0.984  0.988  0.997  1.013 14.73648 19.11727 -4.55037
 3.76 7.25  1.117  1.119  1.123  1.132  1.148 14.90587 19.37892 -4.28872
 3.76 7.50  1.237  1.239  1.243  1.253  1.267 15.07078 19.64493 -4.02269
 3.76 7.75  1.337  1.339  1.344  1.353  1.368 15.23176 19.91604 -3.75157
 3.76 8.00  1.421  1.423  1.426  1.436  1.451 15.38863 20.19201 -3.47560
 3.79-2.00 -0.685 -0.684 -0.681 -0.674 -0.663  9.64856  9.86255-13.80493
 3.79-1.50 -0.834 -0.832 -0.829 -0.822 -0.811 10.03623 10.41913-13.24857
 3.79-1.00 -1.019 -1.017 -1.013 -1.007 -0.995 10.37383 10.97183-12.69573
 3.79-0.50 -1.213 -1.211 -1.207 -1.199 -1.187 10.67550 11.51014-12.15745
 3.79 0.00 -1.395 -1.392 -1.388 -1.379 -1.365 10.95535 12.03463-11.63283
 3.79 0.50 -1.543 -1.540 -1.535 -1.524 -1.507 11.22272 12.54937-11.11816
 3.79 1.00 -1.630 -1.626 -1.619 -1.606 -1.586 11.48302 13.05805-10.60960
 3.79 1.25 -1.641 -1.638 -1.630 -1.615 -1.594 11.61166 13.31081-10.35681
 3.79 1.50 -1.631 -1.626 -1.618 -1.602 -1.579 11.73973 13.56289-10.10469
 3.79 1.75 -1.597 -1.592 -1.583 -1.566 -1.543 11.86735 13.81441 -9.85310
 3.79 2.00 -1.543 -1.539 -1.529 -1.512 -1.487 11.99480 14.06558 -9.60189
 3.79 2.25 -1.474 -1.468 -1.459 -1.441 -1.415 12.12212 14.31653 -9.35099
 3.79 2.50 -1.391 -1.385 -1.376 -1.359 -1.332 12.24944 14.56726 -9.10029
 3.79 2.75 -1.299 -1.293 -1.284 -1.266 -1.239 12.37692 14.81779 -8.84972
 3.79 3.00 -1.199 -1.194 -1.184 -1.166 -1.139 12.50461 15.06819 -8.59929
 3.79 3.20 -1.116 -1.110 -1.100 -1.082 -1.054 12.60711 15.26842 -8.39909
 3.79 3.40 -1.030 -1.024 -1.013 -0.995 -0.967 12.71002 15.46860 -8.19893
 3.79 3.60 -0.940 -0.934 -0.924 -0.905 -0.877 12.81345 15.66873 -7.99881
 3.79 3.80 -0.847 -0.842 -0.831 -0.812 -0.784 12.91773 15.86883 -7.79870
 3.79 4.00 -0.753 -0.748 -0.737 -0.717 -0.689 13.02284 16.06893 -7.59860
 3.79 4.20 -0.655 -0.650 -0.639 -0.620 -0.591 13.12901 16.26902 -7.39850
 3.79 4.40 -0.554 -0.549 -0.538 -0.518 -0.490 13.23660 16.46910 -7.19842
 3.79 4.60 -0.449 -0.443 -0.434 -0.414 -0.387 13.34583 16.66917 -6.99835
 3.79 4.80 -0.339 -0.335 -0.325 -0.307 -0.279 13.45746 16.86924 -6.79830
 3.79 5.00 -0.226 -0.222 -0.213 -0.196 -0.169 13.57148 17.06930 -6.59826
 3.79 5.20 -0.106 -0.102 -0.094 -0.078 -0.053 13.68869 17.26940 -6.39818
 3.79 5.40  0.016  0.021  0.027  0.043  0.066 13.80930 17.46953 -6.19807
 3.79 5.60  0.145  0.148  0.154  0.168  0.190 13.93380 17.66971 -5.99790
 3.79 5.80  0.278  0.280  0.285  0.298  0.318 14.06235 17.87000 -5.79762
 3.79 6.00  0.413  0.415  0.421  0.432  0.451 14.19452 18.07041 -5.59722
 3.79 6.25  0.580  0.582  0.587  0.597  0.617 14.36555 18.32122 -5.34643
 3.79 6.50  0.748  0.750  0.755  0.766  0.785 14.53920 18.57253 -5.09512
 3.79 6.75  0.914  0.916  0.921  0.932  0.949 14.71504 18.82492 -4.84268
 3.79 7.00  1.076  1.078  1.083  1.093  1.111 14.89087 19.07882 -4.58872
 3.79 7.25  1.227  1.229  1.233  1.243  1.261 15.06358 19.33562 -4.33193
 3.79 7.50  1.366  1.368  1.373  1.383  1.401 15.23325 19.59583 -4.07176
 3.79 7.75  1.488  1.490  1.494  1.504  1.521 15.39787 19.86138 -3.80616
 3.79 8.00  1.591  1.593  1.597  1.608  1.624 15.55811 20.13162 -3.53581
 3.82-2.00 -0.549 -0.547 -0.544 -0.536 -0.523  9.69819  9.77568-13.89177
 3.82-1.50 -0.592 -0.590 -0.587 -0.579 -0.566 10.16227 10.30341-13.36411
 3.82-1.00 -0.683 -0.681 -0.677 -0.669 -0.656 10.58377 10.85248-12.81503
 3.82-0.50 -0.816 -0.814 -0.809 -0.801 -0.789 10.95182 11.40976-12.25790
 3.82 0.00 -0.961 -0.959 -0.954 -0.946 -0.933 11.27439 11.95765-11.70997
 3.82 0.50 -1.088 -1.085 -1.080 -1.071 -1.056 11.56679 12.49052-11.17705
 3.82 1.00 -1.168 -1.165 -1.160 -1.148 -1.131 11.84117 13.01115-10.65659
 3.82 1.25 -1.184 -1.181 -1.174 -1.161 -1.143 11.97425 13.26790-10.39974
 3.82 1.50 -1.181 -1.177 -1.171 -1.157 -1.137 12.10551 13.52310-10.14448
 3.82 1.75 -1.159 -1.155 -1.148 -1.133 -1.112 12.23532 13.77712 -9.89053
 3.82 2.00 -1.120 -1.115 -1.108 -1.092 -1.071 12.36418 14.03020 -9.63752
 3.82 2.25 -1.065 -1.060 -1.053 -1.036 -1.013 12.49226 14.28243 -9.38523
 3.82 2.50 -0.997 -0.993 -0.984 -0.969 -0.944 12.61993 14.53415 -9.13348
 3.82 2.75 -0.919 -0.914 -0.905 -0.889 -0.865 12.74721 14.78557 -8.88215
 3.82 3.00 -0.832 -0.827 -0.819 -0.802 -0.778 12.87448 15.03663 -8.63116
 3.82 3.20 -0.758 -0.753 -0.745 -0.727 -0.703 12.97631 15.23709 -8.43057
 3.82 3.40 -0.681 -0.676 -0.667 -0.650 -0.625 13.07813 15.43750 -8.23009
 3.82 3.60 -0.600 -0.595 -0.587 -0.569 -0.544 13.18001 15.63790 -8.02970
 3.82 3.80 -0.517 -0.512 -0.502 -0.485 -0.459 13.28209 15.83828 -7.82938
 3.82 4.00 -0.431 -0.427 -0.417 -0.400 -0.373 13.38435 16.03862 -7.62912
 3.82 4.20 -0.343 -0.339 -0.329 -0.311 -0.284 13.48717 16.23870 -7.42895
 3.82 4.40 -0.252 -0.248 -0.239 -0.220 -0.194 13.59056 16.43879 -7.22879
 3.82 4.60 -0.159 -0.155 -0.146 -0.127 -0.100 13.69458 16.63886 -7.02864
 3.82 4.80 -0.062 -0.058 -0.049 -0.031 -0.005 13.79953 16.83894 -6.82850
 3.82 5.00  0.036  0.041  0.049  0.067  0.093 13.90547 17.03902 -6.62838
 3.82 5.20  0.141  0.145  0.152  0.169  0.194 14.01275 17.23913 -6.42833
 3.82 5.40  0.248  0.252  0.258  0.274  0.298 14.12163 17.43925 -6.22828
 3.82 5.60  0.359  0.362  0.368  0.382  0.405 14.23232 17.63940 -6.02820
 3.82 5.80  0.472  0.475  0.481  0.494  0.515 14.34536 17.83959 -5.82805
 3.82 6.00  0.589  0.592  0.597  0.609  0.629 14.46075 18.03981 -5.62783
 3.82 6.25  0.733  0.735  0.740  0.752  0.771 14.60911 18.29021 -5.37741
 3.82 6.50  0.881  0.883  0.888  0.899  0.919 14.76170 18.54083 -5.12674
 3.82 6.75  1.031  1.033  1.038  1.049  1.069 14.91919 18.79207 -4.87549
 3.82 7.00  1.183  1.185  1.190  1.201  1.220 15.07954 19.04415 -4.62342
 3.82 7.25  1.332  1.335  1.339  1.351  1.370 15.24279 19.29782 -4.36974
 3.82 7.50  1.478  1.480  1.485  1.496  1.514 15.40603 19.55364 -4.11390
 3.82 7.75  1.612  1.614  1.619  1.629  1.648 15.56750 19.81372 -3.85384
 3.82 8.00  1.733  1.735  1.740  1.750  1.768 15.72779 20.07737 -3.59024
 3.85-2.00 -0.520 -0.518 -0.514 -0.505 -0.492  9.68458  9.73151-13.93629
 3.85-1.50 -0.515 -0.513 -0.508 -0.499 -0.484 10.17696 10.23805-13.42946
 3.85-1.00 -0.518 -0.515 -0.511 -0.502 -0.487 10.65543 10.75610-12.91151
 3.85-0.50 -0.543 -0.541 -0.536 -0.528 -0.513 11.10209 11.29403-12.37346
 3.85 0.00 -0.599 -0.597 -0.593 -0.585 -0.572 11.49872 11.84948-11.81816
 3.85 0.50 -0.668 -0.666 -0.661 -0.653 -0.640 11.84373 12.40398-11.26368
 3.85 1.00 -0.717 -0.715 -0.710 -0.701 -0.685 12.15045 12.94488-10.72262
 3.85 1.25 -0.727 -0.724 -0.719 -0.709 -0.692 12.29397 13.20967-10.45790
 3.85 1.50 -0.724 -0.720 -0.715 -0.704 -0.687 12.43313 13.47144-10.19620
 3.85 1.75 -0.707 -0.704 -0.698 -0.687 -0.668 12.56884 13.73051 -9.93711
 3.85 2.00 -0.678 -0.674 -0.668 -0.655 -0.637 12.70209 13.98753 -9.68006
 3.85 2.25 -0.636 -0.632 -0.626 -0.613 -0.593 12.83338 14.24287 -9.42477
 3.85 2.50 -0.583 -0.579 -0.572 -0.559 -0.538 12.96332 14.49693 -9.17070
 3.85 2.75 -0.519 -0.516 -0.508 -0.494 -0.474 13.09219 14.74988 -8.91753
 3.85 3.00 -0.447 -0.444 -0.437 -0.423 -0.401 13.22037 15.00217 -8.66514
 3.85 3.20 -0.385 -0.382 -0.374 -0.359 -0.338 13.32250 15.20366 -8.46379
 3.85 3.40 -0.319 -0.315 -0.307 -0.292 -0.270 13.42447 15.40490 -8.26269
 3.85 3.60 -0.248 -0.244 -0.236 -0.221 -0.199 13.52623 15.60590 -8.06177
 3.85 3.80 -0.175 -0.171 -0.163 -0.148 -0.124 13.62794 15.80671 -7.86098
 3.85 4.00 -0.100 -0.095 -0.087 -0.071 -0.047 13.72965 16.00732 -7.66035
 3.85 4.20 -0.020 -0.016 -0.008  0.008  0.032 13.83147 16.20770 -7.45995
 3.85 4.40  0.060  0.064  0.073  0.089  0.114 13.93342 16.40800 -7.25961
 3.85 4.60  0.145  0.148  0.156  0.174  0.199 14.03553 16.60822 -7.05930
 3.85 4.80  0.231  0.235  0.243  0.260  0.285 14.13799 16.80841 -6.85901
 3.85 5.00  0.321  0.324  0.332  0.349  0.373 14.24080 17.00860 -6.65876
 3.85 5.20  0.414  0.418  0.424  0.440  0.465 14.34426 17.20879 -6.45866
 3.85 5.40  0.510  0.513  0.520  0.535  0.558 14.44843 17.40898 -6.25857
 3.85 5.60  0.609  0.612  0.618  0.632  0.655 14.55339 17.60915 -6.05846
 3.85 5.80  0.710  0.712  0.719  0.731  0.753 14.65942 17.80930 -5.85833
 3.85 6.00  0.814  0.816  0.821  0.834  0.854 14.76656 18.00945 -5.65817
 3.85 6.25  0.942  0.944  0.949  0.961  0.980 14.90254 18.25969 -5.40792
 3.85 6.50  1.072  1.074  1.079  1.091  1.111 15.04100 18.51001 -5.15758
 3.85 6.75  1.205  1.207  1.211  1.223  1.243 15.18259 18.76060 -4.90698
 3.85 7.00  1.340  1.342  1.346  1.358  1.378 15.32695 19.01157 -4.65600
 3.85 7.25  1.477  1.480  1.484  1.495  1.515 15.47445 19.26340 -4.40416
 3.85 7.50  1.615  1.617  1.622  1.632  1.651 15.62356 19.51640 -4.15113
 3.85 7.75  1.747  1.749  1.753  1.765  1.783 15.77358 19.77203 -3.89556
 3.85 8.00  1.873  1.875  1.880  1.891  1.908 15.92474 20.02979 -3.63789
 3.88-2.00 -0.521 -0.518 -0.515 -0.507 -0.494  9.65753  9.69880-13.96900
 3.88-1.50 -0.505 -0.502 -0.498 -0.488 -0.472 10.15594 10.20003-13.46750
 3.88-1.00 -0.479 -0.477 -0.472 -0.461 -0.443 10.65138 10.70424-12.96337
 3.88-0.50 -0.440 -0.438 -0.433 -0.422 -0.405 11.13767 11.21590-12.45161
 3.88 0.00 -0.392 -0.391 -0.386 -0.376 -0.362 11.60097 11.74445-11.92300
 3.88 0.50 -0.352 -0.350 -0.346 -0.338 -0.323 12.02119 12.29381-11.37387
 3.88 1.00 -0.324 -0.321 -0.317 -0.308 -0.294 12.38828 12.85095-10.81673
 3.88 1.25 -0.308 -0.306 -0.301 -0.293 -0.278 12.55364 13.12617-10.54144
 3.88 1.50 -0.289 -0.286 -0.282 -0.272 -0.257 12.71003 13.39846-10.26906
 3.88 1.75 -0.265 -0.262 -0.257 -0.248 -0.233 12.85890 13.66650-10.00100
 3.88 2.00 -0.234 -0.232 -0.227 -0.216 -0.200 13.00217 13.93115 -9.73636
 3.88 2.25 -0.197 -0.196 -0.190 -0.179 -0.162 13.14081 14.19247 -9.47507
 3.88 2.50 -0.154 -0.152 -0.146 -0.134 -0.117 13.27623 14.45133 -9.21624
 3.88 2.75 -0.103 -0.101 -0.095 -0.083 -0.065 13.40917 14.70813 -8.95944
 3.88 3.00 -0.046 -0.043 -0.037 -0.025 -0.007 13.54033 14.96336 -8.70421
 3.88 3.20  0.004  0.007  0.014  0.025  0.045 13.64423 15.16657 -8.50103
 3.88 3.40  0.058  0.062  0.068  0.081  0.100 13.74751 15.36918 -8.29844
 3.88 3.60  0.117  0.120  0.127  0.140  0.160 13.85019 15.57124 -8.09638
 3.88 3.80  0.179  0.183  0.189  0.203  0.223 13.95253 15.77291 -7.89469
 3.88 4.00  0.244  0.248  0.254  0.269  0.289 14.05461 15.97424 -7.69336
 3.88 4.20  0.312  0.316  0.323  0.337  0.359 14.15645 16.17523 -7.49236
 3.88 4.40  0.383  0.387  0.394  0.409  0.431 14.25829 16.37605 -7.29153
 3.88 4.60  0.458  0.461  0.468  0.483  0.505 14.36013 16.57673 -7.09083
 3.88 4.80  0.535  0.538  0.546  0.560  0.583 14.46198 16.77731 -6.89022
 3.88 5.00  0.614  0.617  0.624  0.640  0.663 14.56384 16.97777 -6.68973
 3.88 5.20  0.697  0.701  0.707  0.722  0.744 14.66595 17.17806 -6.48949
 3.88 5.40  0.783  0.785  0.792  0.807  0.829 14.76833 17.37831 -6.28927
 3.88 5.60  0.871  0.874  0.880  0.893  0.915 14.87105 17.57854 -6.08906
 3.88 5.80  0.962  0.965  0.971  0.984  1.005 14.97432 17.77875 -5.88886
 3.88 6.00  1.057  1.059  1.064  1.076  1.096 15.07809 17.97896 -5.68867
 3.88 6.25  1.173  1.175  1.180  1.191  1.211 15.20867 18.22919 -5.43845
 3.88 6.50  1.293  1.294  1.299  1.310  1.329 15.34044 18.47943 -5.18822
 3.88 6.75  1.411  1.414  1.418  1.430  1.449 15.47393 18.72975 -4.93789
 3.88 7.00  1.535  1.536  1.541  1.552  1.571 15.60906 18.98019 -4.68740
 3.88 7.25  1.659  1.661  1.666  1.677  1.696 15.74617 19.23099 -4.43659
 3.88 7.50  1.786  1.788  1.793  1.803  1.822 15.88463 19.48230 -4.18529
 3.88 7.75  1.911  1.914  1.918  1.929  1.947 16.02408 19.73490 -3.93267
 3.88 8.00  2.036  2.038  2.043  2.053  2.071 16.16465 19.98851 -3.67902
 3.91-2.00 -0.526 -0.525 -0.522 -0.515 -0.504  9.62808  9.66829-13.99913
 3.91-1.50 -0.512 -0.510 -0.505 -0.497 -0.482 10.12775 10.16850-13.49908
 3.91-1.00 -0.484 -0.481 -0.476 -0.465 -0.447 10.62675 10.66950-12.99827
 3.91-0.50 -0.431 -0.428 -0.422 -0.410 -0.390 11.12353 11.17231-12.49539
 3.91 0.00 -0.340 -0.337 -0.332 -0.319 -0.301 11.61426 11.68052-11.98716
 3.91 0.50 -0.211 -0.209 -0.204 -0.192 -0.176 12.08778 12.20194-11.46572
 3.91 1.00 -0.064 -0.062 -0.058 -0.048 -0.033 12.52556 12.74437-10.92336
 3.91 1.25  0.003  0.005  0.009  0.019  0.033 12.72483 13.02270-10.64495
 3.91 1.50  0.065  0.068  0.072  0.081  0.095 12.91143 13.30103-10.36653
 3.91 1.75  0.120  0.122  0.127  0.135  0.150 13.08474 13.57804-10.08950
 3.91 2.00  0.171  0.173  0.178  0.186  0.201 13.24773 13.85339 -9.81418
 3.91 2.25  0.218  0.220  0.225  0.234  0.248 13.40152 14.12401 -9.54356
 3.91 2.50  0.265  0.266  0.271  0.281  0.296 13.54863 14.39111 -9.27646
 3.91 2.75  0.312  0.313  0.318  0.329  0.344 13.69036 14.65465 -9.01295
 3.91 3.00  0.362  0.364  0.369  0.379  0.395 13.82815 14.91535 -8.75227
 3.91 3.20  0.404  0.406  0.411  0.421  0.438 13.93597 15.12199 -8.54562
 3.91 3.40  0.448  0.451  0.456  0.468  0.484 14.04244 15.32746 -8.34014
 3.91 3.60  0.496  0.499  0.505  0.516  0.533 14.14769 15.53182 -8.13578
 3.91 3.80  0.547  0.549  0.556  0.567  0.584 14.25215 15.73541 -7.93218
 3.91 4.00  0.600  0.604  0.609  0.621  0.640 14.35583 15.93827 -7.72932
 3.91 4.20  0.658  0.660  0.666  0.678  0.698 14.45880 16.14052 -7.52710
 3.91 4.40  0.718  0.720  0.727  0.739  0.758 14.56141 16.34235 -7.32529
 3.91 4.60  0.780  0.783  0.789  0.803  0.823 14.66364 16.54379 -7.12384
 3.91 4.80  0.847  0.850  0.855  0.868  0.889 14.76571 16.74496 -6.92265
 3.91 5.00  0.915  0.918  0.924  0.938  0.959 14.86770 16.94586 -6.72170
 3.91 5.20  0.987  0.990  0.997  1.010  1.030 14.96964 17.14652 -6.52101
 3.91 5.40  1.062  1.065  1.071  1.083  1.105 15.07158 17.34708 -6.32043
 3.91 5.60  1.141  1.143  1.148  1.161  1.183 15.17361 17.54755 -6.11995
 3.91 5.80  1.223  1.224  1.230  1.242  1.262 15.27590 17.74797 -5.91953
 3.91 6.00  1.306  1.309  1.314  1.324  1.344 15.37840 17.94831 -5.71919
 3.91 6.25  1.413  1.414  1.419  1.430  1.449 15.50695 18.19859 -5.46897
 3.91 6.50  1.523  1.524  1.529  1.539  1.558 15.63609 18.44886 -5.21875
 3.91 6.75  1.632  1.633  1.638  1.648  1.666 15.76611 18.69913 -4.96852
 3.91 7.00  1.743  1.745  1.750  1.760  1.779 15.89702 18.94939 -4.71829
 3.91 7.25  1.859  1.860  1.865  1.875  1.894 16.02908 19.19975 -4.46792
 3.91 7.50  1.977  1.979  1.983  1.993  2.011 16.16197 19.45025 -4.21738
 3.91 7.75  2.096  2.097  2.102  2.112  2.129 16.29550 19.70120 -3.96642
 3.91 8.00  2.216  2.218  2.222  2.232  2.249 16.42975 19.95250 -3.71512
 3.94-2.00 -0.531 -0.530 -0.527 -0.522 -0.513  9.59846  9.63789-14.02965
 3.94-1.50 -0.520 -0.518 -0.515 -0.508 -0.495 10.09830 10.13799-13.52944
 3.94-1.00 -0.498 -0.495 -0.491 -0.481 -0.465 10.59791 10.63839-13.02919
 3.94-0.50 -0.450 -0.447 -0.442 -0.428 -0.409 11.09726 11.13893-12.52856
 3.94 0.00 -0.357 -0.354 -0.347 -0.333 -0.312 11.59484 11.64118-12.02646
 3.94 0.50 -0.201 -0.199 -0.192 -0.179 -0.158 12.08778 12.14737-11.52028
 3.94 1.00  0.016  0.019  0.025  0.037  0.056 12.56785 12.66408-11.00353
 3.94 1.25  0.141  0.143  0.148  0.160  0.176 12.79733 12.92982-10.73776
 3.94 1.50  0.265  0.267  0.271  0.282  0.299 13.01745 13.20030-10.46725
 3.94 1.75  0.378  0.380  0.384  0.395  0.410 13.22424 13.47752-10.19000
 3.94 2.00  0.477  0.479  0.484  0.493  0.508 13.41847 13.75496 -9.91257
 3.94 2.25  0.561  0.562  0.567  0.576  0.591 13.59855 14.03251 -9.63506
 3.94 2.50  0.632  0.634  0.638  0.647  0.662 13.76738 14.31006 -9.35754
 3.94 2.75  0.692  0.694  0.699  0.708  0.723 13.92580 14.58280 -9.08486
 3.94 3.00  0.748  0.750  0.755  0.764  0.779 14.07664 14.85211 -8.81559
 3.94 3.20  0.790  0.793  0.797  0.807  0.822 14.19271 15.06462 -8.60306
 3.94 3.40  0.832  0.834  0.839  0.849  0.864 14.30587 15.27515 -8.39249
 3.94 3.60  0.874  0.876  0.881  0.891  0.906 14.41621 15.48371 -8.18388
 3.94 3.80  0.917  0.919  0.924  0.934  0.951 14.52470 15.69078 -7.97680
 3.94 4.00  0.962  0.964  0.970  0.979  0.997 14.63155 15.89647 -7.77109
 3.94 4.20  1.009  1.012  1.016  1.027  1.044 14.73710 16.10097 -7.56658
 3.94 4.40  1.059  1.060  1.066  1.076  1.094 14.84180 16.30466 -7.36291
 3.94 4.60  1.110  1.113  1.118  1.130  1.147 14.94568 16.50760 -7.16001
 3.94 4.80  1.165  1.168  1.173  1.184  1.202 15.04907 16.71003 -6.95763
 3.94 5.00  1.223  1.225  1.230  1.242  1.261 15.15198 16.91196 -6.75572
 3.94 5.20  1.284  1.286  1.292  1.303  1.322 15.25441 17.11344 -6.55420
 3.94 5.40  1.348  1.350  1.355  1.367  1.387 15.35676 17.31464 -6.35295
 3.94 5.60  1.415  1.418  1.423  1.434  1.454 15.45902 17.51561 -6.15197
 3.94 5.80  1.487  1.489  1.494  1.504  1.523 15.56127 17.71641 -5.95118
 3.94 6.00  1.561  1.563  1.567  1.578  1.595 15.66351 17.91703 -5.75056
 3.94 6.25  1.656  1.658  1.662  1.672  1.690 15.79156 18.16754 -5.50001
 3.94 6.50  1.755  1.757  1.761  1.770  1.787 15.91986 18.41797 -5.24957
 3.94 6.75  1.855  1.855  1.860  1.869  1.887 16.04873 18.66837 -4.99918
 3.94 7.00  1.957  1.959  1.962  1.973  1.989 16.17811 18.91871 -4.74885
 3.94 7.25  2.063  2.065  2.069  2.079  2.095 16.30807 19.16892 -4.49863
 3.94 7.50  2.173  2.174  2.179  2.188  2.205 16.43854 19.41913 -4.24841
 3.94 7.75  2.286  2.287  2.291  2.300  2.317 16.56947 19.66948 -3.99807
 3.94 8.00  2.401  2.403  2.406  2.416  2.431 16.70088 19.91991 -3.74763
 3.97-2.00 -0.529 -0.528 -0.526 -0.522 -0.515  9.57019  9.60627-14.06128
 3.97-1.50 -0.525 -0.523 -0.521 -0.515 -0.505 10.06893 10.10755-13.56019
 3.97-1.00 -0.510 -0.508 -0.503 -0.495 -0.481 10.56820 10.60810-13.05948
 3.97-0.50 -0.473 -0.471 -0.465 -0.455 -0.436 11.06781 11.10857-12.55909
 3.97 0.00 -0.394 -0.391 -0.384 -0.370 -0.347 11.56714 11.60906-12.05849
 3.97 0.50 -0.245 -0.242 -0.235 -0.220 -0.195 12.06521 12.11093-11.55674
 3.97 1.00 -0.013 -0.010 -0.002  0.012  0.035 12.55955 12.61585-11.05173
 3.97 1.25  0.132  0.136  0.142  0.156  0.179 12.80318 12.87127-10.79624
 3.97 1.50  0.294  0.298  0.303  0.317  0.338 13.04297 13.12969-10.53775
 3.97 1.75  0.460  0.462  0.468  0.480  0.500 13.27593 13.39334-10.27418
 3.97 2.00  0.619  0.623  0.627  0.639  0.658 13.50065 13.66172-10.00590
 3.97 2.25  0.762  0.765  0.770  0.780  0.798 13.71268 13.93670 -9.73098
 3.97 2.50  0.886  0.887  0.892  0.903  0.919 13.91244 14.21352 -9.45420
 3.97 2.75  0.986  0.988  0.993  1.003  1.019 14.09780 14.49167 -9.17605
 3.97 3.00  1.069  1.072  1.076  1.086  1.102 14.27138 14.76982 -8.89791
 3.97 3.20  1.125  1.128  1.132  1.142  1.157 14.40196 14.98940 -8.67834
 3.97 3.40  1.176  1.178  1.183  1.193  1.207 14.52720 15.20693 -8.46081
 3.97 3.60  1.222  1.224  1.229  1.238  1.254 14.64725 15.42200 -8.24569
 3.97 3.80  1.266  1.268  1.272  1.282  1.297 14.76367 15.63460 -8.03302
 3.97 4.00  1.308  1.310  1.315  1.324  1.339 14.87685 15.84510 -7.82246
 3.97 4.20  1.350  1.352  1.356  1.366  1.382 14.98741 16.05360 -7.61398
 3.97 4.40  1.393  1.395  1.399  1.409  1.426 15.09615 16.26064 -7.40696
 3.97 4.60  1.438  1.440  1.444  1.454  1.470 15.20315 16.46629 -7.20131
 3.97 4.80  1.484  1.485  1.490  1.500  1.517 15.30905 16.67094 -6.99664
 3.97 5.00  1.532  1.534  1.538  1.549  1.566 15.41397 16.87466 -6.79290
 3.97 5.20  1.583  1.585  1.589  1.599  1.617 15.51808 17.07757 -6.59001
 3.97 5.40  1.637  1.639  1.643  1.654  1.671 15.62174 17.27995 -6.38765
 3.97 5.60  1.694  1.696  1.701  1.711  1.727 15.72490 17.48183 -6.18580
 3.97 5.80  1.755  1.757  1.760  1.770  1.787 15.82787 17.68339 -5.98427
 3.97 6.00  1.819  1.821  1.824  1.833  1.849 15.93075 17.88462 -5.78304
 3.97 6.25  1.902  1.903  1.907  1.915  1.932 16.05927 18.13579 -5.53185
 3.97 6.50  1.990  1.991  1.994  2.003  2.019 16.18780 18.38668 -5.28092
 3.97 6.75  2.077  2.079  2.082  2.091  2.107 16.31652 18.63734 -5.03018
 3.97 7.00  2.171  2.172  2.175  2.184  2.200 16.44545 18.88784 -4.77963
 3.97 7.25  2.268  2.270  2.273  2.282  2.297 16.57490 19.13816 -4.52936
 3.97 7.50  2.370  2.371  2.374  2.382  2.398 16.70475 19.38846 -4.27910
 3.97 7.75  2.475  2.476  2.480  2.487  2.502 16.83499 19.63875 -4.02884
 3.97 8.00  2.583  2.585  2.588  2.595  2.609 16.96563 19.88902 -3.77859
 4.00-2.00 -0.513 -0.512 -0.510 -0.507 -0.500  9.54949  9.56808-14.09947
 4.00-1.50 -0.518 -0.517 -0.515 -0.510 -0.502 10.04376 10.07335-13.59414
 4.00-1.00 -0.513 -0.512 -0.508 -0.502 -0.490 10.54033 10.57669-13.09087
 4.00-0.50 -0.489 -0.488 -0.483 -0.474 -0.458 11.03862 11.07809-12.58956
 4.00 0.00 -0.430 -0.428 -0.421 -0.409 -0.388 11.53807 11.57887-12.08879
 4.00 0.50 -0.304 -0.301 -0.294 -0.278 -0.253 12.03743 12.07954-11.58821
 4.00 1.00 -0.086 -0.082 -0.074 -0.058 -0.031 12.53555 12.58104-11.08656
 4.00 1.25  0.058  0.062  0.070  0.087  0.114 12.78365 12.83265-10.83488
 4.00 1.50  0.227  0.231  0.239  0.256  0.282 13.03060 13.08529-10.58220
 4.00 1.75  0.412  0.415  0.424  0.439  0.464 13.27506 13.34017-10.32734
 4.00 2.00  0.607  0.610  0.617  0.632  0.655 13.51614 13.59781-10.06976
 4.00 2.25  0.797  0.800  0.807  0.821  0.842 13.75099 13.85999 -9.80757
 4.00 2.50  0.978  0.980  0.987  0.999  1.020 13.97823 14.12678 -9.54076
 4.00 2.75  1.137  1.139  1.144  1.157  1.175 14.19353 14.40037 -9.26718
 4.00 3.00  1.273  1.275  1.280  1.290  1.309 14.39690 14.67660 -8.99097
 4.00 3.20  1.362  1.365  1.369  1.379  1.397 14.54891 14.89936 -8.76825
 4.00 3.40  1.439  1.441  1.446  1.457  1.473 14.69320 15.12212 -8.54552
 4.00 3.60  1.505  1.507  1.511  1.521  1.537 14.82956 15.34384 -8.32385
 4.00 3.80  1.561  1.563  1.567  1.576  1.592 14.95954 15.56307 -8.10467
 4.00 4.00  1.612  1.613  1.618  1.627  1.643 15.08386 15.78039 -7.88739
 4.00 4.20  1.657  1.658  1.662  1.672  1.688 15.20325 15.99479 -7.67295
 4.00 4.40  1.700  1.701  1.705  1.715  1.730 15.31918 16.20706 -7.46063
 4.00 4.60  1.741  1.743  1.747  1.756  1.772 15.43183 16.41714 -7.25050
 4.00 4.80  1.783  1.784  1.788  1.798  1.813 15.54230 16.62547 -7.04214
 4.00 5.00  1.825  1.827  1.831  1.839  1.855 15.65079 16.83225 -6.83535
 4.00 5.20  1.869  1.870  1.875  1.883  1.898 15.75767 17.03769 -6.62991
 4.00 5.40  1.914  1.916  1.921  1.929  1.944 15.86350 17.24214 -6.42544
 4.00 5.60  1.964  1.964  1.969  1.977  1.992 15.96834 17.44566 -6.22192
 4.00 5.80  2.014  2.016  2.020  2.028  2.043 16.07260 17.64854 -6.01903
 4.00 6.00  2.069  2.070  2.074  2.082  2.095 16.17638 17.85083 -5.81673
 4.00 6.25  2.141  2.141  2.145  2.152  2.167 16.30557 18.10301 -5.56452
 4.00 6.50  2.217  2.218  2.221  2.228  2.242 16.43457 18.35468 -5.31283
 4.00 6.75  2.295  2.296  2.299  2.306  2.320 16.56344 18.60599 -5.06150
 4.00 7.00  2.378  2.380  2.383  2.390  2.403 16.69232 18.85697 -4.81051
 4.00 7.25  2.467  2.468  2.471  2.478  2.491 16.82153 19.10761 -4.55987
 4.00 7.50  2.560  2.562  2.564  2.571  2.585 16.95110 19.35813 -4.30936
 4.00 7.75  2.659  2.660  2.662  2.669  2.682 17.08135 19.60858 -4.05891
 4.00 8.00  2.761  2.762  2.765  2.772  2.784 17.21219 19.85896 -3.80855
 4.05-2.00 -0.492 -0.491 -0.489 -0.484 -0.477  9.50840  9.50934-14.15820
 4.05-1.50 -0.491 -0.489 -0.488 -0.483 -0.474 10.00732 10.01072-13.65699
 4.05-1.00 -0.489 -0.488 -0.486 -0.479 -0.470 10.50433 10.51348-13.15410
 4.05-0.50 -0.486 -0.484 -0.480 -0.472 -0.460 10.99904 11.01870-12.64917
 4.05 0.00 -0.462 -0.460 -0.455 -0.445 -0.428 11.49360 11.52375-12.14382
 4.05 0.50 -0.390 -0.387 -0.381 -0.368 -0.345 11.98998 12.02694-11.64054
 4.05 1.00 -0.230 -0.227 -0.220 -0.203 -0.175 12.48827 12.52853-11.13900
 4.05 1.25 -0.109 -0.105 -0.097 -0.079 -0.049 12.73763 12.77916-10.88845
 4.05 1.50  0.041  0.045  0.054  0.073  0.104 12.98700 13.02979-10.63789
 4.05 1.75  0.219  0.223  0.232  0.252  0.284 13.23601 13.28070-10.38699
 4.05 2.00  0.419  0.424  0.433  0.452  0.484 13.48458 13.53199-10.13567
 4.05 2.25  0.633  0.637  0.646  0.664  0.696 13.73203 13.78424 -9.88342
 4.05 2.50  0.854  0.857  0.865  0.884  0.914 13.97791 14.03783 -9.62986
 4.05 2.75  1.073  1.076  1.084  1.100  1.128 14.22062 14.29411 -9.37355
 4.05 3.00  1.286  1.289  1.296  1.311  1.336 14.45909 14.55364 -9.11396
 4.05 3.20  1.444  1.447  1.454  1.467  1.490 14.64447 14.76519 -8.90237
 4.05 3.40  1.592  1.595  1.600  1.612  1.634 14.82418 14.97974 -8.68779
 4.05 3.60  1.724  1.726  1.730  1.742  1.762 14.99697 15.19848 -8.46906
 4.05 3.80  1.838  1.839  1.845  1.855  1.873 15.16117 15.41962 -8.24794
 4.05 4.00  1.937  1.938  1.943  1.952  1.970 15.31744 15.64138 -8.02623
 4.05 4.20  2.018  2.020  2.024  2.033  2.049 15.46429 15.86352 -7.80412
 4.05 4.40  2.089  2.090  2.095  2.103  2.118 15.60390 16.08566 -7.58201
 4.05 4.60  2.149  2.151  2.155  2.163  2.177 15.73618 16.30639 -7.36133
 4.05 4.80  2.202  2.204  2.207  2.215  2.229 15.86282 16.52409 -7.14366
 4.05 5.00  2.251  2.253  2.255  2.263  2.276 15.98448 16.73965 -6.92812
 4.05 5.20  2.296  2.297  2.300  2.307  2.320 16.10191 16.95253 -6.71515
 4.05 5.40  2.339  2.340  2.343  2.349  2.362 16.21640 17.16342 -6.50419
 4.05 5.60  2.382  2.383  2.386  2.392  2.404 16.32806 17.37231 -6.29529
 4.05 5.80  2.426  2.427  2.430  2.435  2.447 16.43792 17.57967 -6.08799
 4.05 6.00  2.471  2.472  2.474  2.480  2.490 16.54617 17.78562 -5.88207
 4.05 6.25  2.530  2.530  2.533  2.537  2.548 16.67976 18.04136 -5.62621
 4.05 6.50  2.592  2.592  2.595  2.599  2.609 16.81218 18.29579 -5.37171
 4.05 6.75  2.655  2.657  2.658  2.664  2.674 16.94363 18.54923 -5.11838
 4.05 7.00  2.724  2.726  2.727  2.733  2.742 17.07482 18.80188 -4.86582
 4.05 7.25  2.799  2.800  2.803  2.807  2.817 17.20584 19.05386 -4.61382
 4.05 7.50  2.881  2.882  2.883  2.888  2.897 17.33686 19.30535 -4.36231
 4.05 7.75  2.967  2.968  2.970  2.974  2.983 17.46837 19.55650 -4.11117
 4.05 8.00  3.060  3.060  3.062  3.066  3.075 17.60021 19.80726 -3.86044
 4.10-2.00 -0.482 -0.480 -0.479 -0.472 -0.461  9.45909  9.45879-14.20880
 4.10-1.50 -0.479 -0.477 -0.475 -0.468 -0.456  9.95890  9.95885-13.70863
 4.10-1.00 -0.475 -0.474 -0.470 -0.462 -0.450 10.45864 10.45924-13.20845
 4.10-0.50 -0.467 -0.466 -0.462 -0.454 -0.440 10.95804 10.95976-12.70774
 4.10 0.00 -0.450 -0.448 -0.444 -0.434 -0.418 11.45637 11.46150-12.20614
 4.10 0.50 -0.410 -0.407 -0.402 -0.390 -0.369 11.95255 11.96515-11.70246
 4.10 1.00 -0.315 -0.312 -0.306 -0.290 -0.264 12.44685 12.47071-11.19688
 4.10 1.25 -0.234 -0.231 -0.224 -0.207 -0.178 12.69417 12.72321-10.94434
 4.10 1.50 -0.127 -0.123 -0.116 -0.097 -0.065 12.94171 12.97543-10.69208
 4.10 1.75  0.012  0.015  0.024  0.044  0.077 13.19008 13.22700-10.44053
 4.10 2.00  0.179  0.184  0.192  0.213  0.248 13.43870 13.47828-10.18930
 4.10 2.25  0.375  0.379  0.389  0.410  0.444 13.68753 13.72930 -9.93835
 4.10 2.50  0.590  0.594  0.604  0.625  0.659 13.93636 13.98032 -9.68740
 4.10 2.75  0.819  0.824  0.832  0.852  0.885 14.18474 14.23180 -9.43588
 4.10 3.00  1.055  1.059  1.067  1.086  1.117 14.43249 14.48387 -9.18369
 4.10 3.20  1.242  1.245  1.253  1.270  1.299 14.62942 14.68657 -8.98101
 4.10 3.40  1.427  1.430  1.438  1.453  1.481 14.82479 14.89054 -8.77710
 4.10 3.60  1.607  1.610  1.617  1.631  1.656 15.01814 15.09624 -8.57145
 4.10 3.80  1.780  1.783  1.788  1.800  1.823 15.20777 15.30469 -8.36301
 4.10 4.00  1.942  1.944  1.949  1.961  1.981 15.39358 15.51574 -8.15193
 4.10 4.20  2.091  2.093  2.098  2.107  2.126 15.57276 15.73105 -7.93654
 4.10 4.40  2.224  2.226  2.230  2.239  2.254 15.74515 15.94892 -7.71862
 4.10 4.60  2.340  2.342  2.345  2.353  2.367 15.90957 16.17005 -7.49749
 4.10 4.80  2.441  2.441  2.444  2.451  2.464 16.06521 16.39252 -7.27505
 4.10 5.00  2.526  2.528  2.530  2.536  2.548 16.21299 16.61500 -7.05261
 4.10 5.20  2.598  2.599  2.602  2.608  2.618 16.35233 16.83627 -6.83138
 4.10 5.40  2.661  2.662  2.664  2.670  2.680 16.48542 17.05629 -6.61137
 4.10 5.60  2.718  2.719  2.720  2.726  2.734 16.61228 17.27427 -6.39336
 4.10 5.80  2.770  2.770  2.772  2.776  2.785 16.73465 17.48950 -6.17807
 4.10 6.00  2.819  2.819  2.821  2.825  2.832 16.85309 17.70252 -5.96497
 4.10 6.25  2.878  2.878  2.879  2.883  2.891 16.99676 17.96552 -5.70196
 4.10 6.50  2.937  2.937  2.938  2.942  2.949 17.13704 18.22583 -5.44165
 4.10 6.75  2.996  2.997  2.998  3.002  3.009 17.27461 18.48382 -5.18361
 4.10 7.00  3.059  3.059  3.061  3.064  3.071 17.41061 18.74005 -4.92738
 4.10 7.25  3.125  3.127  3.128  3.131  3.138 17.54519 18.99482 -4.67275
 4.10 7.50  3.197  3.198  3.200  3.202  3.209 17.67970 19.24846 -4.41919
 4.10 7.75  3.275  3.276  3.276  3.280  3.286 17.81420 19.50129 -4.16635
 4.10 8.00  3.359  3.359  3.360  3.363  3.368 17.94866 19.75320 -3.91435
 4.15-2.00 -0.483 -0.481 -0.479 -0.474 -0.465  9.40909  9.40875-14.25877
 4.15-1.50 -0.474 -0.472 -0.469 -0.462 -0.450  9.90902  9.90875-13.75870
 4.15-1.00 -0.464 -0.462 -0.458 -0.450 -0.434 10.40909 10.40892-13.25877
 4.15-0.50 -0.455 -0.452 -0.448 -0.438 -0.419 10.90891 10.90886-12.75870
 4.15 0.00 -0.442 -0.440 -0.434 -0.423 -0.402 11.40875 11.40909-12.25853
 4.15 0.50 -0.414 -0.411 -0.405 -0.392 -0.370 11.90827 11.90950-11.75796
 4.15 1.00 -0.349 -0.345 -0.339 -0.323 -0.298 12.40705 12.41078-11.25688
 4.15 1.25 -0.292 -0.289 -0.281 -0.265 -0.236 12.65585 12.66193-11.00569
 4.15 1.50 -0.214 -0.211 -0.204 -0.185 -0.155 12.90417 12.91355-10.75399
 4.15 1.75 -0.112 -0.109 -0.101 -0.082 -0.049 13.15174 13.16612-10.50153
 4.15 2.00  0.011  0.015  0.023  0.043  0.078 13.39898 13.41880-10.24888
 4.15 2.25  0.163  0.168  0.176  0.197  0.232 13.64596 13.67154 -9.99608
 4.15 2.50  0.339  0.343  0.353  0.373  0.409 13.89293 13.92428 -9.74328
 4.15 2.75  0.541  0.544  0.553  0.574  0.609 14.14070 14.17639 -9.49117
 4.15 3.00  0.760  0.763  0.772  0.791  0.825 14.38863 14.42830 -9.23928
 4.15 3.20  0.947  0.951  0.959  0.978  1.009 14.58708 14.62968 -9.03792
 4.15 3.40  1.139  1.142  1.150  1.168  1.197 14.78552 14.83107 -8.83657
 4.15 3.60  1.334  1.338  1.345  1.360  1.388 14.98372 15.03269 -8.63497
 4.15 3.80  1.530  1.533  1.539  1.553  1.578 15.18110 15.23510 -8.43257
 4.15 4.00  1.721  1.724  1.729  1.743  1.765 15.37767 15.43823 -8.22944
 4.15 4.20  1.908  1.911  1.915  1.927  1.948 15.57211 15.64298 -8.02464
 4.15 4.40  2.090  2.092  2.096  2.106  2.125 15.76392 15.84968 -7.81788
 4.15 4.60  2.263  2.264  2.268  2.276  2.293 15.95236 16.05907 -7.60848
 4.15 4.80  2.424  2.425  2.428  2.436  2.450 16.13531 16.27186 -7.39573
 4.15 5.00  2.572  2.573  2.576  2.582  2.594 16.31281 16.48756 -7.18006
 4.15 5.20  2.702  2.703  2.705  2.711  2.720 16.48191 16.70772 -6.95976
 4.15 5.40  2.816  2.817  2.819  2.823  2.832 16.64337 16.92866 -6.73877
 4.15 5.60  2.914  2.915  2.916  2.921  2.928 16.79640 17.15034 -6.51711
 4.15 5.80  2.998  2.999  3.000  3.004  3.010 16.94147 17.37220 -6.29531
 4.15 6.00  3.072  3.074  3.075  3.077  3.083 17.07954 17.59406 -6.07350
 4.15 6.25  3.153  3.153  3.154  3.156  3.162 17.24295 17.86715 -5.80047
 4.15 6.50  3.225  3.226  3.227  3.228  3.234 17.39898 18.13704 -5.53062
 4.15 6.75  3.293  3.293  3.293  3.296  3.301 17.54884 18.40299 -5.26464
 4.15 7.00  3.359  3.359  3.360  3.362  3.367 17.69461 18.66586 -5.00174
 4.15 7.25  3.426  3.426  3.428  3.430  3.434 17.83701 18.92595 -4.74172
 4.15 7.50  3.497  3.497  3.497  3.499  3.504 17.97772 19.18384 -4.48386
 4.15 7.75  3.570  3.570  3.571  3.573  3.577 18.11756 19.44006 -4.22758
 4.15 8.00  3.648  3.649  3.649  3.652  3.655 18.25624 19.69443 -3.97306
 4.20-2.00 -0.487 -0.486 -0.486 -0.483 -0.478  9.35908  9.35870-14.30883
 4.20-1.50 -0.480 -0.479 -0.478 -0.474 -0.468  9.85902  9.85878-13.80883
 4.20-1.00 -0.470 -0.469 -0.466 -0.461 -0.450 10.35908 10.35889-13.30883
 4.20-0.50 -0.455 -0.454 -0.450 -0.440 -0.426 10.85896 10.85878-12.80883
 4.20 0.00 -0.435 -0.433 -0.428 -0.416 -0.395 11.35889 11.35889-12.30874
 4.20 0.50 -0.409 -0.405 -0.400 -0.385 -0.359 11.85884 11.85896-11.80855
 4.20 1.00 -0.363 -0.360 -0.353 -0.336 -0.304 12.35870 12.35908-11.30848
 4.20 1.25 -0.326 -0.322 -0.314 -0.296 -0.263 12.60849 12.60926-11.05830
 4.20 1.50 -0.271 -0.268 -0.260 -0.240 -0.205 12.85818 12.85956-10.80799
 4.20 1.75 -0.197 -0.193 -0.185 -0.164 -0.127 13.10777 13.10997-10.55755
 4.20 2.00 -0.101 -0.097 -0.088 -0.065 -0.027 13.35717 13.36059-10.30689
 4.20 2.25  0.022  0.025  0.034  0.058  0.096 13.60607 13.61169-10.05586
 4.20 2.50  0.167  0.171  0.180  0.203  0.241 13.85449 13.86326 -9.80438
 4.20 2.75  0.338  0.341  0.350  0.372  0.410 14.10221 14.11561 -9.55205
 4.20 3.00  0.526  0.529  0.538  0.558  0.593 14.34947 14.36829 -9.29938
 4.20 3.20  0.691  0.694  0.702  0.721  0.755 14.54688 14.57067 -9.09701
 4.20 3.40  0.865  0.868  0.875  0.893  0.924 14.74428 14.77306 -8.89463
 4.20 3.60  1.047  1.050  1.056  1.073  1.102 14.94184 14.97530 -8.69238
 4.20 3.80  1.237  1.240  1.246  1.261  1.287 15.13955 15.17739 -8.49024
 4.20 4.00  1.431  1.434  1.439  1.452  1.476 15.33726 15.37949 -8.28811
 4.20 4.20  1.630  1.632  1.637  1.649  1.671 15.53481 15.58171 -8.08588
 4.20 4.40  1.829  1.831  1.836  1.846  1.865 15.73210 15.78413 -7.88350
 4.20 4.60  2.026  2.028  2.032  2.042  2.058 15.92870 15.98715 -7.68051
 4.20 4.80  2.220  2.221  2.225  2.233  2.247 16.12344 16.19166 -7.47595
 4.20 5.00  2.409  2.410  2.412  2.419  2.432 16.31639 16.39759 -7.26994
 4.20 5.20  2.590  2.591  2.593  2.599  2.609 16.50555 16.60645 -7.06112
 4.20 5.40  2.760  2.761  2.763  2.768  2.776 16.69031 16.81804 -6.84958
 4.20 5.60  2.917  2.918  2.918  2.923  2.930 16.86958 17.03327 -6.63436
 4.20 5.80  3.057  3.057  3.059  3.062  3.068 17.04143 17.25150 -6.41609
 4.20 6.00  3.182  3.183  3.184  3.186  3.191 17.20629 17.47159 -6.19600
 4.20 6.25  3.312  3.313  3.314  3.316  3.320 17.40001 17.74906 -5.91856
 4.20 6.50  3.425  3.425  3.426  3.428  3.431 17.58252 18.02653 -5.64111
 4.20 6.75  3.520  3.520  3.520  3.522  3.526 17.75398 18.30122 -5.36643
 4.20 7.00  3.606  3.606  3.607  3.608  3.611 17.91735 18.57334 -5.09431
 4.20 7.25  3.685  3.686  3.686  3.687  3.690 18.07366 18.84136 -4.82629
 4.20 7.50  3.762  3.762  3.763  3.765  3.767 18.22557 19.10619 -4.56146
 4.20 7.75  3.840  3.840  3.840  3.841  3.845 18.37474 19.36820 -4.29943
 4.20 8.00  3.919  3.919  3.920  3.921  3.924 18.52061 19.62726 -4.04034
 4.25-2.00 -0.483 -0.483 -0.481 -0.479 -0.475  9.30920  9.30878-14.35882
 4.25-1.50 -0.479 -0.479 -0.479 -0.475 -0.470  9.80902  9.80875-13.85886
 4.25-1.00 -0.474 -0.474 -0.472 -0.468 -0.461 10.30899 10.30878-13.35882
 4.25-0.50 -0.464 -0.463 -0.461 -0.456 -0.446 10.80895 10.80875-12.85886
 4.25 0.00 -0.446 -0.444 -0.442 -0.434 -0.421 11.30899 11.30878-12.35872
 4.25 0.50 -0.419 -0.417 -0.412 -0.401 -0.382 11.80889 11.80889-11.85886
 4.25 1.00 -0.376 -0.373 -0.367 -0.351 -0.323 12.30878 12.30899-11.35863
 4.25 1.25 -0.345 -0.341 -0.334 -0.317 -0.285 12.55873 12.55901-11.10859
 4.25 1.50 -0.301 -0.298 -0.290 -0.270 -0.233 12.80868 12.80902-10.85855
 4.25 1.75 -0.246 -0.243 -0.234 -0.211 -0.171 13.05863 13.05922-10.60839
 4.25 2.00 -0.173 -0.169 -0.159 -0.134 -0.091 13.30857 13.30942-10.35823
 4.25 2.25 -0.081 -0.076 -0.067 -0.041  0.004 13.55831 13.55962-10.10808
 4.25 2.50  0.033  0.037  0.047  0.073  0.119 13.80794 13.80983 -9.85792
 4.25 2.75  0.172  0.177  0.187  0.212  0.257 14.05749 14.06034 -9.60738
 4.25 3.00  0.336  0.340  0.349  0.373  0.414 14.30685 14.31112 -9.35655
 4.25 3.20  0.486  0.489  0.498  0.520  0.559 14.50592 14.51198 -9.15569
 4.25 3.40  0.646  0.650  0.658  0.678  0.713 14.70464 14.71315 -8.95455
 4.25 3.60  0.818  0.822  0.829  0.846  0.878 14.90295 14.91481 -8.75290
 4.25 3.80  0.997  1.000  1.007  1.023  1.051 15.10085 15.11693 -8.55075
 4.25 4.00  1.181  1.183  1.189  1.202  1.227 15.29842 15.31932 -8.34833
 4.25 4.20  1.371  1.373  1.378  1.390  1.412 15.49560 15.52187 -8.14574
 4.25 4.40  1.563  1.566  1.569  1.581  1.599 15.69265 15.72455 -7.94303
 4.25 4.60  1.760  1.763  1.766  1.776  1.792 15.88964 15.92731 -7.74027
 4.25 4.80  1.962  1.963  1.967  1.974  1.990 16.08655 16.13019 -7.53742
 4.25 5.00  2.163  2.164  2.167  2.174  2.187 16.28330 16.33325 -7.33442
 4.25 5.20  2.366  2.367  2.370  2.375  2.386 16.47902 16.53700 -7.13070
 4.25 5.40  2.564  2.566  2.567  2.572  2.581 16.67345 16.74171 -6.92602
 4.25 5.60  2.758  2.759  2.760  2.763  2.771 16.86605 16.94796 -6.71978
 4.25 5.80  2.944  2.944  2.945  2.949  2.955 17.05509 17.15683 -6.51087
 4.25 6.00  3.119  3.120  3.121  3.123  3.128 17.24055 17.36810 -6.29956
 4.25 6.25  3.318  3.318  3.319  3.320  3.324 17.46334 17.63748 -6.03012
 4.25 6.50  3.493  3.493  3.494  3.496  3.498 17.67624 17.91036 -5.75721
 4.25 6.75  3.641  3.641  3.641  3.642  3.645 17.87655 18.18713 -5.48049
 4.25 7.00  3.769  3.769  3.770  3.771  3.773 18.06595 18.46389 -5.20377
 4.25 7.25  3.878  3.878  3.878  3.879  3.881 18.24407 18.73889 -4.92868
 4.25 7.50  3.978  3.978  3.978  3.979  3.981 18.41414 19.01199 -4.65541
 4.25 7.75  4.069  4.070  4.070  4.070  4.072 18.57836 19.28138 -4.38608
 4.25 8.00  4.160  4.160  4.160  4.160  4.162 18.73600 19.54765 -4.11999
 4.30-2.00 -0.473 -0.473 -0.472 -0.469 -0.464  9.26031  9.25744-14.41016
 4.30-1.50 -0.471 -0.471 -0.470 -0.466 -0.461  9.75944  9.75831-13.90939
 4.30-1.00 -0.468 -0.467 -0.465 -0.461 -0.455 10.25912 10.25864-13.40894
 4.30-0.50 -0.461 -0.461 -0.459 -0.455 -0.446 10.75906 10.75869-12.90904
 4.30 0.00 -0.450 -0.448 -0.447 -0.441 -0.431 11.25912 11.25888-12.40882
 4.30 0.50 -0.428 -0.427 -0.424 -0.417 -0.404 11.75891 11.75884-11.90869
 4.30 1.00 -0.395 -0.392 -0.389 -0.379 -0.361 12.25888 12.25888-11.40871
 4.30 1.25 -0.369 -0.368 -0.363 -0.351 -0.330 12.50882 12.50893-11.15871
 4.30 1.50 -0.336 -0.335 -0.329 -0.315 -0.289 12.75876 12.75899-10.90869
 4.30 1.75 -0.292 -0.289 -0.283 -0.266 -0.236 13.00870 13.00905-10.65859
 4.30 2.00 -0.233 -0.230 -0.222 -0.201 -0.166 13.25864 13.25912-10.40849
 4.30 2.25 -0.157 -0.153 -0.144 -0.122 -0.081 13.50859 13.50917-10.15841
 4.30 2.50 -0.062 -0.057 -0.047 -0.021  0.023 13.75853 13.75922 -9.90833
 4.30 2.75  0.053  0.057  0.067  0.094  0.141 14.00838 14.00937 -9.65816
 4.30 3.00  0.190  0.194  0.204  0.230  0.278 14.25816 14.25959 -9.40793
 4.30 3.20  0.317  0.320  0.330  0.355  0.401 14.45794 14.45981 -9.20772
 4.30 3.40  0.457  0.461  0.470  0.493  0.536 14.65765 14.66010 -9.00744
 4.30 3.60  0.613  0.617  0.625  0.646  0.685 14.85724 14.86051 -8.80705
 4.30 3.80  0.783  0.785  0.793  0.811  0.846 15.05661 15.06113 -8.60643
 4.30 4.00  0.960  0.962  0.969  0.985  1.015 15.25576 15.26198 -8.40561
 4.30 4.20  1.148  1.151  1.156  1.171  1.196 15.45456 15.46315 -8.20446
 4.30 4.40  1.340  1.342  1.347  1.358  1.380 15.65298 15.66469 -8.00295
 4.30 4.60  1.536  1.537  1.541  1.551  1.569 15.85091 15.86670 -7.80091
 4.30 4.80  1.734  1.735  1.738  1.747  1.762 16.04831 16.06919 -7.59836
 4.30 5.00  1.932  1.933  1.935  1.942  1.955 16.24527 16.27207 -7.39545
 4.30 5.20  2.135  2.136  2.138  2.145  2.155 16.44194 16.47518 -7.19238
 4.30 5.40  2.339  2.340  2.341  2.346  2.355 16.63810 16.67870 -6.98893
 4.30 5.60  2.544  2.545  2.546  2.550  2.557 16.83382 16.88257 -6.78510
 4.30 5.80  2.749  2.749  2.751  2.754  2.760 17.02866 17.08712 -6.58052
 4.30 6.00  2.950  2.950  2.951  2.952  2.957 17.22246 17.29248 -6.37510
 4.30 6.25  3.192  3.193  3.193  3.195  3.199 17.46097 17.55203 -6.11550
 4.30 6.50  3.423  3.423  3.423  3.424  3.427 17.69461 17.81485 -5.85263
 4.30 6.75  3.630  3.630  3.631  3.632  3.634 17.91981 18.08292 -5.58456
 4.30 7.00  3.817  3.817  3.818  3.818  3.820 18.13609 18.35449 -5.31301
 4.30 7.25  3.976  3.976  3.977  3.977  3.978 18.34055 18.63020 -5.03735
 4.30 7.50  4.118  4.118  4.118  4.119  4.120 18.53491 18.90590 -4.76170
 4.30 7.75  4.239  4.240  4.240  4.240  4.240 18.71996 19.18034 -4.48725
 4.30 8.00  4.352  4.352  4.352  4.352  4.354 18.89542 19.45393 -4.21360
 4.35-2.00 -0.449 -0.449 -0.447 -0.445 -0.441  9.22272  9.19479-14.47289
 4.35-1.50 -0.452 -0.452 -0.451 -0.447 -0.442  9.71784  9.69975-13.96778
 4.35-1.00 -0.454 -0.454 -0.451 -0.447 -0.440 10.21325 10.20466-13.46306
 4.35-0.50 -0.451 -0.450 -0.448 -0.443 -0.433 10.71062 10.70714-12.96059
 4.35 0.00 -0.442 -0.442 -0.439 -0.433 -0.422 11.20951 11.20817-12.45930
 4.35 0.50 -0.426 -0.425 -0.423 -0.415 -0.402 11.70910 11.70868-11.95900
 4.35 1.00 -0.398 -0.396 -0.394 -0.386 -0.370 12.20898 12.20898-11.45880
 4.35 1.25 -0.377 -0.376 -0.373 -0.363 -0.347 12.45891 12.45895-11.20870
 4.35 1.50 -0.353 -0.351 -0.348 -0.337 -0.319 12.70885 12.70893-10.95861
 4.35 1.75 -0.320 -0.317 -0.313 -0.301 -0.280 12.95878 12.95894-10.70856
 4.35 2.00 -0.277 -0.275 -0.269 -0.257 -0.232 13.20871 13.20898-10.45855
 4.35 2.25 -0.219 -0.217 -0.211 -0.195 -0.167 13.45869 13.45904-10.20858
 4.35 2.50 -0.146 -0.142 -0.135 -0.117 -0.084 13.70868 13.70910 -9.95861
 4.35 2.75 -0.050 -0.046 -0.039 -0.018  0.018 13.95857 13.95917 -9.70848
 4.35 3.00  0.066  0.069  0.078  0.101  0.141 14.20844 14.20925 -9.45830
 4.35 3.20  0.178  0.181  0.190  0.213  0.254 14.40834 14.40936 -9.25811
 4.35 3.40  0.303  0.307  0.316  0.338  0.380 14.60823 14.60952 -9.05791
 4.35 3.60  0.444  0.448  0.456  0.479  0.520 14.80809 14.80973 -8.85774
 4.35 3.80  0.600  0.603  0.610  0.631  0.669 15.00789 15.01000 -8.65758
 4.35 4.00  0.766  0.769  0.776  0.795  0.829 15.20763 15.21032 -8.45742
 4.35 4.20  0.946  0.947  0.954  0.970  1.001 15.40727 15.41066 -8.25707
 4.35 4.40  1.131  1.133  1.138  1.152  1.178 15.60677 15.61107 -8.05656
 4.35 4.60  1.324  1.326  1.331  1.342  1.365 15.80610 15.81164 -7.85588
 4.35 4.80  1.524  1.526  1.530  1.539  1.557 16.00513 16.01255 -7.65494
 4.35 5.00  1.724  1.726  1.729  1.737  1.751 16.20385 16.21378 -7.45370
 4.35 5.20  1.931  1.933  1.935  1.941  1.953 16.40203 16.41559 -7.25199
 4.35 5.40  2.137  2.138  2.140  2.145  2.155 16.59967 16.61790 -7.04976
 4.35 5.60  2.344  2.345  2.346  2.350  2.358 16.79672 16.82072 -6.84696
 4.35 5.80  2.552  2.552  2.554  2.556  2.562 16.99305 17.02412 -6.64348
 4.35 6.00  2.758  2.759  2.760  2.761  2.766 17.18865 17.22814 -6.43938
 4.35 6.25  3.021  3.021  3.021  3.023  3.026 17.43211 17.48405 -6.18354
 4.35 6.50  3.274  3.274  3.275  3.276  3.279 17.67367 17.74147 -5.92628
 4.35 6.75  3.521  3.521  3.521  3.522  3.524 17.91184 18.00143 -5.66630
 4.35 7.00  3.754  3.754  3.754  3.756  3.757 18.14551 18.26435 -5.40329
 4.35 7.25  3.966  3.966  3.966  3.967  3.968 18.37130 18.53197 -5.13566
 4.35 7.50  4.160  4.160  4.160  4.160  4.161 18.58894 18.80277 -4.86487
 4.35 7.75  4.325  4.325  4.325  4.326  4.326 18.79637 19.07603 -4.59162
 4.35 8.00  4.476  4.476  4.476  4.477  4.477 18.99427 19.35199 -4.31569
 4.40-2.00 -0.441 -0.441 -0.440 -0.438 -0.435  9.17696  9.13988-14.52754
 4.40-1.50 -0.438 -0.438 -0.437 -0.435 -0.430  9.67651  9.64048-14.02710
 4.40-1.00 -0.434 -0.434 -0.433 -0.430 -0.424 10.17522 10.14208-13.52564
 4.40-0.50 -0.432 -0.431 -0.429 -0.425 -0.417 10.67219 10.64513-13.02241
 4.40 0.00 -0.427 -0.426 -0.424 -0.419 -0.409 11.16732 11.15045-12.51727
 4.40 0.50 -0.416 -0.415 -0.412 -0.405 -0.392 11.66285 11.65495-12.01269
 4.40 1.00 -0.392 -0.391 -0.387 -0.379 -0.363 12.16047 12.15746-11.51018
 4.40 1.25 -0.374 -0.373 -0.369 -0.360 -0.342 12.40979 12.40800-11.25957
 4.40 1.50 -0.350 -0.350 -0.345 -0.336 -0.317 12.65935 12.65839-11.00917
 4.40 1.75 -0.322 -0.320 -0.316 -0.306 -0.285 12.90912 12.90873-10.75894
 4.40 2.00 -0.287 -0.285 -0.280 -0.269 -0.247 13.15897 13.15897-10.50878
 4.40 2.25 -0.242 -0.240 -0.235 -0.222 -0.198 13.40886 13.40901-10.25869
 4.40 2.50 -0.185 -0.183 -0.178 -0.164 -0.137 13.65878 13.65906-10.00860
 4.40 2.75 -0.111 -0.109 -0.103 -0.088 -0.058 13.90872 13.90916 -9.75848
 4.40 3.00 -0.021 -0.018 -0.011  0.005  0.036 14.15866 14.15927 -9.50836
 4.40 3.20  0.071  0.073  0.080  0.097  0.130 14.35857 14.35934 -9.30830
 4.40 3.40  0.177  0.180  0.187  0.204  0.238 14.55845 14.55941 -9.10823
 4.40 3.60  0.301  0.303  0.310  0.328  0.362 14.75833 14.75953 -8.90812
 4.40 3.80  0.442  0.444  0.451  0.469  0.502 14.95821 14.95970 -8.70796
 4.40 4.00  0.597  0.600  0.605  0.622  0.655 15.15806 15.15987 -8.50780
 4.40 4.20  0.768  0.771  0.776  0.791  0.821 15.35788 15.36000 -8.30764
 4.40 4.40  0.948  0.951  0.956  0.970  0.997 15.55766 15.56013 -8.10748
 4.40 4.60  1.138  1.139  1.144  1.156  1.179 15.75739 15.76031 -7.90726
 4.40 4.80  1.333  1.334  1.339  1.349  1.369 15.95702 15.96063 -7.70689
 4.40 5.00  1.533  1.533  1.536  1.545  1.562 16.15655 16.16107 -7.50640
 4.40 5.20  1.738  1.740  1.742  1.750  1.763 16.35593 16.36173 -7.30578
 4.40 5.40  1.946  1.947  1.949  1.954  1.965 16.55508 16.56266 -7.10492
 4.40 5.60  2.156  2.156  2.159  2.163  2.172 16.75389 16.76392 -6.90374
 4.40 5.80  2.368  2.369  2.370  2.373  2.380 16.95214 16.96567 -6.70201
 4.40 6.00  2.579  2.579  2.580  2.582  2.588 17.14983 17.16791 -6.49976
 4.40 6.25  2.847  2.848  2.848  2.850  2.854 17.39582 17.42166 -6.24597
 4.40 6.50  3.113  3.113  3.113  3.114  3.117 17.64038 17.67660 -5.99097
 4.40 6.75  3.379  3.379  3.379  3.380  3.382 17.88329 17.93297 -5.73459
 4.40 7.00  3.635  3.635  3.635  3.636  3.637 18.12385 18.19117 -5.47638
 4.40 7.25  3.881  3.881  3.881  3.881  3.883 18.36099 18.45194 -5.21560
 4.40 7.50  4.114  4.114  4.114  4.114  4.115 18.59362 18.71559 -4.95195
 4.40 7.75  4.324  4.324  4.324  4.324  4.325 18.81862 18.98298 -4.68457
 4.40 8.00  4.518  4.518  4.518  4.518  4.518 19.03703 19.25382 -4.41375
 4.45-2.00 -0.436 -0.436 -0.435 -0.433 -0.430  9.12710  9.08991-14.57790
 4.45-1.50 -0.433 -0.433 -0.433 -0.431 -0.427  9.62716  9.58973-14.07785
 4.45-1.00 -0.430 -0.430 -0.429 -0.427 -0.421 10.12711 10.08990-13.57774
 4.45-0.50 -0.425 -0.424 -0.424 -0.420 -0.414 10.62685 10.59017-13.07743
 4.45 0.00 -0.418 -0.417 -0.416 -0.412 -0.404 11.12613 11.09096-12.57659
 4.45 0.50 -0.406 -0.405 -0.403 -0.398 -0.388 11.62428 11.59295-12.07469
 4.45 1.00 -0.385 -0.384 -0.382 -0.374 -0.360 12.12057 12.09691-11.57057
 4.45 1.25 -0.369 -0.368 -0.365 -0.357 -0.341 12.36795 12.34959-11.31794
 4.45 1.50 -0.348 -0.346 -0.342 -0.333 -0.314 12.61532 12.60228-11.06530
 4.45 1.75 -0.320 -0.318 -0.315 -0.304 -0.283 12.86325 12.85444-10.81310
 4.45 2.00 -0.285 -0.282 -0.278 -0.266 -0.243 13.11160 13.10619-10.56130
 4.45 2.25 -0.242 -0.240 -0.236 -0.222 -0.197 13.36048 13.35732-10.31024
 4.45 2.50 -0.191 -0.189 -0.183 -0.169 -0.142 13.60970 13.60810-10.05953
 4.45 2.75 -0.128 -0.126 -0.120 -0.105 -0.076 13.85923 13.85858 -9.80909
 4.45 3.00 -0.053 -0.050 -0.045 -0.028  0.001 14.10890 14.10890 -9.55878
 4.45 3.20  0.021  0.023  0.029  0.046  0.078 14.30874 14.30907 -9.35862
 4.45 3.40  0.108  0.110  0.116  0.133  0.164 14.50859 14.50921 -9.15847
 4.45 3.60  0.211  0.213  0.220  0.236  0.267 14.70847 14.70934 -8.95831
 4.45 3.80  0.331  0.335  0.340  0.356  0.386 14.90835 14.90946 -8.75815
 4.45 4.00  0.468  0.470  0.475  0.489  0.517 15.10823 15.10958 -8.55799
 4.45 4.20  0.625  0.626  0.631  0.645  0.671 15.30809 15.30971 -8.35787
 4.45 4.40  0.793  0.794  0.799  0.811  0.834 15.50795 15.50984 -8.15775
 4.45 4.60  0.973  0.975  0.979  0.989  1.011 15.70782 15.71004 -7.95762
 4.45 4.80  1.164  1.166  1.169  1.179  1.199 15.90768 15.91031 -7.75743
 4.45 5.00  1.360  1.362  1.365  1.372  1.390 16.10755 16.11059 -7.55721
 4.45 5.20  1.566  1.566  1.569  1.576  1.590 16.30722 16.31087 -7.35692
 4.45 5.40  1.772  1.773  1.775  1.781  1.793 16.50677 16.51115 -7.15654
 4.45 5.60  1.982  1.983  1.984  1.989  1.999 16.70620 16.71157 -6.95604
 4.45 5.80  2.194  2.194  2.196  2.200  2.208 16.90545 16.91229 -6.75533
 4.45 6.00  2.407  2.407  2.409  2.411  2.417 17.10449 17.11327 -6.55440
 4.45 6.25  2.679  2.679  2.680  2.681  2.687 17.35270 17.36497 -6.30265
 4.45 6.50  2.949  2.949  2.950  2.951  2.954 17.60010 17.61742 -6.05012
 4.45 6.75  3.225  3.225  3.225  3.227  3.229 17.84615 17.87123 -5.79637
 4.45 7.00  3.497  3.497  3.497  3.497  3.499 18.09061 18.12646 -5.54121
 4.45 7.25  3.765  3.765  3.766  3.766  3.767 18.33303 18.38334 -5.28431
 4.45 7.50  4.021  4.021  4.021  4.021  4.022 18.57276 18.64227 -5.02530
 4.45 7.75  4.261  4.261  4.261  4.261  4.262 18.80817 18.90408 -4.76343
 4.45 8.00  4.489  4.489  4.489  4.489  4.489 19.03981 19.16850 -4.49894
 4.50-2.00 -0.435 -0.435 -0.434 -0.432 -0.429  9.07737  9.03981-14.62783
 4.50-1.50 -0.431 -0.430 -0.429 -0.428 -0.424  9.57726  9.53970-14.12784
 4.50-1.00 -0.425 -0.425 -0.424 -0.423 -0.418 10.07737 10.03981-13.62783
 4.50-0.50 -0.420 -0.420 -0.419 -0.417 -0.411 10.57715 10.53983-13.12779
 4.50 0.00 -0.414 -0.414 -0.413 -0.410 -0.403 11.07700 11.03981-12.62764
 4.50 0.50 -0.405 -0.405 -0.403 -0.400 -0.390 11.57692 11.54008-12.12755
 4.50 1.00 -0.389 -0.389 -0.387 -0.381 -0.369 12.07628 12.04060-11.62690
 4.50 1.25 -0.375 -0.375 -0.373 -0.367 -0.354 12.32578 12.29119-11.37635
 4.50 1.50 -0.357 -0.356 -0.354 -0.346 -0.331 12.57507 12.54208-11.12552
 4.50 1.75 -0.331 -0.330 -0.326 -0.318 -0.301 12.82370 12.79346-10.87407
 4.50 2.00 -0.295 -0.294 -0.290 -0.281 -0.262 13.07188 13.04532-10.62215
 4.50 2.25 -0.250 -0.248 -0.245 -0.234 -0.213 13.31946 13.29796-10.36958
 4.50 2.50 -0.196 -0.194 -0.190 -0.177 -0.152 13.56703 13.55060-10.11702
 4.50 2.75 -0.133 -0.131 -0.126 -0.111 -0.084 13.81472 13.80309 -9.86456
 4.50 3.00 -0.059 -0.057 -0.050 -0.034 -0.004 14.06258 14.05538 -9.61226
 4.50 3.20  0.008  0.010  0.016  0.033  0.066 14.26137 14.25653 -9.41109
 4.50 3.40  0.085  0.087  0.094  0.111  0.146 14.46041 14.45741 -9.21017
 4.50 3.60  0.174  0.177  0.184  0.202  0.236 14.65971 14.65800 -9.00947
 4.50 3.80  0.279  0.281  0.288  0.304  0.338 14.85919 14.85844 -8.80893
 4.50 4.00  0.396  0.398  0.405  0.421  0.452 15.05881 15.05881 -8.60854
 4.50 4.20  0.534  0.536  0.542  0.557  0.586 15.25857 15.25914 -8.40835
 4.50 4.40  0.686  0.687  0.692  0.705  0.730 15.45834 15.45943 -8.20817
 4.50 4.60  0.853  0.854  0.858  0.868  0.891 15.65812 15.65963 -8.00796
 4.50 4.80  1.032  1.033  1.036  1.046  1.065 15.85789 15.85979 -7.80772
 4.50 5.00  1.217  1.219  1.221  1.228  1.244 16.05767 16.05994 -7.60748
 4.50 5.20  1.417  1.418  1.420  1.427  1.440 16.25746 16.26017 -7.40727
 4.50 5.40  1.619  1.620  1.622  1.627  1.638 16.45725 16.46046 -7.20707
 4.50 5.60  1.826  1.826  1.828  1.832  1.842 16.65700 16.66082 -7.00680
 4.50 5.80  2.037  2.037  2.039  2.043  2.052 16.85662 16.86128 -6.80641
 4.50 6.00  2.249  2.250  2.250  2.253  2.260 17.05614 17.06183 -6.60590
 4.50 6.25  2.519  2.520  2.521  2.523  2.528 17.30526 17.31260 -6.35508
 4.50 6.50  2.788  2.788  2.789  2.790  2.794 17.55400 17.56360 -6.10391
 4.50 6.75  3.066  3.067  3.067  3.068  3.071 17.80221 17.81546 -5.85210
 4.50 7.00  3.344  3.344  3.344  3.345  3.347 18.04961 18.06819 -5.59946
 4.50 7.25  3.624  3.624  3.624  3.624  3.626 18.29549 18.32204 -5.34560
 4.50 7.50  3.898  3.898  3.898  3.898  3.899 18.53958 18.57738 -5.09023
 4.50 7.75  4.162  4.162  4.162  4.163  4.163 18.78081 18.83507 -4.83249
 4.50 8.00  4.411  4.411  4.411  4.411  4.411 19.01953 19.09482 -4.57268
 4.55-2.00 -0.436 -0.435 -0.435 -0.433 -0.430  9.02735  8.98976-14.67778
 4.55-1.50 -0.433 -0.433 -0.432 -0.431 -0.427  9.52724  9.48968-14.17783
 4.55-1.00 -0.428 -0.428 -0.428 -0.425 -0.421 10.02735  9.98976-13.67778
 4.55-0.50 -0.423 -0.423 -0.421 -0.419 -0.414 10.52724 10.48982-13.17783
 4.55 0.00 -0.414 -0.414 -0.413 -0.410 -0.403 11.02735 10.98981-12.67778
 4.55 0.50 -0.405 -0.404 -0.403 -0.400 -0.391 11.52711 11.48982-12.17777
 4.55 1.00 -0.391 -0.391 -0.389 -0.384 -0.373 12.02694 11.98994-11.67757
 4.55 1.25 -0.381 -0.381 -0.379 -0.373 -0.362 12.27690 12.24001-11.42754
 4.55 1.50 -0.368 -0.368 -0.365 -0.359 -0.347 12.52686 12.49010-11.17751
 4.55 1.75 -0.350 -0.350 -0.347 -0.340 -0.326 12.77674 12.74031-10.92730
 4.55 2.00 -0.325 -0.324 -0.321 -0.313 -0.297 13.02653 12.99065-10.67696
 4.55 2.25 -0.287 -0.286 -0.283 -0.274 -0.256 13.27600 13.24116-10.42645
 4.55 2.50 -0.237 -0.236 -0.233 -0.222 -0.202 13.52518 13.49192-10.17568
 4.55 2.75 -0.171 -0.169 -0.165 -0.154 -0.131 13.77401 13.74322 -9.92439
 4.55 3.00 -0.089 -0.088 -0.083 -0.071 -0.045 14.02243 13.99498 -9.67264
 4.55 3.20 -0.014 -0.013 -0.008  0.005  0.032 14.22049 14.19692 -9.47065
 4.55 3.40  0.068  0.069  0.075  0.090  0.119 14.41856 14.39893 -9.26863
 4.55 3.60  0.158  0.160  0.166  0.181  0.212 14.61663 14.60101 -9.06660
 4.55 3.80  0.257  0.259  0.266  0.282  0.314 14.81472 14.80309 -8.86457
 4.55 4.00  0.368  0.370  0.376  0.393  0.426 15.01284 15.00518 -8.66254
 4.55 4.20  0.492  0.494  0.500  0.515  0.548 15.21144 15.20643 -8.46121
 4.55 4.40  0.628  0.630  0.636  0.650  0.680 15.41033 15.40744 -8.26014
 4.55 4.60  0.780  0.782  0.786  0.799  0.826 15.60958 15.60825 -8.05932
 4.55 4.80  0.945  0.947  0.951  0.961  0.984 15.80906 15.80893 -7.85866
 4.55 5.00  1.118  1.119  1.122  1.131  1.148 16.00860 16.00945 -7.65817
 4.55 5.20  1.305  1.306  1.309  1.316  1.331 16.20816 16.20973 -7.45788
 4.55 5.40  1.496  1.497  1.499  1.504  1.516 16.40777 16.41001 -7.25760
 4.55 5.60  1.694  1.696  1.697  1.701  1.711 16.60745 16.61034 -7.05730
 4.55 5.80  1.900  1.901  1.902  1.905  1.913 16.80717 16.81075 -6.85696
 4.55 6.00  2.106  2.107  2.108  2.110  2.116 17.00690 17.01115 -6.65659
 4.55 6.25  2.372  2.373  2.373  2.375  2.380 17.25631 17.26165 -6.40606
 4.55 6.50  2.638  2.638  2.638  2.641  2.644 17.50556 17.51215 -6.15540
 4.55 6.75  2.911  2.911  2.911  2.912  2.915 17.75466 17.76311 -5.90442
 4.55 7.00  3.187  3.187  3.187  3.188  3.189 18.00346 18.01452 -5.65306
 4.55 7.25  3.467  3.467  3.467  3.468  3.470 18.25133 18.26654 -5.40109
 4.55 7.50  3.747  3.747  3.747  3.747  3.748 18.49817 18.51944 -5.14825
 4.55 7.75  4.022  4.023  4.023  4.023  4.024 18.74332 18.77393 -4.89370
 4.55 8.00  4.290  4.290  4.290  4.290  4.291 18.98700 19.02979 -4.63771
 4.60-2.00 -0.432 -0.432 -0.432 -0.430 -0.427  8.97727  8.93977-14.72793
 4.60-1.50 -0.431 -0.431 -0.430 -0.428 -0.424  9.47727  9.43965-14.22790
 4.60-1.00 -0.428 -0.428 -0.428 -0.425 -0.421  9.97727  9.93977-13.72793
 4.60-0.50 -0.424 -0.424 -0.424 -0.422 -0.417 10.47727 10.43981-13.22783
 4.60 0.00 -0.419 -0.419 -0.419 -0.416 -0.410 10.97722 10.93982-12.72769
 4.60 0.50 -0.411 -0.411 -0.410 -0.407 -0.400 11.47712 11.43981-12.22783
 4.60 1.00 -0.398 -0.398 -0.398 -0.393 -0.385 11.97717 11.93987-11.72769
 4.60 1.25 -0.390 -0.390 -0.388 -0.384 -0.374 12.22715 12.18984-11.47772
 4.60 1.50 -0.379 -0.378 -0.377 -0.372 -0.361 12.47712 12.43981-11.22775
 4.60 1.75 -0.365 -0.364 -0.363 -0.356 -0.343 12.72709 12.68991-10.97774
 4.60 2.00 -0.345 -0.345 -0.343 -0.336 -0.321 12.97704 12.94002-10.72769
 4.60 2.25 -0.319 -0.319 -0.315 -0.308 -0.292 13.22696 13.19007-10.47757
 4.60 2.50 -0.282 -0.282 -0.278 -0.270 -0.251 13.47683 13.44012-10.22738
 4.60 2.75 -0.231 -0.230 -0.227 -0.217 -0.196 13.72663 13.69039 -9.97713
 4.60 3.00 -0.164 -0.162 -0.159 -0.148 -0.124 13.97631 13.94082 -9.72677
 4.60 3.20 -0.094 -0.093 -0.088 -0.076 -0.052 14.17589 14.14124 -9.52635
 4.60 3.40 -0.012 -0.010 -0.006  0.006  0.032 14.37531 14.34182 -9.32577
 4.60 3.60  0.083  0.086  0.089  0.102  0.130 14.57449 14.54267 -9.12492
 4.60 3.80  0.193  0.194  0.199  0.213  0.240 14.77337 14.74391 -8.92369
 4.60 4.00  0.313  0.315  0.319  0.333  0.361 14.97197 14.94547 -8.72216
 4.60 4.20  0.445  0.447  0.451  0.465  0.492 15.16999 15.14756 -8.52008
 4.60 4.40  0.586  0.586  0.591  0.604  0.631 15.36801 15.34966 -8.31800
 4.60 4.60  0.733  0.735  0.739  0.751  0.776 15.56603 15.55174 -8.11592
 4.60 4.80  0.890  0.891  0.895  0.906  0.929 15.76409 15.75374 -7.91392
 4.60 5.00  1.053  1.054  1.058  1.067  1.087 15.96218 15.95564 -7.71197
 4.60 5.20  1.226  1.227  1.230  1.238  1.256 16.16081 16.15696 -7.51062
 4.60 5.40  1.405  1.405  1.408  1.414  1.429 16.35970 16.35804 -7.30953
 4.60 5.60  1.591  1.592  1.594  1.599  1.610 16.55891 16.55887 -7.10873
 4.60 5.80  1.785  1.785  1.786  1.791  1.800 16.75828 16.75956 -6.90808
 4.60 6.00  1.980  1.981  1.982  1.985  1.992 16.95770 16.96014 -6.70752
 4.60 6.25  2.237  2.238  2.238  2.240  2.246 17.20704 17.21074 -6.45690
 4.60 6.50  2.495  2.495  2.495  2.497  2.500 17.45637 17.46135 -6.20628
 4.60 6.75  2.757  2.757  2.757  2.759  2.761 17.70567 17.71206 -5.95554
 4.60 7.00  3.024  3.024  3.025  3.026  3.028 17.95492 17.96289 -5.70465
 4.60 7.25  3.299  3.299  3.299  3.300  3.302 18.20368 18.21406 -5.45351
 4.60 7.50  3.574  3.574  3.575  3.575  3.576 18.45194 18.46568 -5.20197
 4.60 7.75  3.850  3.850  3.851  3.851  3.852 18.69933 18.71822 -4.94946
 4.60 8.00  4.121  4.121  4.121  4.121  4.122 18.94596 18.97151 -4.69616
 4.65-2.00 -0.429 -0.429 -0.429 -0.428 -0.423  8.92727  8.88975-14.77780
 4.65-1.50 -0.428 -0.428 -0.427 -0.425 -0.421  9.42716  9.38970-14.27786
 4.65-1.00 -0.425 -0.425 -0.424 -0.424 -0.419  9.92727  9.88975-13.77780
 4.65-0.50 -0.424 -0.424 -0.423 -0.420 -0.416 10.42716 10.38970-13.27786
 4.65 0.00 -0.420 -0.420 -0.419 -0.417 -0.412 10.92727 10.88981-12.77780
 4.65 0.50 -0.415 -0.415 -0.414 -0.412 -0.405 11.42716 11.38970-12.27778
 4.65 1.00 -0.407 -0.407 -0.405 -0.403 -0.395 11.92722 11.88986-11.77780
 4.65 1.25 -0.401 -0.400 -0.400 -0.396 -0.388 12.17719 12.13987-11.52780
 4.65 1.50 -0.394 -0.393 -0.392 -0.388 -0.378 12.42716 12.38987-11.27778
 4.65 1.75 -0.383 -0.382 -0.381 -0.377 -0.367 12.67714 12.63989-11.02766
 4.65 2.00 -0.369 -0.368 -0.368 -0.362 -0.350 12.92711 12.88992-10.77754
 4.65 2.25 -0.350 -0.349 -0.347 -0.341 -0.328 13.17706 13.13999-10.52758
 4.65 2.50 -0.323 -0.322 -0.320 -0.313 -0.298 13.42700 13.39005-10.27761
 4.65 2.75 -0.285 -0.285 -0.282 -0.274 -0.256 13.67695 13.64010-10.02760
 4.65 3.00 -0.233 -0.232 -0.229 -0.220 -0.199 13.92691 13.89014 -9.77754
 4.65 3.20 -0.178 -0.177 -0.174 -0.164 -0.141 14.12678 14.09021 -9.57742
 4.65 3.40 -0.111 -0.109 -0.105 -0.094 -0.070 14.32661 14.29033 -9.37724
 4.65 3.60 -0.027 -0.026 -0.023 -0.010  0.014 14.52642 14.49052 -9.17699
 4.65 3.80  0.069  0.071  0.075  0.087  0.115 14.72620 14.69083 -8.97666
 4.65 4.00  0.183  0.184  0.188  0.201  0.229 14.92593 14.89126 -8.77625
 4.65 4.20  0.313  0.315  0.318  0.331  0.359 15.12542 15.09182 -8.57572
 4.65 4.40  0.457  0.458  0.463  0.475  0.501 15.32468 15.29259 -8.37501
 4.65 4.60  0.615  0.616  0.619  0.631  0.656 15.52364 15.49368 -8.17392
 4.65 4.80  0.783  0.785  0.788  0.798  0.821 15.72226 15.69515 -7.97238
 4.65 5.00  0.957  0.958  0.961  0.970  0.989 15.92059 15.89691 -7.77057
 4.65 5.20  1.135  1.136  1.139  1.147  1.164 16.11848 16.09912 -7.56843
 4.65 5.40  1.315  1.316  1.318  1.325  1.339 16.31637 16.30133 -7.36627
 4.65 5.60  1.496  1.497  1.498  1.504  1.517 16.51431 16.50346 -7.16417
 4.65 5.80  1.679  1.680  1.681  1.686  1.697 16.71244 16.70537 -6.96223
 4.65 6.00  1.865  1.865  1.867  1.871  1.880 16.91073 16.90709 -6.76045
 4.65 6.25  2.105  2.107  2.108  2.110  2.117 17.15915 17.15856 -6.50900
 4.65 6.50  2.350  2.351  2.351  2.353  2.358 17.40790 17.40977 -6.25783
 4.65 6.75  2.600  2.601  2.601  2.602  2.606 17.65701 17.66073 -6.00690
 4.65 7.00  2.853  2.853  2.853  2.854  2.857 17.90612 17.91169 -5.75597
 4.65 7.25  3.116  3.116  3.116  3.118  3.119 18.15512 18.16270 -5.50499
 4.65 7.50  3.380  3.380  3.380  3.381  3.382 18.40398 18.41380 -5.25391
 4.65 7.75  3.648  3.648  3.648  3.648  3.649 18.65236 18.66540 -5.00231
 4.65 8.00  3.912  3.912  3.912  3.912  3.913 18.90037 18.91735 -4.75031
 4.70-2.00 -0.429 -0.429 -0.429 -0.428 -0.423  8.87726  8.83973-14.82798
 4.70-1.50 -0.427 -0.427 -0.425 -0.424 -0.419  9.37731  9.33965-14.32790
 4.70-1.00 -0.424 -0.423 -0.423 -0.420 -0.415  9.87726  9.83979-13.82769
 4.70-0.50 -0.420 -0.420 -0.420 -0.418 -0.412 10.37731 10.33965-13.32790
 4.70 0.00 -0.418 -0.418 -0.417 -0.415 -0.409 10.87726 10.83979-12.82769
 4.70 0.50 -0.414 -0.414 -0.413 -0.411 -0.405 11.37712 11.33985-12.32781
 4.70 1.00 -0.409 -0.409 -0.408 -0.405 -0.398 11.87720 11.83986-11.82769
 4.70 1.25 -0.405 -0.405 -0.404 -0.401 -0.394 12.12716 12.08985-11.57775
 4.70 1.50 -0.400 -0.400 -0.399 -0.396 -0.388 12.37712 12.33985-11.32781
 4.70 1.75 -0.394 -0.393 -0.392 -0.389 -0.380 12.62713 12.58988-11.07775
 4.70 2.00 -0.385 -0.385 -0.383 -0.379 -0.370 12.87714 12.83992-10.82769
 4.70 2.25 -0.373 -0.372 -0.371 -0.366 -0.355 13.12714 13.08988-10.57770
 4.70 2.50 -0.355 -0.355 -0.354 -0.348 -0.336 13.37712 13.33985-10.32772
 4.70 2.75 -0.331 -0.330 -0.328 -0.322 -0.308 13.62708 13.58995-10.07771
 4.70 3.00 -0.296 -0.294 -0.292 -0.285 -0.270 13.87703 13.84004 -9.82769
 4.70 3.20 -0.256 -0.255 -0.252 -0.244 -0.227 14.07699 14.04005 -9.62760
 4.70 3.40 -0.206 -0.204 -0.201 -0.193 -0.173 14.27696 14.24005 -9.42750
 4.70 3.60 -0.141 -0.139 -0.137 -0.126 -0.105 14.47691 14.44009 -9.22738
 4.70 3.80 -0.060 -0.059 -0.056 -0.045 -0.021 14.67681 14.64021 -9.02725
 4.70 4.00  0.036  0.037  0.041  0.052  0.078 14.87668 14.84036 -8.82711
 4.70 4.20  0.150  0.151  0.155  0.167  0.194 15.07653 15.04052 -8.62696
 4.70 4.40  0.280  0.282  0.286  0.298  0.326 15.27633 15.24072 -8.42679
 4.70 4.60  0.427  0.428  0.432  0.444  0.472 15.47607 15.44101 -8.22657
 4.70 4.80  0.587  0.589  0.592  0.604  0.630 15.67569 15.64145 -8.02618
 4.70 5.00  0.759  0.760  0.763  0.773  0.798 15.87518 15.84205 -7.82565
 4.70 5.20  0.942  0.943  0.946  0.954  0.977 16.07440 16.04286 -7.62479
 4.70 5.40  1.131  1.131  1.134  1.141  1.160 16.27336 16.24394 -7.42363
 4.70 5.60  1.322  1.323  1.326  1.332  1.347 16.47190 16.44551 -7.22208
 4.70 5.80  1.516  1.517  1.519  1.524  1.538 16.67010 16.64745 -7.02022
 4.70 6.00  1.709  1.709  1.711  1.715  1.727 16.86812 16.84954 -6.81816
 4.70 6.25  1.950  1.950  1.951  1.955  1.964 17.11539 17.10231 -6.56531
 4.70 6.50  2.189  2.189  2.191  2.194  2.200 17.36267 17.35507 -6.31247
 4.70 6.75  2.431  2.431  2.432  2.434  2.438 17.61045 17.60734 -6.06018
 4.70 7.00  2.661  2.661  2.662  2.663  2.668 17.85854 17.85926 -5.80827
 4.70 7.25  2.910  2.910  2.911  2.912  2.914 18.10706 18.11059 -5.55692
 4.70 7.50  3.160  3.160  3.160  3.161  3.163 18.35564 18.36192 -5.30557
 4.70 7.75  3.413  3.413  3.413  3.414  3.416 18.60426 18.61336 -5.05416
 4.70 8.00  3.667  3.667  3.668  3.668  3.669 18.85291 18.86487 -4.80272
 4.75-2.00 -0.431 -0.431 -0.430 -0.428 -0.424  8.82730  8.78972-14.87778
 4.75-1.50 -0.428 -0.428 -0.428 -0.426 -0.421  9.32715  9.28981-14.37789
 4.75-1.00 -0.425 -0.425 -0.424 -0.423 -0.418  9.82724  9.78979-13.87778
 4.75-0.50 -0.421 -0.421 -0.420 -0.419 -0.414 10.32716 10.28981-13.37789
 4.75 0.00 -0.417 -0.416 -0.416 -0.413 -0.407 10.82724 10.78979-12.87778
 4.75 0.50 -0.412 -0.411 -0.410 -0.408 -0.401 11.32716 11.28981-12.37779
 4.75 1.00 -0.407 -0.407 -0.405 -0.403 -0.396 11.82724 11.78979-11.87778
 4.75 1.25 -0.404 -0.403 -0.403 -0.400 -0.392 12.07720 12.03980-11.62779
 4.75 1.50 -0.400 -0.400 -0.400 -0.396 -0.389 12.32716 12.28981-11.37779
 4.75 1.75 -0.396 -0.396 -0.396 -0.392 -0.384 12.57717 12.53984-11.12779
 4.75 2.00 -0.391 -0.391 -0.390 -0.387 -0.378 12.82718 12.78986-10.87778
 4.75 2.25 -0.383 -0.383 -0.382 -0.378 -0.369 13.07717 13.03984-10.62775
 4.75 2.50 -0.373 -0.373 -0.372 -0.368 -0.357 13.32715 13.28981-10.37768
 4.75 2.75 -0.357 -0.356 -0.355 -0.351 -0.340 13.57710 13.53991-10.12757
 4.75 3.00 -0.335 -0.335 -0.333 -0.327 -0.315 13.82705 13.79000 -9.87746
 4.75 3.20 -0.310 -0.309 -0.308 -0.301 -0.288 14.02701 13.99002 -9.67751
 4.75 3.40 -0.276 -0.276 -0.274 -0.267 -0.251 14.22697 14.19003 -9.47755
 4.75 3.60 -0.232 -0.231 -0.229 -0.222 -0.204 14.42693 14.39006 -9.27757
 4.75 3.80 -0.174 -0.173 -0.171 -0.162 -0.143 14.62689 14.59013 -9.07753
 4.75 4.00 -0.102 -0.101 -0.097 -0.089 -0.067 14.82685 14.79022 -8.87746
 4.75 4.20 -0.010 -0.009 -0.007  0.003  0.026 15.02673 14.99031 -8.67735
 4.75 4.40  0.097  0.098  0.102  0.112  0.138 15.22660 15.19042 -8.47723
 4.75 4.60  0.224  0.225  0.229  0.240  0.266 15.42649 15.39054 -8.27710
 4.75 4.80  0.368  0.369  0.373  0.384  0.411 15.62638 15.59068 -8.07696
 4.75 5.00  0.526  0.528  0.531  0.543  0.569 15.82627 15.79085 -7.87680
 4.75 5.20  0.699  0.699  0.702  0.713  0.738 16.02605 15.99108 -7.67654
 4.75 5.40  0.880  0.880  0.883  0.893  0.916 16.22572 16.19140 -7.47616
 4.75 5.60  1.067  1.068  1.071  1.079  1.100 16.42526 16.39188 -7.27563
 4.75 5.80  1.260  1.260  1.263  1.270  1.289 16.62457 16.59264 -7.07486
 4.75 6.00  1.456  1.457  1.459  1.465  1.482 16.82367 16.79365 -6.87387
 4.75 6.25  1.704  1.705  1.707  1.712  1.725 17.07204 17.04536 -6.62215
 4.75 6.50  1.954  1.956  1.957  1.961  1.971 17.31994 17.29754 -6.36998
 4.75 6.75  2.203  2.203  2.204  2.207  2.215 17.56716 17.55047 -6.11711
 4.75 7.00  2.440  2.440  2.441  2.444  2.450 17.81438 17.80339 -5.86423
 4.75 7.25  2.682  2.682  2.683  2.684  2.689 18.06172 18.05609 -5.61153
 4.75 7.50  2.924  2.924  2.924  2.925  2.929 18.30920 18.30857 -5.35902
 4.75 7.75  3.165  3.165  3.165  3.167  3.168 18.55712 18.56067 -5.10691
 4.75 8.00  3.406  3.406  3.407  3.408  3.410 18.80536 18.81245 -4.85511
 4.80-2.00 -0.429 -0.429 -0.429 -0.428 -0.423  8.77728  8.73973-14.92775
 4.80-1.50 -0.428 -0.428 -0.428 -0.426 -0.421  9.27715  9.23980-14.42783
 4.80-1.00 -0.427 -0.427 -0.426 -0.424 -0.419  9.77728  9.73973-13.92775
 4.80-0.50 -0.424 -0.424 -0.424 -0.421 -0.416 10.27715 10.23980-13.42783
 4.80 0.00 -0.420 -0.420 -0.419 -0.418 -0.412 10.77728 10.73981-12.92775
 4.80 0.50 -0.415 -0.415 -0.414 -0.412 -0.406 11.27715 11.23980-12.42783
 4.80 1.00 -0.408 -0.408 -0.407 -0.405 -0.398 11.77721 11.73981-11.92775
 4.80 1.25 -0.404 -0.403 -0.403 -0.400 -0.392 12.02718 11.98981-11.67779
 4.80 1.50 -0.400 -0.399 -0.398 -0.395 -0.387 12.27715 12.23980-11.42783
 4.80 1.75 -0.395 -0.395 -0.394 -0.390 -0.382 12.52718 12.48984-11.17779
 4.80 2.00 -0.389 -0.389 -0.388 -0.384 -0.375 12.77721 12.73989-10.92775
 4.80 2.25 -0.384 -0.383 -0.382 -0.378 -0.368 13.02719 12.98984-10.67772
 4.80 2.50 -0.377 -0.376 -0.375 -0.371 -0.360 13.27715 13.23980-10.42771
 4.80 2.75 -0.367 -0.367 -0.365 -0.362 -0.350 13.52711 13.48988-10.17773
 4.80 3.00 -0.354 -0.353 -0.351 -0.348 -0.336 13.77706 13.73997 -9.92775
 4.80 3.20 -0.338 -0.337 -0.336 -0.331 -0.319 13.97701 13.94000 -9.72770
 4.80 3.40 -0.317 -0.317 -0.315 -0.310 -0.297 14.17695 14.14003 -9.52763
 4.80 3.60 -0.289 -0.289 -0.287 -0.281 -0.267 14.37692 14.34007 -9.32755
 4.80 3.80 -0.251 -0.250 -0.249 -0.243 -0.227 14.57692 14.54010 -9.12747
 4.80 4.00 -0.201 -0.200 -0.199 -0.192 -0.175 14.77692 14.74013 -8.92738
 4.80 4.20 -0.136 -0.135 -0.132 -0.125 -0.106 14.97683 14.94019 -8.72737
 4.80 4.40 -0.056 -0.055 -0.052 -0.043 -0.023 15.17674 15.14026 -8.52736
 4.80 4.60  0.043  0.043  0.046  0.055  0.078 15.37666 15.34034 -8.32729
 4.80 4.80  0.160  0.162  0.164  0.174  0.199 15.57661 15.54043 -8.12715
 4.80 5.00  0.295  0.296  0.299  0.309  0.334 15.77656 15.74052 -7.92702
 4.80 5.20  0.449  0.450  0.453  0.463  0.488 15.97646 15.94062 -7.72688
 4.80 5.40  0.616  0.617  0.620  0.630  0.655 16.17632 16.14074 -7.52674
 4.80 5.60  0.794  0.794  0.798  0.807  0.831 16.37613 16.34091 -7.32656
 4.80 5.80  0.979  0.980  0.983  0.992  1.014 16.57588 16.54122 -7.12628
 4.80 6.00  1.171  1.172  1.175  1.183  1.203 16.77554 16.74162 -6.92592
 4.80 6.25  1.414  1.415  1.417  1.424  1.441 17.02487 16.99232 -6.67528
 4.80 6.50  1.661  1.661  1.663  1.668  1.684 17.27393 17.24329 -6.42435
 4.80 6.75  1.908  1.909  1.911  1.915  1.928 17.52265 17.49472 -6.17282
 4.80 7.00  2.158  2.159  2.160  2.164  2.174 17.77093 17.74664 -5.92082
 4.80 7.25  2.403  2.403  2.404  2.407  2.414 18.01832 17.99927 -5.66825
 4.80 7.50  2.651  2.651  2.651  2.654  2.660 18.26553 18.25212 -5.41544
 4.80 7.75  2.891  2.891  2.892  2.893  2.898 18.51266 18.50507 -5.16250
 4.80 8.00  3.131  3.131  3.132  3.133  3.135 18.75967 18.75815 -4.90939
 4.85-2.00 -0.429 -0.428 -0.428 -0.427 -0.423  8.72730  8.68975-14.97798
 4.85-1.50 -0.427 -0.427 -0.427 -0.424 -0.420  9.22712  9.18977-14.47795
 4.85-1.00 -0.424 -0.424 -0.424 -0.423 -0.418  9.72730  9.68975-13.97798
 4.85-0.50 -0.424 -0.423 -0.423 -0.420 -0.415 10.22712 10.18977-13.47782
 4.85 0.00 -0.421 -0.421 -0.420 -0.419 -0.413 10.72730 10.68975-12.97798
 4.85 0.50 -0.418 -0.418 -0.417 -0.415 -0.409 11.22711 11.18977-12.47782
 4.85 1.00 -0.413 -0.413 -0.412 -0.410 -0.403 11.72722 11.68984-11.97798
 4.85 1.25 -0.410 -0.410 -0.409 -0.407 -0.400 11.97717 11.93981-11.72792
 4.85 1.50 -0.406 -0.405 -0.405 -0.403 -0.395 12.22712 12.18977-11.47782
 4.85 1.75 -0.400 -0.400 -0.400 -0.397 -0.389 12.47717 12.43981-11.22769
 4.85 2.00 -0.395 -0.395 -0.394 -0.391 -0.382 12.72722 12.68984-10.97757
 4.85 2.25 -0.387 -0.387 -0.386 -0.383 -0.373 12.97717 12.93981-10.72769
 4.85 2.50 -0.378 -0.378 -0.377 -0.373 -0.364 13.22712 13.18977-10.47782
 4.85 2.75 -0.368 -0.368 -0.368 -0.363 -0.353 13.47713 13.43985-10.22769
 4.85 3.00 -0.356 -0.356 -0.355 -0.351 -0.339 13.72713 13.68993 -9.97757
 4.85 3.20 -0.345 -0.345 -0.344 -0.339 -0.327 13.92713 13.88999 -9.77762
 4.85 3.40 -0.331 -0.331 -0.329 -0.325 -0.312 14.12712 14.09003 -9.57766
 4.85 3.60 -0.313 -0.312 -0.312 -0.306 -0.293 14.32709 14.29007 -9.37767
 4.85 3.80 -0.289 -0.289 -0.287 -0.282 -0.268 14.52703 14.49009 -9.17762
 4.85 4.00 -0.258 -0.257 -0.256 -0.251 -0.236 14.72697 14.69011 -8.97757
 4.85 4.20 -0.215 -0.213 -0.213 -0.206 -0.190 14.92693 14.89009 -8.77752
 4.85 4.40 -0.159 -0.159 -0.157 -0.150 -0.134 15.12688 15.09006 -8.57746
 4.85 4.60 -0.089 -0.088 -0.086 -0.079 -0.061 15.32683 15.29012 -8.37737
 4.85 4.80 -0.001  0.000  0.002  0.010  0.029 15.52678 15.49024 -8.17727
 4.85 5.00  0.104  0.104  0.107  0.115  0.136 15.72673 15.69037 -7.97716
 4.85 5.20  0.230  0.231  0.234  0.243  0.264 15.92657 15.89047 -7.77706
 4.85 5.40  0.373  0.373  0.376  0.385  0.407 16.12642 16.09056 -7.57695
 4.85 5.60  0.531  0.533  0.535  0.544  0.566 16.32629 16.29069 -7.37687
 4.85 5.80  0.705  0.706  0.708  0.716  0.738 16.52618 16.49087 -7.17681
 4.85 6.00  0.887  0.887  0.890  0.897  0.918 16.72607 16.69108 -6.97675
 4.85 6.25  1.123  1.125  1.127  1.133  1.152 16.97575 16.94137 -6.72639
 4.85 6.50  1.365  1.365  1.367  1.374  1.391 17.22531 17.19173 -6.47586
 4.85 6.75  1.607  1.608  1.610  1.615  1.630 17.47477 17.44233 -6.22519
 4.85 7.00  1.856  1.856  1.858  1.862  1.875 17.72403 17.69320 -5.97429
 4.85 7.25  2.097  2.097  2.099  2.102  2.113 17.97282 17.94445 -5.72304
 4.85 7.50  2.345  2.345  2.345  2.349  2.357 18.22116 18.19618 -5.47134
 4.85 7.75  2.587  2.587  2.588  2.590  2.597 18.46889 18.44860 -5.21888
 4.85 8.00  2.832  2.832  2.833  2.834  2.839 18.71609 18.70165 -4.96577
 4.90-2.00 -0.432 -0.431 -0.431 -0.429 -0.426  8.67724  8.63979-15.02784
 4.90-1.50 -0.428 -0.428 -0.428 -0.427 -0.423  9.17725  9.13956-14.52783
 4.90-1.00 -0.425 -0.425 -0.425 -0.424 -0.419  9.67724  9.63979-14.02784
 4.90-0.50 -0.423 -0.423 -0.421 -0.420 -0.415 10.17725 10.13988-13.52783
 4.90 0.00 -0.419 -0.419 -0.418 -0.416 -0.410 10.67724 10.63978-13.02784
 4.90 0.50 -0.416 -0.415 -0.415 -0.413 -0.407 11.17725 11.13988-12.52783
 4.90 1.00 -0.412 -0.412 -0.412 -0.409 -0.403 11.67724 11.63979-12.02780
 4.90 1.25 -0.410 -0.410 -0.410 -0.407 -0.400 11.92725 11.88983-11.77781
 4.90 1.50 -0.408 -0.408 -0.407 -0.405 -0.398 12.17725 12.13988-11.52783
 4.90 1.75 -0.405 -0.405 -0.404 -0.401 -0.394 12.42725 12.38988-11.27779
 4.90 2.00 -0.401 -0.400 -0.400 -0.398 -0.389 12.67724 12.63988-11.02775
 4.90 2.25 -0.396 -0.396 -0.395 -0.392 -0.383 12.92725 12.88988-10.77779
 4.90 2.50 -0.389 -0.389 -0.388 -0.385 -0.376 13.17725 13.13988-10.52783
 4.90 2.75 -0.380 -0.379 -0.378 -0.376 -0.366 13.42721 13.38988-10.27777
 4.90 3.00 -0.368 -0.368 -0.368 -0.363 -0.353 13.67715 13.63988-10.02771
 4.90 3.20 -0.356 -0.356 -0.355 -0.351 -0.340 13.87707 13.83988 -9.82770
 4.90 3.40 -0.342 -0.342 -0.341 -0.337 -0.326 14.07700 14.03988 -9.62769
 4.90 3.60 -0.326 -0.325 -0.324 -0.319 -0.307 14.27696 14.23992 -9.42766
 4.90 3.80 -0.306 -0.304 -0.303 -0.299 -0.285 14.47696 14.44000 -9.22761
 4.90 4.00 -0.280 -0.280 -0.279 -0.274 -0.259 14.67697 14.64008 -9.02757
 4.90 4.20 -0.250 -0.250 -0.248 -0.243 -0.228 14.87697 14.84013 -8.82755
 4.90 4.40 -0.211 -0.211 -0.209 -0.204 -0.188 15.07696 15.04018 -8.62754
 4.90 4.60 -0.162 -0.162 -0.160 -0.154 -0.137 15.27692 15.24021 -8.42749
 4.90 4.80 -0.100 -0.100 -0.097 -0.091 -0.075 15.47685 15.44025 -8.22739
 4.90 5.00 -0.025 -0.024 -0.022 -0.015  0.001 15.67678 15.64028 -8.02729
 4.90 5.20  0.071  0.072  0.074  0.080  0.099 15.87674 15.84037 -7.82721
 4.90 5.40  0.184  0.185  0.187  0.194  0.213 16.07669 16.04046 -7.62714
 4.90 5.60  0.317  0.317  0.319  0.326  0.345 16.27662 16.24056 -7.42704
 4.90 5.80  0.467  0.467  0.470  0.476  0.495 16.47649 16.44066 -7.22692
 4.90 6.00  0.630  0.631  0.632  0.639  0.658 16.67633 16.64078 -7.02678
 4.90 6.25  0.854  0.854  0.857  0.863  0.880 16.92607 16.89094 -6.77659
 4.90 6.50  1.089  1.089  1.090  1.097  1.113 17.17580 17.14114 -6.52637
 4.90 6.75  1.322  1.324  1.324  1.330  1.345 17.42553 17.39149 -6.27603
 4.90 7.00  1.569  1.570  1.571  1.576  1.589 17.67523 17.64197 -6.02558
 4.90 7.25  1.810  1.811  1.812  1.816  1.827 17.92463 17.89255 -5.77499
 4.90 7.50  2.056  2.056  2.056  2.061  2.070 18.17377 18.14333 -5.52418
 4.90 7.75  2.295  2.296  2.296  2.299  2.307 18.42254 18.39469 -5.27285
 4.90 8.00  2.538  2.538  2.539  2.542  2.548 18.67099 18.64650 -5.02109
 4.95-2.00 -0.434 -0.434 -0.434 -0.433 -0.431  8.62726  8.58973-15.07785
 4.95-1.50 -0.433 -0.433 -0.433 -0.432 -0.428  9.12710  9.08955-14.57790
 4.95-1.00 -0.431 -0.431 -0.430 -0.429 -0.425  9.62726  9.58973-14.07785
 4.95-0.50 -0.428 -0.427 -0.427 -0.425 -0.421 10.12711 10.08955-13.57790
 4.95 0.00 -0.423 -0.423 -0.422 -0.420 -0.415 10.62726 10.58973-13.07785
 4.95 0.50 -0.417 -0.417 -0.417 -0.414 -0.409 11.12710 11.08991-12.57790
 4.95 1.00 -0.411 -0.411 -0.410 -0.408 -0.401 11.62726 11.58984-12.07779
 4.95 1.25 -0.409 -0.408 -0.407 -0.405 -0.398 11.87718 11.83987-11.82785
 4.95 1.50 -0.405 -0.405 -0.405 -0.401 -0.394 12.12710 12.08991-11.57790
 4.95 1.75 -0.403 -0.403 -0.401 -0.398 -0.391 12.37713 12.33987-11.32785
 4.95 2.00 -0.400 -0.398 -0.398 -0.395 -0.387 12.62716 12.58984-11.07779
 4.95 2.25 -0.396 -0.395 -0.394 -0.391 -0.382 12.87713 12.83987-10.82777
 4.95 2.50 -0.391 -0.391 -0.390 -0.387 -0.377 13.12711 13.08991-10.57774
 4.95 2.75 -0.385 -0.385 -0.384 -0.381 -0.372 13.37713 13.33993-10.32771
 4.95 3.00 -0.378 -0.378 -0.377 -0.373 -0.363 13.62716 13.58995-10.07769
 4.95 3.20 -0.369 -0.369 -0.368 -0.364 -0.355 13.82714 13.78993 -9.87771
 4.95 3.40 -0.359 -0.359 -0.358 -0.354 -0.344 14.02712 13.98991 -9.67773
 4.95 3.60 -0.346 -0.345 -0.344 -0.340 -0.329 14.22710 14.18994 -9.47771
 4.95 3.80 -0.328 -0.328 -0.326 -0.322 -0.311 14.42708 14.39000 -9.27765
 4.95 4.00 -0.308 -0.306 -0.306 -0.301 -0.289 14.62706 14.59006 -9.07759
 4.95 4.20 -0.280 -0.279 -0.278 -0.273 -0.261 14.82695 14.79000 -8.87758
 4.95 4.40 -0.247 -0.246 -0.244 -0.240 -0.226 15.02684 14.98994 -8.67758
 4.95 4.60 -0.206 -0.206 -0.204 -0.199 -0.185 15.22680 15.18998 -8.47754
 4.95 4.80 -0.157 -0.156 -0.155 -0.148 -0.133 15.42682 15.39013 -8.27746
 4.95 5.00 -0.097 -0.097 -0.095 -0.089 -0.072 15.62685 15.59029 -8.07738
 4.95 5.20 -0.023 -0.023 -0.021 -0.015  0.001 15.82685 15.79027 -7.87733
 4.95 5.40  0.062  0.062  0.064  0.071  0.088 16.02681 15.99026 -7.67727
 4.95 5.60  0.166  0.167  0.169  0.174  0.192 16.22671 16.19033 -7.47720
 4.95 5.80  0.288  0.289  0.290  0.296  0.314 16.42658 16.39048 -7.27709
 4.95 6.00  0.426  0.426  0.428  0.433  0.450 16.62644 16.59062 -7.07696
 4.95 6.25  0.625  0.626  0.627  0.633  0.649 16.87629 16.84079 -6.82679
 4.95 6.50  0.842  0.842  0.845  0.849  0.863 17.12613 17.09096 -6.57659
 4.95 6.75  1.065  1.065  1.066  1.071  1.084 17.37591 17.34121 -6.32636
 4.95 7.00  1.305  1.305  1.306  1.310  1.322 17.62562 17.59151 -6.07608
 4.95 7.25  1.546  1.546  1.546  1.550  1.561 17.87527 17.84189 -5.82574
 4.95 7.50  1.790  1.790  1.791  1.794  1.805 18.12483 18.09237 -5.57528
 4.95 7.75  2.030  2.030  2.030  2.033  2.042 18.37418 18.34307 -5.32455
 4.95 8.00  2.273  2.273  2.274  2.276  2.283 18.62335 18.59395 -5.07361
 5.00-2.00 -0.435 -0.435 -0.435 -0.434 -0.432  8.57726  8.53970-15.12784
 5.00-1.50 -0.434 -0.434 -0.434 -0.433 -0.431  9.07737  9.03981-14.62783
 5.00-1.00 -0.433 -0.433 -0.433 -0.432 -0.430  9.57726  9.53970-14.12784
 5.00-0.50 -0.432 -0.432 -0.432 -0.431 -0.428 10.07737 10.03981-13.62783
 5.00 0.00 -0.429 -0.429 -0.429 -0.428 -0.424 10.57726 10.53970-13.12784
 5.00 0.50 -0.425 -0.425 -0.425 -0.424 -0.419 11.07737 11.03981-12.62782
 5.00 1.00 -0.419 -0.419 -0.419 -0.417 -0.412 11.57726 11.53983-12.12779
 5.00 1.25 -0.415 -0.415 -0.415 -0.413 -0.407 11.82732 11.78982-11.87781
 5.00 1.50 -0.411 -0.411 -0.410 -0.408 -0.402 12.07737 12.03981-11.62782
 5.00 1.75 -0.407 -0.406 -0.405 -0.403 -0.396 12.32734 12.28982-11.37781
 5.00 2.00 -0.400 -0.400 -0.400 -0.398 -0.390 12.57726 12.53983-11.12779
 5.00 2.25 -0.396 -0.396 -0.395 -0.392 -0.383 12.82713 12.78982-10.87781
 5.00 2.50 -0.390 -0.389 -0.389 -0.386 -0.377 13.07701 13.03981-10.62782
 5.00 2.75 -0.384 -0.383 -0.382 -0.379 -0.369 13.32708 13.28982-10.37778
 5.00 3.00 -0.377 -0.377 -0.376 -0.373 -0.362 13.57715 13.53983-10.12773
 5.00 3.20 -0.371 -0.371 -0.369 -0.366 -0.355 13.77709 13.73982 -9.92769
 5.00 3.40 -0.363 -0.363 -0.362 -0.358 -0.347 13.97703 13.93981 -9.72766
 5.00 3.60 -0.354 -0.354 -0.353 -0.349 -0.338 14.17701 14.13983 -9.52763
 5.00 3.80 -0.342 -0.342 -0.340 -0.336 -0.325 14.37702 14.33988 -9.32762
 5.00 4.00 -0.327 -0.326 -0.326 -0.322 -0.310 14.57703 14.53995 -9.12761
 5.00 4.20 -0.306 -0.306 -0.304 -0.301 -0.289 14.77703 14.74006 -8.92762
 5.00 4.40 -0.280 -0.280 -0.279 -0.275 -0.262 14.97701 14.94016 -8.72763
 5.00 4.60 -0.248 -0.247 -0.246 -0.241 -0.229 15.17699 15.14021 -8.52760
 5.00 4.80 -0.206 -0.206 -0.204 -0.200 -0.187 15.37696 15.34021 -8.32752
 5.00 5.00 -0.156 -0.156 -0.155 -0.150 -0.136 15.57692 15.54020 -8.12744
 5.00 5.20 -0.095 -0.094 -0.093 -0.087 -0.073 15.77681 15.74020 -7.92737
 5.00 5.40 -0.021 -0.021 -0.019 -0.013  0.001 15.97670 15.94021 -7.72730
 5.00 5.60  0.065  0.065  0.067  0.073  0.089 16.17663 16.14028 -7.52724
 5.00 5.80  0.167  0.167  0.169  0.174  0.190 16.37660 16.34042 -7.32717
 5.00 6.00  0.283  0.284  0.285  0.291  0.307 16.57657 16.54058 -7.12709
 5.00 6.25  0.454  0.454  0.456  0.461  0.476 16.82644 16.79079 -6.87691
 5.00 6.50  0.645  0.645  0.647  0.652  0.665 17.07628 17.04100 -6.62672
 5.00 6.75  0.857  0.857  0.858  0.863  0.875 17.32610 17.29110 -6.37653
 5.00 7.00  1.075  1.075  1.076  1.080  1.091 17.57588 17.54121 -6.12633
 5.00 7.25  1.311  1.311  1.312  1.315  1.325 17.82553 17.79145 -5.87609
 5.00 7.50  1.552  1.552  1.553  1.556  1.564 18.07518 18.04179 -5.62580
 5.00 7.75  1.791  1.792  1.792  1.795  1.803 18.32484 18.29225 -5.37535
 5.00 8.00  2.035  2.035  2.036  2.037  2.043 18.57449 18.54283 -5.12477
 5.05-2.00 -0.433 -0.433 -0.433 -0.432 -0.430  8.52724  8.48968-15.17783
 5.05-1.50 -0.433 -0.433 -0.432 -0.432 -0.430  9.02735  8.98972-14.67799
 5.05-1.00 -0.433 -0.432 -0.432 -0.432 -0.430  9.52724  9.48982-14.17783
 5.05-0.50 -0.432 -0.432 -0.432 -0.431 -0.429 10.02735  9.98972-13.67778
 5.05 0.00 -0.431 -0.431 -0.431 -0.430 -0.428 10.52724 10.48982-13.17783
 5.05 0.50 -0.429 -0.429 -0.429 -0.428 -0.425 11.02735 10.98972-12.67778
 5.05 1.00 -0.427 -0.427 -0.426 -0.425 -0.422 11.52724 11.48982-12.17783
 5.05 1.25 -0.424 -0.424 -0.424 -0.423 -0.419 11.77730 11.73979-11.92781
 5.05 1.50 -0.421 -0.421 -0.421 -0.419 -0.416 12.02735 11.98976-11.67778
 5.05 1.75 -0.418 -0.418 -0.418 -0.416 -0.411 12.27730 12.23979-11.42777
 5.05 2.00 -0.414 -0.414 -0.413 -0.412 -0.407 12.52724 12.48982-11.17777
 5.05 2.25 -0.409 -0.408 -0.407 -0.405 -0.400 12.77730 12.73981-10.92777
 5.05 2.50 -0.401 -0.401 -0.400 -0.398 -0.392 13.02735 12.98981-10.67778
 5.05 2.75 -0.394 -0.394 -0.393 -0.391 -0.383 13.27723 13.23981-10.42777
 5.05 3.00 -0.385 -0.385 -0.384 -0.381 -0.373 13.52711 13.48982-10.17777
 5.05 3.20 -0.377 -0.377 -0.376 -0.373 -0.364 13.72703 13.68983 -9.97777
 5.05 3.40 -0.368 -0.368 -0.367 -0.363 -0.354 13.92697 13.88984 -9.77778
 5.05 3.60 -0.359 -0.358 -0.357 -0.354 -0.343 14.12698 14.08987 -9.57775
 5.05 3.80 -0.347 -0.347 -0.346 -0.343 -0.331 14.32705 14.28992 -9.37769
 5.05 4.00 -0.335 -0.334 -0.333 -0.329 -0.317 14.52711 14.48996 -9.17764
 5.05 4.20 -0.319 -0.318 -0.317 -0.313 -0.300 14.72705 14.68997 -8.97761
 5.05 4.40 -0.299 -0.298 -0.297 -0.293 -0.280 14.92698 14.88998 -8.77759
 5.05 4.60 -0.274 -0.273 -0.272 -0.267 -0.254 15.12695 15.09001 -8.57755
 5.05 4.80 -0.241 -0.241 -0.240 -0.236 -0.222 15.32697 15.29005 -8.37749
 5.05 5.00 -0.203 -0.202 -0.201 -0.196 -0.183 15.52699 15.49010 -8.17744
 5.05 5.20 -0.152 -0.152 -0.150 -0.146 -0.133 15.72698 15.69014 -7.97741
 5.05 5.40 -0.091 -0.091 -0.090 -0.085 -0.072 15.92696 15.89018 -7.77738
 5.05 5.60 -0.019 -0.018 -0.016 -0.012  0.001 16.12687 16.09023 -7.57733
 5.05 5.80  0.068  0.068  0.070  0.075  0.088 16.32673 16.29030 -7.37726
 5.05 6.00  0.169  0.170  0.171  0.176  0.189 16.52660 16.49038 -7.17718
 5.05 6.25  0.321  0.321  0.322  0.327  0.340 16.77657 16.74053 -6.92707
 5.05 6.50  0.494  0.495  0.495  0.500  0.513 17.02653 16.99070 -6.67695
 5.05 6.75  0.689  0.691  0.691  0.696  0.707 17.27631 17.24088 -6.42674
 5.05 7.00  0.890  0.890  0.891  0.895  0.905 17.52608 17.49108 -6.17653
 5.05 7.25  1.115  1.115  1.116  1.119  1.128 17.77590 17.74128 -5.92633
 5.05 7.50  1.347  1.347  1.349  1.351  1.359 18.02572 17.99149 -5.67613
 5.05 7.75  1.584  1.584  1.584  1.586  1.593 18.27542 18.24181 -5.42579
 5.05 8.00  1.823  1.823  1.823  1.825  1.831 18.52505 18.49220 -5.17535
 5.10-2.00 -0.428 -0.428 -0.428 -0.427 -0.425  8.47727  8.43981-15.22783
 5.10-1.50 -0.428 -0.428 -0.428 -0.427 -0.425  8.97727  8.93972-14.72793
 5.10-1.00 -0.428 -0.428 -0.428 -0.427 -0.425  9.47727  9.43981-14.22783
 5.10-0.50 -0.428 -0.428 -0.427 -0.427 -0.425  9.97722  9.93972-13.72793
 5.10 0.00 -0.427 -0.427 -0.427 -0.427 -0.425 10.47727 10.43981-13.22783
 5.10 0.50 -0.427 -0.427 -0.427 -0.426 -0.424 10.97722 10.93972-12.72793
 5.10 1.00 -0.425 -0.425 -0.425 -0.424 -0.423 11.47727 11.43981-12.22783
 5.10 1.25 -0.424 -0.424 -0.424 -0.424 -0.421 11.72724 11.68979-11.97788
 5.10 1.50 -0.424 -0.424 -0.424 -0.423 -0.420 11.97722 11.93977-11.72793
 5.10 1.75 -0.421 -0.421 -0.421 -0.420 -0.418 12.22724 12.18979-11.47788
 5.10 2.00 -0.419 -0.419 -0.419 -0.419 -0.415 12.47727 12.43981-11.22783
 5.10 2.25 -0.417 -0.417 -0.417 -0.415 -0.412 12.72722 12.68979-10.97788
 5.10 2.50 -0.414 -0.414 -0.413 -0.412 -0.408 12.97717 12.93977-10.72793
 5.10 2.75 -0.409 -0.409 -0.408 -0.407 -0.402 13.22714 13.18978-10.47784
 5.10 3.00 -0.403 -0.403 -0.402 -0.400 -0.395 13.47712 13.43981-10.22775
 5.10 3.20 -0.396 -0.396 -0.396 -0.394 -0.387 13.67712 13.63983-10.02772
 5.10 3.40 -0.389 -0.388 -0.388 -0.385 -0.379 13.87713 13.83985 -9.82770
 5.10 3.60 -0.379 -0.379 -0.378 -0.376 -0.368 14.07713 14.03989 -9.62769
 5.10 3.80 -0.368 -0.368 -0.367 -0.364 -0.356 14.27713 14.23993 -9.42768
 5.10 4.00 -0.354 -0.354 -0.353 -0.350 -0.340 14.47712 14.43996 -9.22768
 5.10 4.20 -0.338 -0.338 -0.337 -0.333 -0.323 14.67707 14.63997 -9.02769
 5.10 4.40 -0.319 -0.319 -0.317 -0.313 -0.303 14.87702 14.83997 -8.82769
 5.10 4.60 -0.296 -0.295 -0.294 -0.290 -0.278 15.07699 15.04000 -8.62766
 5.10 4.80 -0.268 -0.268 -0.266 -0.262 -0.250 15.27698 15.24006 -8.42760
 5.10 5.00 -0.234 -0.234 -0.232 -0.227 -0.214 15.47698 15.44012 -8.22753
 5.10 5.20 -0.192 -0.192 -0.190 -0.186 -0.173 15.67691 15.64014 -8.02750
 5.10 5.40 -0.142 -0.141 -0.140 -0.136 -0.122 15.87684 15.84016 -7.82748
 5.10 5.60 -0.081 -0.080 -0.079 -0.075 -0.061 16.07678 16.04018 -7.62742
 5.10 5.80 -0.007 -0.007 -0.006 -0.001  0.010 16.27674 16.24022 -7.42733
 5.10 6.00  0.077  0.078  0.079  0.083  0.095 16.47669 16.44028 -7.22724
 5.10 6.25  0.208  0.208  0.209  0.213  0.226 16.72659 16.69038 -6.97712
 5.10 6.50  0.361  0.362  0.363  0.366  0.377 16.97649 16.94052 -6.72700
 5.10 6.75  0.543  0.543  0.544  0.548  0.558 17.22638 17.19071 -6.47687
 5.10 7.00  0.737  0.737  0.737  0.740  0.750 17.47625 17.44091 -6.22673
 5.10 7.25  0.950  0.951  0.951  0.954  0.962 17.72603 17.69109 -5.97654
 5.10 7.50  1.177  1.178  1.178  1.181  1.188 17.97580 17.94126 -5.72631
 5.10 7.75  1.408  1.408  1.408  1.411  1.416 18.22559 18.19153 -5.47603
 5.10 8.00  1.642  1.642  1.642  1.645  1.650 18.47538 18.44185 -5.22570
 5.15-2.00 -0.419 -0.419 -0.419 -0.419 -0.417  8.42732  8.38970-15.27786
 5.15-1.50 -0.419 -0.419 -0.419 -0.419 -0.417  8.92727  8.88969-14.77780
 5.15-1.00 -0.419 -0.419 -0.419 -0.419 -0.417  9.42732  9.38970-14.27786
 5.15-0.50 -0.419 -0.419 -0.419 -0.419 -0.417  9.92722  9.88969-13.77780
 5.15 0.00 -0.419 -0.419 -0.419 -0.419 -0.417 10.42732 10.38970-13.27786
 5.15 0.50 -0.419 -0.419 -0.419 -0.419 -0.417 10.92722 10.88975-12.77780
 5.15 1.00 -0.419 -0.419 -0.419 -0.418 -0.417 11.42732 11.38970-12.27786
 5.15 1.25 -0.419 -0.419 -0.419 -0.418 -0.416 11.67727 11.63971-12.02783
 5.15 1.50 -0.418 -0.418 -0.418 -0.418 -0.415 11.92722 11.88975-11.77780
 5.15 1.75 -0.418 -0.418 -0.418 -0.417 -0.414 12.17718 12.13981-11.52779
 5.15 2.00 -0.417 -0.417 -0.417 -0.415 -0.414 12.42716 12.38987-11.27778
 5.15 2.25 -0.415 -0.415 -0.414 -0.414 -0.412 12.67716 12.63981-11.02779
 5.15 2.50 -0.414 -0.414 -0.414 -0.413 -0.410 12.92717 12.88975-10.77780
 5.15 2.75 -0.411 -0.411 -0.411 -0.410 -0.407 13.17717 13.13981-10.52779
 5.15 3.00 -0.409 -0.408 -0.408 -0.407 -0.404 13.42716 13.38987-10.27778
 5.15 3.20 -0.405 -0.405 -0.405 -0.403 -0.400 13.62714 13.58985-10.07779
 5.15 3.40 -0.401 -0.401 -0.400 -0.400 -0.396 13.82712 13.78982 -9.87780
 5.15 3.60 -0.396 -0.396 -0.396 -0.394 -0.389 14.02712 13.98982 -9.67779
 5.15 3.80 -0.389 -0.389 -0.388 -0.387 -0.382 14.22714 14.18985 -9.47775
 5.15 4.00 -0.380 -0.380 -0.380 -0.378 -0.372 14.42716 14.38988 -9.27770
 5.15 4.20 -0.368 -0.368 -0.368 -0.365 -0.359 14.62712 14.58989 -9.07764
 5.15 4.40 -0.354 -0.354 -0.353 -0.351 -0.343 14.82708 14.78991 -8.87757
 5.15 4.60 -0.336 -0.336 -0.335 -0.331 -0.324 15.02705 14.98994 -8.67754
 5.15 4.80 -0.311 -0.311 -0.310 -0.307 -0.298 15.22703 15.19000 -8.47753
 5.15 5.00 -0.281 -0.280 -0.280 -0.276 -0.266 15.42700 15.39005 -8.27753
 5.15 5.20 -0.243 -0.243 -0.242 -0.238 -0.227 15.62694 15.59009 -8.07754
 5.15 5.40 -0.197 -0.197 -0.195 -0.192 -0.179 15.82689 15.79012 -7.87754
 5.15 5.60 -0.141 -0.141 -0.139 -0.136 -0.123 16.02685 15.99016 -7.67749
 5.15 5.80 -0.076 -0.075 -0.074 -0.069 -0.057 16.22684 16.19019 -7.47739
 5.15 6.00  0.001  0.002  0.003  0.007  0.020 16.42684 16.39023 -7.27728
 5.15 6.25  0.115  0.115  0.116  0.120  0.133 16.67672 16.64031 -7.02728
 5.15 6.50  0.250  0.250  0.252  0.255  0.266 16.92660 16.89042 -6.77728
 5.15 6.75  0.411  0.412  0.412  0.416  0.426 17.17648 17.14059 -6.52704
 5.15 7.00  0.593  0.593  0.594  0.597  0.605 17.42635 17.39076 -6.27679
 5.15 7.25  0.789  0.789  0.791  0.793  0.801 17.67618 17.64092 -6.02665
 5.15 7.50  1.008  1.008  1.009  1.011  1.017 17.92598 17.89109 -5.77650
 5.15 7.75  1.235  1.235  1.235  1.237  1.243 18.17577 18.14134 -5.52627
 5.15 8.00  1.468  1.468  1.469  1.470  1.474 18.42554 18.39164 -5.27597
 5.20-2.00 -0.406 -0.406 -0.406 -0.406 -0.405  8.37731  8.33965-15.32781
 5.20-1.50 -0.406 -0.406 -0.406 -0.406 -0.405  8.87726  8.83973-14.82798
 5.20-1.00 -0.406 -0.406 -0.406 -0.406 -0.405  9.37731  9.33965-14.32781
 5.20-0.50 -0.406 -0.406 -0.406 -0.406 -0.405  9.87726  9.83973-13.82798
 5.20 0.00 -0.406 -0.406 -0.406 -0.406 -0.405 10.37731 10.33985-13.32781
 5.20 0.50 -0.406 -0.406 -0.406 -0.406 -0.405 10.87726 10.83973-12.82798
 5.20 1.00 -0.406 -0.406 -0.406 -0.406 -0.405 11.37731 11.33985-12.32781
 5.20 1.25 -0.406 -0.406 -0.406 -0.406 -0.405 11.62725 11.58979-12.07790
 5.20 1.50 -0.406 -0.406 -0.406 -0.405 -0.405 11.87720 11.83973-11.82798
 5.20 1.75 -0.406 -0.406 -0.406 -0.405 -0.404 12.12725 12.08979-11.57790
 5.20 2.00 -0.406 -0.406 -0.405 -0.405 -0.404 12.37731 12.33985-11.32781
 5.20 2.25 -0.405 -0.405 -0.405 -0.405 -0.403 12.62725 12.58982-11.07774
 5.20 2.50 -0.405 -0.405 -0.405 -0.404 -0.403 12.87720 12.83979-10.82769
 5.20 2.75 -0.404 -0.404 -0.404 -0.403 -0.401 13.12716 13.08982-10.57775
 5.20 3.00 -0.403 -0.402 -0.402 -0.401 -0.400 13.37712 13.33985-10.32781
 5.20 3.20 -0.401 -0.401 -0.400 -0.400 -0.398 13.57713 13.53983-10.12776
 5.20 3.40 -0.399 -0.399 -0.399 -0.398 -0.396 13.77714 13.73980 -9.92771
 5.20 3.60 -0.396 -0.396 -0.396 -0.395 -0.392 13.97714 13.93980 -9.72770
 5.20 3.80 -0.392 -0.392 -0.392 -0.391 -0.389 14.17714 14.13982 -9.52771
 5.20 4.00 -0.389 -0.389 -0.387 -0.387 -0.384 14.37712 14.33985 -9.32772
 5.20 4.20 -0.382 -0.382 -0.382 -0.380 -0.377 14.57711 14.53988 -9.12771
 5.20 4.40 -0.374 -0.374 -0.373 -0.372 -0.368 14.77709 14.73990 -8.92770
 5.20 4.60 -0.363 -0.363 -0.362 -0.360 -0.355 14.97709 14.93994 -8.72768
 5.20 4.80 -0.348 -0.347 -0.347 -0.345 -0.339 15.17711 15.14000 -8.52766
 5.20 5.00 -0.328 -0.327 -0.327 -0.325 -0.319 15.37712 15.34005 -8.32763
 5.20 5.20 -0.300 -0.300 -0.300 -0.297 -0.290 15.57704 15.54005 -8.12753
 5.20 5.40 -0.266 -0.265 -0.264 -0.262 -0.253 15.77695 15.74005 -7.92744
 5.20 5.60 -0.220 -0.220 -0.218 -0.216 -0.207 15.97688 15.94008 -7.72739
 5.20 5.80 -0.162 -0.162 -0.162 -0.158 -0.149 16.17681 16.14017 -7.52737
 5.20 6.00 -0.093 -0.093 -0.091 -0.088 -0.078 16.37676 16.34025 -7.32735
 5.20 6.25  0.011  0.012  0.013  0.016  0.027 16.62672 16.59030 -7.07723
 5.20 6.50  0.139  0.139  0.141  0.144  0.155 16.87668 16.84036 -6.82711
 5.20 6.75  0.287  0.287  0.288  0.291  0.303 17.12654 17.09050 -6.57704
 5.20 7.00  0.456  0.456  0.458  0.461  0.470 17.37640 17.34064 -6.32698
 5.20 7.25  0.637  0.638  0.638  0.641  0.650 17.62625 17.59078 -6.07675
 5.20 7.50  0.844  0.844  0.844  0.847  0.854 17.87610 17.84092 -5.82652
 5.20 7.75  1.062  1.062  1.062  1.064  1.071 18.12597 18.09115 -5.57636
 5.20 8.00  1.288  1.288  1.288  1.290  1.294 18.37585 18.34144 -5.32624
 5.25-2.00 -0.388 -0.388 -0.388 -0.387 -0.386  8.32736  8.28981-15.37789
 5.25-1.50 -0.388 -0.388 -0.388 -0.387 -0.386  8.82724  8.78972-14.87778
 5.25-1.00 -0.388 -0.388 -0.388 -0.387 -0.386  9.32736  9.28981-14.37789
 5.25-0.50 -0.388 -0.388 -0.388 -0.387 -0.386  9.82724  9.78972-13.87778
 5.25 0.00 -0.388 -0.388 -0.388 -0.387 -0.386 10.32736 10.28981-13.37789
 5.25 0.50 -0.388 -0.388 -0.388 -0.387 -0.386 10.82724 10.78972-12.87778
 5.25 1.00 -0.388 -0.388 -0.388 -0.387 -0.386 11.32736 11.28981-12.37779
 5.25 1.25 -0.388 -0.388 -0.388 -0.387 -0.386 11.57730 11.53977-12.12779
 5.25 1.50 -0.388 -0.388 -0.388 -0.387 -0.386 11.82724 11.78972-11.87778
 5.25 1.75 -0.388 -0.388 -0.387 -0.387 -0.386 12.07719 12.03977-11.62779
 5.25 2.00 -0.388 -0.388 -0.387 -0.387 -0.386 12.32716 12.28981-11.37779
 5.25 2.25 -0.387 -0.387 -0.387 -0.387 -0.386 12.57717 12.53980-11.12779
 5.25 2.50 -0.387 -0.387 -0.387 -0.387 -0.385 12.82718 12.78979-10.87778
 5.25 2.75 -0.387 -0.387 -0.387 -0.386 -0.385 13.07717 13.03980-10.62779
 5.25 3.00 -0.386 -0.386 -0.386 -0.386 -0.384 13.32715 13.28981-10.37779
 5.25 3.20 -0.386 -0.386 -0.386 -0.385 -0.383 13.52716 13.48980-10.17779
 5.25 3.40 -0.385 -0.385 -0.385 -0.384 -0.382 13.72717 13.68980 -9.97779
 5.25 3.60 -0.384 -0.384 -0.383 -0.383 -0.381 13.92717 13.88979 -9.77776
 5.25 3.80 -0.382 -0.382 -0.382 -0.381 -0.379 14.12717 14.08980 -9.57772
 5.25 4.00 -0.380 -0.380 -0.380 -0.378 -0.377 14.32716 14.28981 -9.37768
 5.25 4.20 -0.375 -0.375 -0.375 -0.375 -0.373 14.52714 14.48983 -9.17772
 5.25 4.40 -0.372 -0.372 -0.371 -0.370 -0.368 14.72712 14.68985 -8.97776
 5.25 4.60 -0.365 -0.365 -0.365 -0.364 -0.361 14.92712 14.88990 -8.77774
 5.25 4.80 -0.356 -0.356 -0.356 -0.355 -0.351 15.12714 15.08997 -8.57766
 5.25 5.00 -0.345 -0.345 -0.345 -0.344 -0.340 15.32715 15.29003 -8.37758
 5.25 5.20 -0.328 -0.328 -0.327 -0.326 -0.322 15.52709 15.49002 -8.17752
 5.25 5.40 -0.306 -0.306 -0.304 -0.303 -0.299 15.72702 15.69001 -7.97748
 5.25 5.60 -0.275 -0.275 -0.275 -0.273 -0.267 15.92698 15.89005 -7.77743
 5.25 5.80 -0.235 -0.235 -0.234 -0.232 -0.226 16.12696 16.09016 -7.57740
 5.25 6.00 -0.183 -0.183 -0.183 -0.180 -0.174 16.32695 16.29026 -7.37737
 5.25 6.25 -0.098 -0.098 -0.097 -0.095 -0.088 16.57684 16.54027 -7.12741
 5.25 6.50  0.010  0.010  0.011  0.014  0.021 16.82672 16.79029 -6.87746
 5.25 6.75  0.145  0.145  0.146  0.149  0.157 17.07663 17.04037 -6.62726
 5.25 7.00  0.304  0.305  0.306  0.308  0.317 17.32654 17.29048 -6.37706
 5.25 7.25  0.483  0.483  0.484  0.487  0.494 17.57642 17.54062 -6.12693
 5.25 7.50  0.677  0.677  0.678  0.680  0.688 17.82627 17.79078 -5.87680
 5.25 7.75  0.886  0.887  0.887  0.888  0.895 18.07611 18.04095 -5.62663
 5.25 8.00  1.105  1.105  1.106  1.108  1.112 18.32593 18.29115 -5.37644
 5.30-2.00 -0.362 -0.362 -0.362 -0.361 -0.360  8.27738  8.23980-15.42782
 5.30-1.50 -0.362 -0.362 -0.362 -0.361 -0.360  8.77728  8.73973-14.92775
 5.30-1.00 -0.362 -0.362 -0.362 -0.361 -0.360  9.27738  9.23980-14.42783
 5.30-0.50 -0.362 -0.362 -0.362 -0.361 -0.360  9.77721  9.73973-13.92775
 5.30 0.00 -0.362 -0.362 -0.362 -0.361 -0.360 10.27738 10.23980-13.42783
 5.30 0.50 -0.362 -0.362 -0.362 -0.361 -0.360 10.77721 10.73973-12.92775
 5.30 1.00 -0.362 -0.362 -0.362 -0.361 -0.360 11.27738 11.23980-12.42783
 5.30 1.25 -0.362 -0.362 -0.362 -0.361 -0.360 11.52730 11.48977-12.17779
 5.30 1.50 -0.362 -0.362 -0.362 -0.361 -0.360 11.77721 11.73973-11.92775
 5.30 1.75 -0.362 -0.362 -0.362 -0.361 -0.360 12.02717 11.98977-11.67779
 5.30 2.00 -0.362 -0.362 -0.362 -0.361 -0.360 12.27715 12.23980-11.42783
 5.30 2.25 -0.362 -0.362 -0.362 -0.361 -0.360 12.52718 12.48977-11.17779
 5.30 2.50 -0.362 -0.362 -0.362 -0.361 -0.360 12.77721 12.73973-10.92775
 5.30 2.75 -0.362 -0.362 -0.361 -0.361 -0.360 13.02718 12.98977-10.67779
 5.30 3.00 -0.361 -0.361 -0.361 -0.361 -0.359 13.27715 13.23980-10.42783
 5.30 3.20 -0.361 -0.361 -0.361 -0.361 -0.359 13.47714 13.43981-10.22780
 5.30 3.40 -0.361 -0.361 -0.361 -0.361 -0.359 13.67714 13.63981-10.02777
 5.30 3.60 -0.361 -0.361 -0.361 -0.359 -0.359 13.87714 13.83981 -9.82774
 5.30 3.80 -0.359 -0.359 -0.359 -0.359 -0.358 14.07715 14.03980 -9.62772
 5.30 4.00 -0.359 -0.359 -0.359 -0.358 -0.356 14.27715 14.23980 -9.42771
 5.30 4.20 -0.356 -0.356 -0.356 -0.355 -0.354 14.47715 14.43983 -9.22773
 5.30 4.40 -0.354 -0.354 -0.354 -0.354 -0.352 14.67714 14.63986 -9.02774
 5.30 4.60 -0.350 -0.350 -0.350 -0.350 -0.347 14.87714 14.83992 -8.82772
 5.30 4.80 -0.345 -0.345 -0.345 -0.344 -0.342 15.07715 15.03999 -8.62766
 5.30 5.00 -0.338 -0.338 -0.338 -0.337 -0.335 15.27715 15.24005 -8.42759
 5.30 5.20 -0.327 -0.327 -0.326 -0.326 -0.323 15.47709 15.44002 -8.22766
 5.30 5.40 -0.313 -0.313 -0.313 -0.312 -0.309 15.67702 15.63999 -8.02772
 5.30 5.60 -0.294 -0.294 -0.294 -0.292 -0.289 15.87698 15.83998 -7.82770
 5.30 5.80 -0.267 -0.267 -0.267 -0.266 -0.262 16.07695 16.04000 -7.62759
 5.30 6.00 -0.233 -0.233 -0.232 -0.230 -0.227 16.27692 16.24005 -7.42748
 5.30 6.25 -0.172 -0.172 -0.171 -0.171 -0.166 16.52685 16.49011 -7.17743
 5.30 6.50 -0.091 -0.091 -0.090 -0.089 -0.084 16.77677 16.74021 -6.92738
 5.30 6.75  0.015  0.015  0.016  0.018  0.023 17.02673 16.99038 -6.67726
 5.30 7.00  0.149  0.149  0.150  0.152  0.158 17.27669 17.24055 -6.42713
 5.30 7.25  0.312  0.312  0.312  0.314  0.320 17.52657 17.49058 -6.17707
 5.30 7.50  0.490  0.491  0.492  0.493  0.500 17.77641 17.74060 -5.92702
 5.30 7.75  0.692  0.693  0.693  0.695  0.701 18.02622 17.99078 -5.67683
 5.30 8.00  0.908  0.908  0.909  0.910  0.915 18.27600 18.24105 -5.42655
