 ROSSELAND MASS ABSORPTION COEFFICIENTS [-1.5]
 logT logP  0km/s  1km/s  2km/s  4km/s  8km/s  log Ne   log Na  log rho IPloCM-1
 3.32-2.00 -5.930 -5.924 -5.913 -5.892 -5.866  3.96544 10.54033-13.13371   0.001
 3.32-1.50 -5.952 -5.946 -5.934 -5.913 -5.887  4.40261 11.04139-12.63283   0.001
 3.32-1.00 -5.961 -5.954 -5.942 -5.921 -5.894  4.85697 11.54419-12.12995   0.001
 3.32-0.50 -5.961 -5.955 -5.943 -5.921 -5.893  5.30428 12.05231-11.62160   0.002
 3.32 0.00 -5.953 -5.947 -5.934 -5.912 -5.885  5.73973 12.57368-11.10034   0.004
 3.32 0.50 -5.938 -5.931 -5.919 -5.898 -5.871  6.17464 13.11494-10.55925   0.006
 3.32 1.00 -5.917 -5.911 -5.899 -5.879 -5.854  6.61606 13.66829-10.00577   0.011
 3.32 1.25 -5.902 -5.896 -5.885 -5.865 -5.841  6.83932 13.94330 -9.73071   0.014
 3.32 1.50 -5.883 -5.877 -5.866 -5.847 -5.824  7.06258 14.21643 -9.45755   0.018
 3.32 1.75 -5.861 -5.855 -5.844 -5.826 -5.803  7.28053 14.48542 -9.18863   0.023
 3.32 2.00 -5.836 -5.830 -5.820 -5.802 -5.780  7.49248 14.75113 -8.92300   0.029
 3.32 2.25 -5.809 -5.803 -5.794 -5.777 -5.755  7.69133 15.01336 -8.66078   0.036
 3.32 2.50 -5.781 -5.776 -5.767 -5.751 -5.730  7.87956 15.27300 -8.40110   0.045
 3.32 2.75 -5.751 -5.746 -5.738 -5.724 -5.704  8.05589 15.53044 -8.14354   0.055
 3.32 3.00 -5.719 -5.715 -5.708 -5.694 -5.676  8.22453 15.78618 -7.88773   0.067
 3.32 3.20 -5.691 -5.687 -5.681 -5.668 -5.651  8.35389 15.98972 -7.68427   0.078
 3.32 3.40 -5.660 -5.657 -5.651 -5.640 -5.624  8.48185 16.19260 -7.48145   0.091
 3.32 3.60 -5.626 -5.623 -5.618 -5.609 -5.594  8.60840 16.39489 -7.27919   0.105
 3.32 3.80 -5.588 -5.586 -5.582 -5.573 -5.560  8.73458 16.59677 -7.07731   0.121
 3.32 4.00 -5.546 -5.544 -5.541 -5.534 -5.522  8.86076 16.79824 -6.87582   0.140
 3.32 4.20 -5.505 -5.503 -5.500 -5.493 -5.481  8.98893 16.99933 -6.67473   0.162
 3.32 4.40 -5.458 -5.457 -5.453 -5.446 -5.434  9.11821 17.20022 -6.47383   0.188
 3.32 4.60 -5.407 -5.405 -5.402 -5.395 -5.383  9.24913 17.40096 -6.27308   0.219
 3.32 4.80 -5.351 -5.349 -5.346 -5.339 -5.327  9.38084 17.60159 -6.07244   0.255
 3.32 5.00 -5.288 -5.286 -5.283 -5.276 -5.264  9.51255 17.80209 -5.87193   0.297
 3.32 5.20 -5.218 -5.216 -5.213 -5.206 -5.195  9.64273 18.00238 -5.67161   0.345
 3.32 5.40 -5.138 -5.137 -5.134 -5.127 -5.116  9.77131 18.20264 -5.47133   0.400
 3.32 5.60 -5.047 -5.046 -5.042 -5.036 -5.025  9.89724 18.40289 -5.27107   0.462
 3.32 5.80 -4.941 -4.940 -4.936 -4.930 -4.920 10.01946 18.60312 -5.07083   0.532
 3.32 6.00 -4.817 -4.815 -4.812 -4.806 -4.796 10.13862 18.80332 -4.87063   0.611
 3.32 6.25 -4.628 -4.627 -4.624 -4.618 -4.609 10.28278 19.05350 -4.62061   0.721
 3.32 6.50 -4.395 -4.393 -4.391 -4.386 -4.379 10.42292 19.30363 -4.37059   0.847
 3.32 6.75 -4.106 -4.105 -4.103 -4.099 -4.093 10.55955 19.55368 -4.12045   0.992
 3.32 7.00 -3.904 -3.903 -3.902 -3.898 -3.894 10.69346 19.80373 -3.87031   1.157
 3.32 7.25 -3.778 -3.777 -3.776 -3.773 -3.768 10.82512 20.05379 -3.62029   1.346
 3.32 7.50 -3.652 -3.652 -3.650 -3.647 -3.644 10.95506 20.30384 -3.37028   1.563
 3.32 7.75 -3.530 -3.529 -3.527 -3.525 -3.522 11.08378 20.55387 -3.12029   1.813
 3.32 8.00 -3.411 -3.410 -3.409 -3.407 -3.404 11.21112 20.80387 -2.87031   2.099
 3.34-2.00 -5.798 -5.792 -5.780 -5.758 -5.731  4.15715 10.51996-13.15410   0.001
 3.34-1.50 -5.849 -5.843 -5.831 -5.809 -5.782  4.52114 11.02036-12.65384   0.001
 3.34-1.00 -5.878 -5.871 -5.859 -5.837 -5.809  4.92650 11.52114-12.15292   0.001
 3.34-0.50 -5.879 -5.873 -5.860 -5.838 -5.809  5.36605 12.02366-11.65033   0.002
 3.34 0.00 -5.859 -5.852 -5.839 -5.816 -5.788  5.81485 12.53199-11.14213   0.004
 3.34 0.50 -5.823 -5.816 -5.804 -5.782 -5.754  6.25696 13.05269-10.62142   0.007
 3.34 1.00 -5.783 -5.776 -5.764 -5.743 -5.716  6.69609 13.59329-10.08076   0.011
 3.34 1.25 -5.762 -5.755 -5.743 -5.722 -5.696  6.91593 13.87002 -9.80415   0.014
 3.34 1.50 -5.739 -5.732 -5.720 -5.699 -5.673  7.13577 14.14675 -9.52754   0.019
 3.34 1.75 -5.712 -5.705 -5.694 -5.673 -5.648  7.35548 14.42190 -9.25232   0.024
 3.34 2.00 -5.682 -5.675 -5.664 -5.644 -5.619  7.57496 14.69522 -8.97881   0.031
 3.34 2.25 -5.647 -5.640 -5.630 -5.611 -5.586  7.79112 14.96434 -8.70973   0.040
 3.34 2.50 -5.609 -5.603 -5.593 -5.575 -5.551  8.00303 15.23019 -8.44394   0.051
 3.34 2.75 -5.569 -5.564 -5.555 -5.539 -5.516  8.20385 15.49262 -8.18142   0.064
 3.34 3.00 -5.530 -5.525 -5.517 -5.502 -5.481  8.39498 15.75243 -7.92154   0.080
 3.34 3.20 -5.498 -5.494 -5.487 -5.473 -5.454  8.53903 15.95858 -7.71546   0.095
 3.34 3.40 -5.466 -5.462 -5.456 -5.444 -5.426  8.67777 16.16364 -7.51046   0.111
 3.34 3.60 -5.433 -5.430 -5.424 -5.414 -5.397  8.81077 16.36765 -7.30652   0.129
 3.34 3.80 -5.398 -5.396 -5.391 -5.382 -5.367  8.94038 16.57094 -7.10327   0.150
 3.34 4.00 -5.362 -5.360 -5.356 -5.348 -5.335  9.06781 16.77357 -6.90067   0.174
 3.34 4.20 -5.328 -5.326 -5.322 -5.314 -5.302  9.19328 16.97567 -6.69855   0.201
 3.34 4.40 -5.290 -5.289 -5.285 -5.277 -5.265  9.31874 17.17737 -6.49682   0.233
 3.34 4.60 -5.250 -5.248 -5.245 -5.237 -5.225  9.44457 17.37867 -6.29544   0.269
 3.34 4.80 -5.206 -5.205 -5.201 -5.194 -5.181  9.57126 17.57972 -6.09433   0.311
 3.34 5.00 -5.158 -5.156 -5.153 -5.145 -5.133  9.69862 17.78053 -5.89347   0.360
 3.34 5.20 -5.106 -5.104 -5.101 -5.093 -5.081  9.82765 17.98119 -5.69289   0.417
 3.34 5.40 -5.049 -5.047 -5.044 -5.037 -5.025  9.95668 18.18172 -5.49242   0.484
 3.34 5.60 -4.988 -4.986 -4.983 -4.975 -4.964 10.08528 18.38215 -5.29204   0.561
 3.34 5.80 -4.922 -4.921 -4.917 -4.910 -4.899 10.21251 18.58250 -5.09171   0.649
 3.34 6.00 -4.854 -4.852 -4.849 -4.842 -4.831 10.33846 18.78276 -4.89144   0.751
 3.34 6.25 -4.766 -4.764 -4.761 -4.755 -4.744 10.49096 19.03292 -4.64115   0.895
 3.34 6.50 -4.676 -4.674 -4.671 -4.665 -4.655 10.63919 19.28308 -4.39094   1.062
 3.34 6.75 -4.585 -4.583 -4.581 -4.574 -4.565 10.78258 19.53328 -4.14085   1.252
 3.34 7.00 -4.494 -4.493 -4.490 -4.484 -4.476 10.92215 19.78348 -3.89076   1.470
 3.34 7.25 -4.404 -4.402 -4.400 -4.394 -4.387 11.05827 20.03350 -3.64064   1.720
 3.34 7.50 -4.314 -4.313 -4.310 -4.305 -4.298 11.19173 20.28353 -3.39051   2.006
 3.34 7.75 -4.226 -4.224 -4.222 -4.217 -4.211 11.32324 20.53359 -3.14045   2.334
 3.34 8.00 -4.138 -4.136 -4.134 -4.130 -4.124 11.45255 20.78369 -2.89042   2.708
 3.36-2.00 -5.634 -5.628 -5.615 -5.593 -5.566  4.42045 10.49996-13.17418   0.001
 3.36-1.50 -5.703 -5.696 -5.683 -5.661 -5.633  4.74966 10.99996-12.67407   0.001
 3.36-1.00 -5.758 -5.751 -5.738 -5.716 -5.687  5.09202 11.50024-12.17380   0.002
 3.36-0.50 -5.787 -5.780 -5.767 -5.744 -5.715  5.46657 12.00130-11.67285   0.003
 3.36 0.00 -5.778 -5.771 -5.758 -5.735 -5.706  5.88213 12.50406-11.17005   0.004
 3.36 0.50 -5.736 -5.729 -5.716 -5.693 -5.665  6.32346 13.01242-10.66194   0.007
 3.36 1.00 -5.672 -5.665 -5.652 -5.630 -5.602  6.76886 13.53339-10.14068   0.012
 3.36 1.25 -5.636 -5.629 -5.616 -5.593 -5.566  6.99095 13.80201 -9.87206   0.016
 3.36 1.50 -5.599 -5.591 -5.578 -5.556 -5.528  7.21245 14.07445 -9.59964   0.020
 3.36 1.75 -5.560 -5.553 -5.541 -5.518 -5.490  7.43309 14.35116 -9.32294   0.026
 3.36 2.00 -5.521 -5.514 -5.502 -5.480 -5.453  7.65263 14.62788 -9.04624   0.033
 3.36 2.25 -5.480 -5.474 -5.462 -5.441 -5.414  7.87065 14.90292 -8.77118   0.043
 3.36 2.50 -5.437 -5.431 -5.420 -5.401 -5.375  8.08672 15.17609 -8.49798   0.055
 3.36 2.75 -5.390 -5.385 -5.375 -5.357 -5.333  8.30030 15.44513 -8.22904   0.070
 3.36 3.00 -5.341 -5.336 -5.328 -5.312 -5.289  8.50987 15.71088 -7.96337   0.089
 3.36 3.20 -5.301 -5.297 -5.289 -5.275 -5.254  8.67127 15.92086 -7.75329   0.107
 3.36 3.40 -5.261 -5.257 -5.251 -5.238 -5.219  8.82719 16.12919 -7.54487   0.129
 3.36 3.60 -5.222 -5.218 -5.212 -5.201 -5.184  8.97641 16.33595 -7.33811   0.153
 3.36 3.80 -5.182 -5.179 -5.174 -5.164 -5.148  9.11902 16.54153 -7.13257   0.180
 3.36 4.00 -5.142 -5.140 -5.136 -5.127 -5.113  9.25624 16.74601 -6.92812   0.211
 3.36 4.20 -5.106 -5.104 -5.100 -5.091 -5.078  9.38791 16.94952 -6.72455   0.246
 3.36 4.40 -5.068 -5.066 -5.062 -5.054 -5.041  9.51688 17.15239 -6.52165   0.285
 3.36 4.60 -5.028 -5.026 -5.023 -5.015 -5.002  9.64279 17.35468 -6.31940   0.330
 3.36 4.80 -4.987 -4.985 -4.981 -4.973 -4.961  9.76767 17.55657 -6.11759   0.380
 3.36 5.00 -4.941 -4.939 -4.935 -4.928 -4.915  9.89254 17.75808 -5.91614   0.439
 3.36 5.20 -4.891 -4.890 -4.886 -4.878 -4.866 10.01756 17.95923 -5.71492   0.507
 3.36 5.40 -4.837 -4.835 -4.831 -4.824 -4.812 10.14279 18.16016 -5.51393   0.586
 3.36 5.60 -4.776 -4.774 -4.771 -4.764 -4.752 10.26884 18.36091 -5.31321   0.678
 3.36 5.80 -4.710 -4.708 -4.705 -4.698 -4.686 10.39558 18.56153 -5.11266   0.784
 3.36 6.00 -4.639 -4.638 -4.634 -4.627 -4.616 10.52231 18.76200 -4.91222   0.907
 3.36 6.25 -4.545 -4.544 -4.541 -4.534 -4.524 10.67903 19.01238 -4.66177   1.086
 3.36 6.50 -4.448 -4.446 -4.443 -4.437 -4.428 10.83379 19.26269 -4.41139   1.298
 3.36 6.75 -4.349 -4.348 -4.345 -4.339 -4.331 10.98416 19.51297 -4.16106   1.543
 3.36 7.00 -4.251 -4.250 -4.247 -4.242 -4.234 11.13066 19.76320 -3.91080   1.827
 3.36 7.25 -4.154 -4.153 -4.150 -4.146 -4.139 11.27258 20.01330 -3.66070   2.151
 3.36 7.50 -4.060 -4.058 -4.056 -4.052 -4.046 11.41095 20.26340 -3.41061   2.523
 3.36 7.75 -3.968 -3.966 -3.964 -3.960 -3.955 11.54642 20.51352 -3.16052   2.949
 3.36 8.00 -3.878 -3.877 -3.875 -3.871 -3.866 11.67879 20.76365 -2.91045   3.434
 3.38-2.00 -5.475 -5.468 -5.456 -5.433 -5.406  4.66153 10.47986-13.19423   0.001
 3.38-1.50 -5.541 -5.534 -5.521 -5.498 -5.471  5.00732 10.97987-12.69422   0.002
 3.38-1.00 -5.606 -5.599 -5.586 -5.563 -5.534  5.33746 11.48001-12.19409   0.002
 3.38-0.50 -5.657 -5.650 -5.636 -5.612 -5.583  5.66848 11.98028-11.69379   0.003
 3.38 0.00 -5.677 -5.669 -5.656 -5.632 -5.602  6.01995 12.48130-11.19280   0.005
 3.38 0.50 -5.653 -5.646 -5.632 -5.609 -5.580  6.40892 12.98426-10.68973   0.008
 3.38 1.00 -5.586 -5.578 -5.565 -5.542 -5.513  6.83468 13.49318-10.18098   0.013
 3.38 1.25 -5.539 -5.531 -5.518 -5.494 -5.465  7.05584 13.75227 -9.92189   0.017
 3.38 1.50 -5.486 -5.478 -5.465 -5.441 -5.412  7.27830 14.01536 -9.65876   0.021
 3.38 1.75 -5.430 -5.422 -5.409 -5.386 -5.356  7.50161 14.28468 -9.38945   0.027
 3.38 2.00 -5.373 -5.366 -5.353 -5.331 -5.301  7.72493 14.55763 -9.11651   0.035
 3.38 2.25 -5.318 -5.311 -5.299 -5.278 -5.249  7.94656 14.83445 -8.83970   0.045
 3.38 2.50 -5.263 -5.257 -5.246 -5.226 -5.199  8.16643 15.11126 -8.56288   0.059
 3.38 2.75 -5.209 -5.203 -5.193 -5.175 -5.150  8.38310 15.38608 -8.28804   0.076
 3.38 3.00 -5.153 -5.148 -5.139 -5.123 -5.099  8.59682 15.65877 -8.01529   0.097
 3.38 3.20 -5.106 -5.102 -5.094 -5.079 -5.057  8.76595 15.87386 -7.80026   0.118
 3.38 3.40 -5.059 -5.055 -5.048 -5.034 -5.014  8.93235 16.08685 -7.58731   0.142
 3.38 3.60 -5.010 -5.006 -5.000 -4.988 -4.970  9.09529 16.29765 -7.37652   0.171
 3.38 3.80 -4.960 -4.957 -4.951 -4.941 -4.924  9.25313 16.50660 -7.16754   0.205
 3.38 4.00 -4.910 -4.908 -4.903 -4.894 -4.879  9.40603 16.71391 -6.96019   0.245
 3.38 4.20 -4.865 -4.863 -4.858 -4.850 -4.836  9.55156 16.91977 -6.75430   0.290
 3.38 4.40 -4.820 -4.818 -4.814 -4.805 -4.792  9.69182 17.12458 -6.54947   0.340
 3.38 4.60 -4.775 -4.773 -4.770 -4.761 -4.748  9.82638 17.32842 -6.34566   0.397
 3.38 4.80 -4.731 -4.729 -4.725 -4.718 -4.705  9.95697 17.53157 -6.14254   0.462
 3.38 5.00 -4.684 -4.683 -4.679 -4.671 -4.659 10.08458 17.73408 -5.94006   0.535
 3.38 5.20 -4.636 -4.635 -4.631 -4.623 -4.611 10.20924 17.93605 -5.73809   0.618
 3.38 5.40 -4.584 -4.582 -4.579 -4.571 -4.559 10.33351 18.13764 -5.53648   0.713
 3.38 5.60 -4.527 -4.525 -4.522 -4.515 -4.503 10.45742 18.33888 -5.33519   0.823
 3.38 5.80 -4.465 -4.463 -4.460 -4.453 -4.442 10.58126 18.53988 -5.13413   0.949
 3.38 6.00 -4.397 -4.396 -4.393 -4.386 -4.376 10.70509 18.74068 -4.93330   1.094
 3.38 6.25 -4.306 -4.305 -4.302 -4.296 -4.286 10.86065 18.99146 -4.68256   1.308
 3.38 6.50 -4.209 -4.208 -4.205 -4.199 -4.190 11.01620 19.24205 -4.43203   1.565
 3.38 6.75 -4.108 -4.107 -4.105 -4.099 -4.091 11.17006 19.49247 -4.18174   1.868
 3.38 7.00 -4.007 -4.005 -4.003 -3.998 -3.991 11.32201 19.74280 -3.93144   2.225
 3.38 7.25 -3.906 -3.904 -3.902 -3.898 -3.891 11.46978 19.99308 -3.68115   2.638
 3.38 7.50 -3.807 -3.806 -3.804 -3.800 -3.794 11.61395 20.24329 -3.43086   3.115
 3.38 7.75 -3.712 -3.711 -3.709 -3.705 -3.700 11.75433 20.49343 -3.18073   3.661
 3.38 8.00 -3.620 -3.619 -3.617 -3.614 -3.609 11.89098 20.74351 -2.93070   4.284
 3.40-2.00 -5.345 -5.338 -5.326 -5.304 -5.278  4.83078 10.45984-13.21424   0.001
 3.40-1.50 -5.395 -5.388 -5.375 -5.352 -5.325  5.21958 10.95985-12.71422   0.002
 3.40-1.00 -5.452 -5.445 -5.431 -5.408 -5.379  5.57830 11.45985-12.21417   0.003
 3.40-0.50 -5.507 -5.500 -5.486 -5.461 -5.432  5.91450 11.96000-11.71399   0.004
 3.40 0.00 -5.543 -5.536 -5.522 -5.497 -5.467  6.24204 12.46045-11.21375   0.006
 3.40 0.50 -5.543 -5.536 -5.522 -5.497 -5.467  6.57910 12.96142-10.71265   0.009
 3.40 1.00 -5.495 -5.487 -5.473 -5.449 -5.419  6.94512 13.46494-10.20922   0.014
 3.40 1.25 -5.451 -5.443 -5.429 -5.404 -5.374  7.14385 13.71869 -9.95542   0.018
 3.40 1.50 -5.395 -5.387 -5.373 -5.348 -5.318  7.35122 13.97460 -9.69940   0.022
 3.40 1.75 -5.328 -5.321 -5.307 -5.283 -5.253  7.56748 14.23463 -9.43940   0.029
 3.40 2.00 -5.256 -5.249 -5.236 -5.212 -5.183  7.78767 14.49886 -9.17522   0.037
 3.40 2.25 -5.181 -5.174 -5.162 -5.140 -5.112  8.01122 14.76931 -8.90482   0.048
 3.40 2.50 -5.106 -5.100 -5.089 -5.069 -5.042  8.23477 15.04297 -8.63116   0.062
 3.40 2.75 -5.033 -5.028 -5.018 -4.999 -4.974  8.45676 15.31978 -8.35429   0.080
 3.40 3.00 -4.962 -4.957 -4.948 -4.931 -4.908  8.67688 15.59660 -8.07743   0.103
 3.40 3.20 -4.905 -4.901 -4.893 -4.877 -4.856  8.84959 15.81631 -7.85778   0.126
 3.40 3.40 -4.849 -4.845 -4.837 -4.824 -4.803  9.01990 16.03449 -7.63968   0.153
 3.40 3.60 -4.791 -4.788 -4.781 -4.769 -4.750  9.18805 16.25051 -7.42367   0.186
 3.40 3.80 -4.733 -4.730 -4.724 -4.713 -4.696  9.35359 16.46395 -7.21014   0.225
 3.40 4.00 -4.673 -4.670 -4.666 -4.656 -4.641  9.51614 16.67532 -6.99870   0.272
 3.40 4.20 -4.617 -4.614 -4.610 -4.601 -4.587  9.67466 16.88462 -6.78949   0.326
 3.40 4.40 -4.561 -4.558 -4.554 -4.546 -4.532  9.82860 17.09235 -6.58184   0.390
 3.40 4.60 -4.506 -4.504 -4.501 -4.493 -4.480  9.97696 17.29854 -6.37570   0.462
 3.40 4.80 -4.454 -4.453 -4.449 -4.441 -4.429 10.11937 17.50360 -6.17065   0.545
 3.40 5.00 -4.403 -4.401 -4.397 -4.390 -4.378 10.25672 17.70766 -5.96658   0.638
 3.40 5.20 -4.352 -4.350 -4.347 -4.340 -4.328 10.38858 17.91087 -5.76332   0.742
 3.40 5.40 -4.300 -4.298 -4.295 -4.288 -4.277 10.51735 18.11349 -5.56066   0.861
 3.40 5.60 -4.245 -4.244 -4.240 -4.234 -4.223 10.64290 18.31555 -5.35855   0.995
 3.40 5.80 -4.187 -4.186 -4.183 -4.176 -4.166 10.76690 18.51724 -5.15682   1.148
 3.40 6.00 -4.125 -4.124 -4.121 -4.115 -4.105 10.89003 18.71859 -4.95546   1.323
 3.40 6.25 -4.042 -4.041 -4.038 -4.032 -4.024 11.04311 18.96990 -4.70418   1.578
 3.40 6.50 -3.952 -3.951 -3.949 -3.943 -3.935 11.19618 19.22089 -4.45321   1.882
 3.40 6.75 -3.857 -3.856 -3.854 -3.849 -3.841 11.34924 19.47159 -4.20249   2.244
 3.40 7.00 -3.758 -3.757 -3.755 -3.751 -3.744 11.50229 19.72214 -3.95195   2.676
 3.40 7.25 -3.658 -3.657 -3.655 -3.651 -3.645 11.65314 19.97262 -3.70155   3.184
 3.40 7.50 -3.558 -3.557 -3.555 -3.552 -3.546 11.80182 20.22298 -3.45124   3.779
 3.40 7.75 -3.461 -3.460 -3.458 -3.455 -3.450 11.94676 20.47320 -3.20098   4.465
 3.40 8.00 -3.367 -3.366 -3.364 -3.361 -3.357 12.08849 20.72329 -2.95078   5.255
 3.42-2.00 -5.249 -5.243 -5.231 -5.209 -5.184  4.92717 10.43996-13.23418   0.001
 3.42-1.50 -5.279 -5.273 -5.260 -5.238 -5.211  5.35774 10.93992-12.73424   0.002
 3.42-1.00 -5.319 -5.312 -5.298 -5.275 -5.248  5.76110 11.43996-12.23418   0.004
 3.42-0.50 -5.363 -5.355 -5.342 -5.317 -5.288  6.13322 11.93997-11.73424   0.005
 3.42 0.00 -5.399 -5.391 -5.377 -5.352 -5.322  6.47842 12.44012-11.23396   0.008
 3.42 0.50 -5.409 -5.401 -5.386 -5.361 -5.330  6.80740 12.94052-10.73353   0.012
 3.42 1.00 -5.375 -5.367 -5.353 -5.327 -5.296  7.13672 13.44185-10.23225   0.017
 3.42 1.25 -5.339 -5.331 -5.317 -5.291 -5.260  7.30816 13.69333 -9.98080   0.021
 3.42 1.50 -5.290 -5.282 -5.268 -5.243 -5.212  7.48615 13.94576 -9.72839   0.026
 3.42 1.75 -5.228 -5.220 -5.207 -5.182 -5.152  7.67486 14.20019 -9.47397   0.032
 3.42 2.00 -5.154 -5.147 -5.134 -5.110 -5.080  7.87309 14.45713 -9.21703   0.040
 3.42 2.25 -5.069 -5.062 -5.050 -5.028 -5.000  8.08269 14.71841 -8.95576   0.051
 3.42 2.50 -4.977 -4.971 -4.960 -4.940 -4.913  8.29863 14.98403 -8.69016   0.065
 3.42 2.75 -4.882 -4.876 -4.866 -4.848 -4.823  8.52088 15.25601 -8.41810   0.084
 3.42 3.00 -4.787 -4.782 -4.773 -4.756 -4.732  8.74312 15.53058 -8.14351   0.109
 3.42 3.20 -4.712 -4.707 -4.699 -4.684 -4.662  8.92014 15.75204 -7.92213   0.134
 3.42 3.40 -4.639 -4.635 -4.628 -4.614 -4.594  9.09619 15.97349 -7.70076   0.164
 3.42 3.60 -4.568 -4.564 -4.558 -4.545 -4.527  9.27005 16.19399 -7.48028   0.200
 3.42 3.80 -4.498 -4.495 -4.489 -4.478 -4.462  9.44040 16.41218 -7.26203   0.243
 3.42 4.00 -4.430 -4.427 -4.422 -4.412 -4.398  9.60799 16.62859 -7.04552   0.295
 3.42 4.20 -4.365 -4.363 -4.358 -4.349 -4.336  9.77289 16.84226 -6.83185   0.357
 3.42 4.40 -4.300 -4.298 -4.294 -4.286 -4.273  9.93452 17.05390 -6.62020   0.430
 3.42 4.60 -4.237 -4.235 -4.231 -4.224 -4.212 10.09279 17.26347 -6.41057   0.516
 3.42 4.80 -4.176 -4.174 -4.171 -4.164 -4.152 10.24686 17.47137 -6.20258   0.616
 3.42 5.00 -4.116 -4.115 -4.111 -4.104 -4.094 10.39655 17.67779 -5.99611   0.732
 3.42 5.20 -4.059 -4.058 -4.055 -4.048 -4.038 10.54004 17.88294 -5.79104   0.864
 3.42 5.40 -4.003 -4.002 -3.999 -3.992 -3.983 10.67876 18.08717 -5.58691   1.013
 3.42 5.60 -3.947 -3.946 -3.943 -3.937 -3.928 10.81233 18.29051 -5.38364   1.181
 3.42 5.80 -3.891 -3.889 -3.887 -3.881 -3.872 10.94201 18.49324 -5.18096   1.372
 3.42 6.00 -3.832 -3.831 -3.829 -3.823 -3.815 11.06856 18.69539 -4.97881   1.587
 3.42 6.25 -3.756 -3.755 -3.753 -3.748 -3.740 11.22294 18.94738 -4.72669   1.896
 3.42 6.50 -3.676 -3.674 -3.672 -3.668 -3.660 11.37566 19.19893 -4.47509   2.261
 3.42 6.75 -3.590 -3.589 -3.587 -3.582 -3.576 11.52746 19.45024 -4.22395   2.693
 3.42 7.00 -3.499 -3.498 -3.496 -3.492 -3.486 11.67852 19.70122 -3.97306   3.204
 3.42 7.25 -3.405 -3.404 -3.402 -3.398 -3.393 11.82924 19.95176 -3.72231   3.811
 3.42 7.50 -3.309 -3.308 -3.306 -3.303 -3.298 11.97909 20.20222 -3.47173   4.529
 3.42 7.75 -3.213 -3.212 -3.210 -3.207 -3.202 12.12653 20.45265 -3.22130   5.367
 3.42 8.00 -3.119 -3.118 -3.117 -3.114 -3.109 12.27207 20.70303 -2.97102   6.345
 3.44-2.00 -5.185 -5.178 -5.167 -5.146 -5.122  4.96483 10.41996-13.25415   0.001
 3.44-1.50 -5.196 -5.189 -5.177 -5.156 -5.130  5.43201 10.91986-12.75424   0.002
 3.44-1.00 -5.216 -5.210 -5.197 -5.174 -5.147  5.87413 11.41996-12.25415   0.004
 3.44-0.50 -5.243 -5.235 -5.222 -5.199 -5.170  6.28981 11.91991-11.75424   0.006
 3.44 0.00 -5.266 -5.258 -5.244 -5.220 -5.190  6.67505 12.41996-11.25407   0.010
 3.44 0.50 -5.271 -5.263 -5.248 -5.223 -5.193  7.03020 12.92012-10.75399   0.015
 3.44 1.00 -5.238 -5.230 -5.216 -5.190 -5.159  7.36361 13.42062-10.25344   0.022
 3.44 1.25 -5.204 -5.196 -5.182 -5.157 -5.125  7.52686 13.67121-10.00282   0.027
 3.44 1.50 -5.158 -5.151 -5.137 -5.112 -5.081  7.69011 13.92221 -9.75178   0.032
 3.44 1.75 -5.100 -5.093 -5.079 -5.055 -5.025  7.85716 14.17402 -9.49997   0.039
 3.44 2.00 -5.030 -5.024 -5.011 -4.988 -4.958  8.02857 14.42700 -9.24703   0.047
 3.44 2.25 -4.948 -4.941 -4.929 -4.908 -4.880  8.20938 14.68227 -8.99183   0.058
 3.44 2.50 -4.853 -4.847 -4.836 -4.816 -4.790  8.39933 14.94042 -8.73377   0.072
 3.44 2.75 -4.747 -4.742 -4.732 -4.714 -4.689  8.60181 15.20349 -8.47062   0.091
 3.44 3.00 -4.634 -4.629 -4.620 -4.603 -4.580  8.81231 15.47100 -8.20301   0.116
 3.44 3.20 -4.541 -4.536 -4.528 -4.513 -4.492  8.98785 15.68978 -7.98421   0.141
 3.44 3.40 -4.449 -4.445 -4.437 -4.424 -4.404  9.16338 15.90962 -7.76436   0.173
 3.44 3.60 -4.359 -4.355 -4.349 -4.337 -4.319  9.33883 16.13055 -7.54344   0.211
 3.44 3.80 -4.273 -4.270 -4.264 -4.253 -4.238  9.51382 16.35177 -7.32225   0.259
 3.44 4.00 -4.190 -4.188 -4.183 -4.174 -4.160  9.68833 16.57299 -7.10106   0.317
 3.44 4.20 -4.114 -4.112 -4.108 -4.099 -4.087  9.85851 16.79125 -6.88279   0.385
 3.44 4.40 -4.041 -4.039 -4.035 -4.028 -4.016 10.02573 17.00754 -6.66650   0.467
 3.44 4.60 -3.971 -3.969 -3.966 -3.959 -3.948 10.18997 17.22155 -6.45251   0.564
 3.44 4.80 -3.904 -3.902 -3.899 -3.893 -3.883 10.35085 17.43328 -6.24080   0.679
 3.44 5.00 -3.838 -3.836 -3.833 -3.827 -3.818 10.50826 17.64306 -6.03105   0.814
 3.44 5.20 -3.775 -3.773 -3.770 -3.765 -3.756 10.66196 17.85093 -5.82315   0.972
 3.44 5.40 -3.713 -3.711 -3.709 -3.703 -3.695 10.81136 18.05743 -5.61661   1.154
 3.44 5.60 -3.652 -3.651 -3.648 -3.643 -3.635 10.95582 18.26264 -5.41140   1.362
 3.44 5.80 -3.593 -3.592 -3.589 -3.585 -3.577 11.09515 18.46692 -5.20713   1.600
 3.44 6.00 -3.534 -3.533 -3.531 -3.526 -3.519 11.22994 18.67034 -5.00371   1.868
 3.44 6.25 -3.461 -3.460 -3.458 -3.454 -3.447 11.39182 18.92360 -4.75039   2.251
 3.44 6.50 -3.386 -3.385 -3.383 -3.379 -3.373 11.54900 19.17609 -4.49785   2.697
 3.44 6.75 -3.308 -3.307 -3.305 -3.302 -3.296 11.70229 19.42805 -4.24586   3.218
 3.44 7.00 -3.226 -3.226 -3.224 -3.220 -3.215 11.85352 19.67952 -3.99439   3.830
 3.44 7.25 -3.141 -3.140 -3.139 -3.135 -3.130 12.00352 19.93049 -3.74345   4.552
 3.44 7.50 -3.053 -3.052 -3.050 -3.047 -3.042 12.15229 20.18127 -3.49268   5.403
 3.44 7.75 -2.962 -2.962 -2.960 -2.957 -2.953 12.30004 20.43196 -3.24199   6.405
 3.44 8.00 -2.872 -2.872 -2.870 -2.867 -2.863 12.44669 20.68251 -2.99140   7.583
 3.46-2.00 -5.145 -5.140 -5.130 -5.111 -5.089  4.96298 10.39985-13.27417   0.001
 3.46-1.50 -5.142 -5.136 -5.124 -5.104 -5.080  5.45286 10.89982-12.77417   0.002
 3.46-1.00 -5.144 -5.138 -5.125 -5.104 -5.078  5.92896 11.39985-12.27417   0.004
 3.46-0.50 -5.152 -5.145 -5.132 -5.110 -5.082  6.38166 11.89988-11.77417   0.007
 3.46 0.00 -5.158 -5.151 -5.137 -5.114 -5.085  6.80781 12.39985-11.27417   0.011
 3.46 0.50 -5.148 -5.141 -5.126 -5.102 -5.072  7.20439 12.89993-10.77417   0.018
 3.46 1.00 -5.104 -5.096 -5.082 -5.057 -5.026  7.56973 13.40019-10.27393   0.027
 3.46 1.25 -5.065 -5.058 -5.043 -5.019 -4.988  7.74153 13.65043-10.02372   0.033
 3.46 1.50 -5.015 -5.007 -4.994 -4.969 -4.939  7.90907 13.90081 -9.77340   0.040
 3.46 1.75 -4.953 -4.946 -4.933 -4.909 -4.879  8.07243 14.15154 -9.52261   0.048
 3.46 2.00 -4.880 -4.873 -4.861 -4.838 -4.810  8.23578 14.40278 -9.27124   0.058
 3.46 2.25 -4.795 -4.789 -4.778 -4.757 -4.729  8.40078 14.65508 -9.01894   0.070
 3.46 2.50 -4.700 -4.694 -4.684 -4.664 -4.638  8.56808 14.90886 -8.76523   0.085
 3.46 2.75 -4.593 -4.588 -4.578 -4.560 -4.536  8.74356 15.16538 -8.50871   0.104
 3.46 3.00 -4.477 -4.472 -4.463 -4.447 -4.425  8.92722 15.42521 -8.24887   0.129
 3.46 3.20 -4.377 -4.372 -4.365 -4.350 -4.330  9.08342 15.63709 -8.03703   0.154
 3.46 3.40 -4.274 -4.270 -4.263 -4.250 -4.231  9.24520 15.85179 -7.82238   0.186
 3.46 3.60 -4.171 -4.167 -4.161 -4.149 -4.133  9.41430 16.07050 -7.60366   0.225
 3.46 3.80 -4.069 -4.066 -4.061 -4.051 -4.036  9.58660 16.29112 -7.38301   0.275
 3.46 4.00 -3.971 -3.969 -3.964 -3.956 -3.943  9.75899 16.51175 -7.16235   0.336
 3.46 4.20 -3.881 -3.879 -3.875 -3.868 -3.856  9.93141 16.73232 -6.94174   0.410
 3.46 4.40 -3.796 -3.794 -3.791 -3.784 -3.773 10.10384 16.95277 -6.72123   0.499
 3.46 4.60 -3.716 -3.714 -3.711 -3.705 -3.696 10.27438 17.17181 -6.50219   0.607
 3.46 4.80 -3.641 -3.639 -3.637 -3.631 -3.622 10.44079 17.38796 -6.28609   0.735
 3.46 5.00 -3.569 -3.567 -3.565 -3.560 -3.551 10.60423 17.60206 -6.07207   0.888
 3.46 5.20 -3.501 -3.500 -3.497 -3.492 -3.484 10.76430 17.81359 -5.86054   1.068
 3.46 5.40 -3.434 -3.433 -3.431 -3.426 -3.419 10.92079 18.02328 -5.65084   1.279
 3.46 5.60 -3.370 -3.369 -3.367 -3.362 -3.355 11.07364 18.23113 -5.44296   1.525
 3.46 5.80 -3.306 -3.305 -3.304 -3.299 -3.293 11.22235 18.43761 -5.23647   1.810
 3.46 6.00 -3.245 -3.244 -3.242 -3.238 -3.232 11.36680 18.64286 -5.03124   2.137
 3.46 6.25 -3.169 -3.169 -3.167 -3.163 -3.157 11.54002 18.89804 -4.77619   2.609
 3.46 6.50 -3.095 -3.094 -3.093 -3.089 -3.084 11.70655 19.15198 -4.52230   3.160
 3.46 6.75 -3.021 -3.020 -3.019 -3.015 -3.010 11.86633 19.40488 -4.26929   3.798
 3.46 7.00 -2.946 -2.945 -2.944 -2.940 -2.935 12.02160 19.65706 -4.01701   4.542
 3.46 7.25 -2.868 -2.868 -2.866 -2.863 -2.858 12.17322 19.90863 -3.76538   5.408
 3.46 7.50 -2.788 -2.787 -2.786 -2.783 -2.779 12.32243 20.15987 -3.51414   6.421
 3.46 7.75 -2.706 -2.705 -2.704 -2.701 -2.697 12.47010 20.41091 -3.26314   7.611
 3.46 8.00 -2.622 -2.621 -2.620 -2.617 -2.613 12.61595 20.66172 -3.01242   9.003
 3.48-2.00 -5.113 -5.109 -5.102 -5.088 -5.070  4.95761 10.37967-13.29448   0.001
 3.48-1.50 -5.107 -5.103 -5.093 -5.076 -5.056  5.44731 10.87955-12.79453   0.002
 3.48-1.00 -5.099 -5.093 -5.082 -5.063 -5.040  5.93832 11.37967-12.29448   0.004
 3.48-0.50 -5.090 -5.084 -5.072 -5.051 -5.025  6.42045 11.87955-11.79453   0.007
 3.48 0.00 -5.078 -5.072 -5.059 -5.036 -5.009  6.88270 12.37967-11.29448   0.012
 3.48 0.50 -5.052 -5.044 -5.031 -5.007 -4.978  7.31827 12.87961-10.79453   0.020
 3.48 1.00 -4.989 -4.982 -4.968 -4.944 -4.914  7.72518 13.37967-10.29439   0.032
 3.48 1.25 -4.940 -4.933 -4.919 -4.895 -4.865  7.91636 13.62977-10.04433   0.040
 3.48 1.50 -4.879 -4.872 -4.858 -4.835 -4.805  8.10003 13.87996 -9.79426   0.049
 3.48 1.75 -4.805 -4.798 -4.786 -4.763 -4.734  8.27599 14.13025 -9.54391   0.059
 3.48 2.00 -4.721 -4.714 -4.702 -4.681 -4.653  8.44654 14.38075 -9.29328   0.072
 3.48 2.25 -4.626 -4.620 -4.609 -4.589 -4.562  8.61104 14.63175 -9.04232   0.087
 3.48 2.50 -4.523 -4.517 -4.506 -4.488 -4.463  8.77554 14.88344 -8.79075   0.106
 3.48 2.75 -4.410 -4.405 -4.395 -4.378 -4.355  8.94011 15.13645 -8.53773   0.128
 3.48 3.00 -4.290 -4.285 -4.277 -4.261 -4.241  9.10483 15.39129 -8.28283   0.154
 3.48 3.20 -4.189 -4.185 -4.177 -4.163 -4.144  9.24189 15.59749 -8.07659   0.180
 3.48 3.40 -4.085 -4.081 -4.075 -4.062 -4.045  9.38345 15.80610 -7.86794   0.212
 3.48 3.60 -3.979 -3.975 -3.970 -3.959 -3.944  9.53129 16.01801 -7.65603   0.252
 3.48 3.80 -3.872 -3.869 -3.864 -3.855 -3.842  9.68614 16.23332 -7.44075   0.302
 3.48 4.00 -3.766 -3.764 -3.760 -3.752 -3.741  9.84646 16.45117 -7.22294   0.363
 3.48 4.20 -3.666 -3.664 -3.661 -3.654 -3.644 10.01429 16.67243 -7.00168   0.440
 3.48 4.40 -3.570 -3.569 -3.566 -3.560 -3.550 10.18272 16.89369 -6.78042   0.534
 3.48 4.60 -3.480 -3.479 -3.476 -3.471 -3.462 10.35172 17.11462 -6.55948   0.649
 3.48 4.80 -3.395 -3.394 -3.392 -3.387 -3.379 10.52083 17.33446 -6.33960   0.789
 3.48 5.00 -3.315 -3.314 -3.312 -3.307 -3.300 10.68993 17.55328 -6.12073   0.958
 3.48 5.20 -3.240 -3.239 -3.237 -3.233 -3.226 10.85487 17.76908 -5.90493   1.158
 3.48 5.40 -3.169 -3.168 -3.166 -3.162 -3.155 11.01695 17.98278 -5.69125   1.396
 3.48 5.60 -3.100 -3.099 -3.097 -3.093 -3.087 11.17597 18.19423 -5.47981   1.676
 3.48 5.80 -3.034 -3.033 -3.031 -3.027 -3.022 11.33137 18.40372 -5.27032   2.004
 3.48 6.00 -2.969 -2.968 -2.966 -2.963 -2.957 11.48316 18.61151 -5.06253   2.387
 3.48 6.25 -2.890 -2.889 -2.888 -2.885 -2.879 11.66715 18.86921 -4.80489   2.950
 3.48 6.50 -2.814 -2.813 -2.812 -2.808 -2.803 11.84454 19.12516 -4.54898   3.619
 3.48 6.75 -2.739 -2.739 -2.737 -2.734 -2.729 12.01440 19.37963 -4.29445   4.400
 3.48 7.00 -2.666 -2.665 -2.664 -2.661 -2.656 12.17783 19.63307 -4.04101   5.310
 3.48 7.25 -2.593 -2.592 -2.591 -2.588 -2.584 12.33484 19.88569 -3.78848   6.363
 3.48 7.50 -2.519 -2.518 -2.517 -2.514 -2.510 12.48742 20.13767 -3.53655   7.586
 3.48 7.75 -2.443 -2.443 -2.442 -2.439 -2.435 12.63693 20.38919 -3.28500   9.011
 3.48 8.00 -2.367 -2.366 -2.365 -2.362 -2.359 12.78290 20.64018 -3.03391  10.659
 3.50-2.00 -5.044 -5.041 -5.037 -5.028 -5.016  5.02202 10.35984-13.31417   0.001
 3.50-1.50 -5.064 -5.061 -5.054 -5.042 -5.027  5.46315 10.85986-12.81417   0.002
 3.50-1.00 -5.064 -5.059 -5.051 -5.036 -5.017  5.93732 11.35984-12.31417   0.004
 3.50-0.50 -5.051 -5.046 -5.036 -5.017 -4.995  6.42406 11.85986-11.81417   0.007
 3.50 0.00 -5.026 -5.020 -5.009 -4.988 -4.964  6.90838 12.35984-11.31417   0.012
 3.50 0.50 -4.983 -4.976 -4.963 -4.941 -4.915  7.37658 12.85992-10.81417   0.021
 3.50 1.00 -4.902 -4.895 -4.882 -4.859 -4.831  7.81941 13.36003-10.31408   0.034
 3.50 1.25 -4.842 -4.835 -4.822 -4.800 -4.771  8.03024 13.61003-10.06413   0.043
 3.50 1.50 -4.767 -4.761 -4.748 -4.725 -4.697  8.23350 13.86004 -9.81418   0.055
 3.50 1.75 -4.678 -4.672 -4.659 -4.638 -4.610  8.42850 14.11016 -9.56398   0.069
 3.50 2.00 -4.577 -4.571 -4.559 -4.538 -4.511  8.61574 14.36040 -9.31363   0.086
 3.50 2.25 -4.465 -4.460 -4.449 -4.429 -4.404  8.79478 14.61087 -9.06318   0.106
 3.50 2.50 -4.346 -4.340 -4.331 -4.313 -4.289  8.96778 14.86166 -8.81248   0.129
 3.50 2.75 -4.220 -4.215 -4.206 -4.190 -4.169  9.13440 15.11304 -8.56111   0.156
 3.50 3.00 -4.090 -4.086 -4.078 -4.064 -4.045  9.29973 15.36530 -8.30883   0.189
 3.50 3.20 -3.984 -3.980 -3.973 -3.960 -3.943  9.43131 15.56834 -8.10576   0.220
 3.50 3.40 -3.876 -3.873 -3.867 -3.855 -3.840  9.56290 15.77287 -7.90118   0.256
 3.50 3.60 -3.768 -3.765 -3.760 -3.750 -3.737  9.69631 15.97944 -7.69460   0.298
 3.50 3.80 -3.660 -3.658 -3.653 -3.645 -3.633  9.83450 16.18896 -7.48509   0.350
 3.50 4.00 -3.553 -3.551 -3.548 -3.541 -3.531  9.97667 16.40123 -7.27287   0.412
 3.50 4.20 -3.450 -3.449 -3.445 -3.439 -3.430 10.12649 16.61787 -7.05623   0.490
 3.50 4.40 -3.350 -3.349 -3.346 -3.341 -3.333 10.28121 16.83642 -6.83768   0.585
 3.50 4.60 -3.255 -3.254 -3.251 -3.246 -3.239 10.44220 17.05714 -6.61695   0.704
 3.50 4.80 -3.164 -3.163 -3.161 -3.156 -3.149 10.60625 17.27862 -6.39547   0.851
 3.50 5.00 -3.077 -3.076 -3.074 -3.070 -3.064 10.77093 17.50010 -6.17399   1.028
 3.50 5.20 -2.996 -2.995 -2.993 -2.990 -2.983 10.93598 17.71959 -5.95457   1.243
 3.50 5.40 -2.919 -2.918 -2.916 -2.912 -2.907 11.10103 17.93742 -5.73682   1.503
 3.50 5.60 -2.845 -2.844 -2.842 -2.839 -2.833 11.26458 18.15301 -5.52123   1.815
 3.50 5.80 -2.774 -2.773 -2.772 -2.769 -2.763 11.42458 18.36606 -5.30812   2.181
 3.50 6.00 -2.706 -2.705 -2.704 -2.701 -2.696 11.58184 18.57703 -5.09707   2.614
 3.50 6.25 -2.625 -2.624 -2.622 -2.619 -2.615 11.77327 18.83797 -4.83615   3.259
 3.50 6.50 -2.545 -2.545 -2.544 -2.541 -2.536 11.95895 19.09656 -4.57757   4.036
 3.50 6.75 -2.469 -2.468 -2.467 -2.464 -2.460 12.13820 19.35321 -4.32093   4.961
 3.50 7.00 -2.395 -2.394 -2.393 -2.390 -2.386 12.31091 19.60831 -4.06580   6.052
 3.50 7.25 -2.322 -2.322 -2.321 -2.318 -2.314 12.47625 19.86207 -3.81199   7.321
 3.50 7.50 -2.251 -2.251 -2.249 -2.247 -2.243 12.63548 20.11494 -3.55909   8.794
 3.50 7.75 -2.181 -2.180 -2.179 -2.176 -2.173 12.78949 20.36725 -3.30680  10.500
 3.50 8.00 -2.110 -2.110 -2.108 -2.106 -2.102 12.93797 20.61889 -3.05522  12.457
 3.52-2.00 -4.874 -4.873 -4.871 -4.868 -4.863  5.27323 10.33985-13.33414   0.002
 3.52-1.50 -4.951 -4.949 -4.946 -4.939 -4.931  5.61310 10.83986-12.83416   0.003
 3.52-1.00 -4.996 -4.993 -4.988 -4.978 -4.965  6.00260 11.33985-12.33414   0.004
 3.52-0.50 -5.008 -5.004 -4.997 -4.984 -4.967  6.44264 11.83986-11.83416   0.007
 3.52 0.00 -4.990 -4.985 -4.976 -4.960 -4.940  6.91466 12.33985-11.33414   0.012
 3.52 0.50 -4.939 -4.934 -4.923 -4.904 -4.882  7.39585 12.83992-10.83416   0.021
 3.52 1.00 -4.844 -4.838 -4.826 -4.806 -4.781  7.86776 13.33985-10.33414   0.036
 3.52 1.25 -4.774 -4.768 -4.756 -4.736 -4.711  8.09538 13.58990-10.08415   0.047
 3.52 1.50 -4.687 -4.681 -4.669 -4.649 -4.623  8.31660 13.83998 -9.83416   0.060
 3.52 1.75 -4.584 -4.578 -4.567 -4.547 -4.521  8.53045 14.09009 -9.58410   0.077
 3.52 2.00 -4.466 -4.460 -4.449 -4.429 -4.404  8.73680 14.34025 -9.33395   0.097
 3.52 2.25 -4.335 -4.330 -4.319 -4.301 -4.277  8.93505 14.59042 -9.08369   0.122
 3.52 2.50 -4.196 -4.191 -4.181 -4.165 -4.143  9.12548 14.84067 -8.83327   0.151
 3.52 2.75 -4.052 -4.047 -4.039 -4.024 -4.004  9.30756 15.09131 -8.58267   0.186
 3.52 3.00 -3.906 -3.902 -3.895 -3.882 -3.864  9.48316 15.34242 -8.33171   0.228
 3.52 3.20 -3.789 -3.786 -3.779 -3.768 -3.752  9.61831 15.54387 -8.13025   0.267
 3.52 3.40 -3.673 -3.670 -3.664 -3.654 -3.640  9.75213 15.74610 -7.92797   0.311
 3.52 3.60 -3.558 -3.555 -3.551 -3.542 -3.530  9.88463 15.94940 -7.72466   0.362
 3.52 3.80 -3.445 -3.442 -3.438 -3.431 -3.420 10.01677 16.15460 -7.51951   0.422
 3.52 4.00 -3.334 -3.332 -3.329 -3.322 -3.313 10.14891 16.36173 -7.31247   0.491
 3.52 4.20 -3.227 -3.225 -3.223 -3.217 -3.209 10.28505 16.57225 -7.10190   0.574
 3.52 4.40 -3.124 -3.123 -3.120 -3.115 -3.108 10.42462 16.78562 -6.88847   0.674
 3.52 4.60 -3.026 -3.025 -3.022 -3.018 -3.011 10.56915 17.00300 -6.67108   0.797
 3.52 4.80 -2.932 -2.931 -2.929 -2.925 -2.919 10.71916 17.22278 -6.45133   0.946
 3.52 5.00 -2.843 -2.842 -2.840 -2.837 -2.831 10.87326 17.44326 -6.23084   1.130
 3.52 5.20 -2.759 -2.758 -2.756 -2.753 -2.747 11.03269 17.66423 -6.00987   1.358
 3.52 5.40 -2.678 -2.677 -2.676 -2.673 -2.667 11.19262 17.88519 -5.78889   1.632
 3.52 5.60 -2.601 -2.601 -2.599 -2.596 -2.591 11.35300 18.10493 -5.56917   1.963
 3.52 5.80 -2.528 -2.527 -2.526 -2.523 -2.518 11.51347 18.32193 -5.35219   2.362
 3.52 6.00 -2.457 -2.456 -2.455 -2.452 -2.448 11.67394 18.53694 -5.13721   2.841
 3.52 6.25 -2.372 -2.371 -2.370 -2.367 -2.363 11.87009 18.80200 -4.87209   3.560
 3.52 6.50 -2.291 -2.290 -2.289 -2.286 -2.282 12.06221 19.06409 -4.60995   4.441
 3.52 6.75 -2.212 -2.212 -2.210 -2.208 -2.204 12.24857 19.32356 -4.35049   5.504
 3.52 7.00 -2.136 -2.136 -2.135 -2.132 -2.129 12.42911 19.58092 -4.09313   6.777
 3.52 7.25 -2.063 -2.063 -2.062 -2.059 -2.056 12.60303 19.83639 -3.83760   8.279
 3.52 7.50 -1.992 -1.992 -1.991 -1.988 -1.985 12.77041 20.09061 -3.58336  10.038
 3.52 7.75 -1.924 -1.923 -1.922 -1.920 -1.916 12.93102 20.34403 -3.32999  12.077
 3.52 8.00 -1.857 -1.856 -1.855 -1.852 -1.849 13.08493 20.59649 -3.07764  14.420
 3.54-2.00 -4.619 -4.618 -4.618 -4.617 -4.616  5.65552 10.31994-13.35419   0.003
 3.54-1.50 -4.739 -4.738 -4.737 -4.735 -4.732  5.93757 10.81987-12.85418   0.004
 3.54-1.00 -4.836 -4.835 -4.832 -4.828 -4.822  6.24254 11.31994-12.35419   0.005
 3.54-0.50 -4.902 -4.900 -4.896 -4.889 -4.879  6.58467 11.81987-11.85418   0.008
 3.54 0.00 -4.926 -4.923 -4.918 -4.907 -4.893  6.97704 12.31994-11.35419   0.012
 3.54 0.50 -4.898 -4.895 -4.887 -4.874 -4.857  7.41797 12.81987-10.85418   0.021
 3.54 1.00 -4.807 -4.802 -4.793 -4.778 -4.758  7.88683 13.31994-10.35419   0.035
 3.54 1.25 -4.734 -4.729 -4.719 -4.703 -4.683  8.12210 13.56994-10.10419   0.046
 3.54 1.50 -4.639 -4.634 -4.624 -4.607 -4.585  8.35736 13.81994 -9.85418   0.061
 3.54 1.75 -4.525 -4.519 -4.510 -4.493 -4.471  8.58627 14.07004 -9.60415   0.080
 3.54 2.00 -4.392 -4.387 -4.377 -4.360 -4.338  8.80969 14.32015 -9.35409   0.103
 3.54 2.25 -4.245 -4.240 -4.231 -4.215 -4.194  9.02575 14.57021 -9.10400   0.132
 3.54 2.50 -4.088 -4.083 -4.075 -4.059 -4.040  9.23452 14.82027 -8.85387   0.167
 3.54 2.75 -3.925 -3.920 -3.913 -3.899 -3.882  9.43532 15.07060 -8.60356   0.210
 3.54 3.00 -3.760 -3.756 -3.749 -3.737 -3.721  9.62829 15.32119 -8.35301   0.263
 3.54 3.20 -3.629 -3.625 -3.619 -3.609 -3.595  9.77633 15.52186 -8.15229   0.312
 3.54 3.40 -3.500 -3.497 -3.492 -3.482 -3.470  9.92010 15.72289 -7.95118   0.369
 3.54 3.60 -3.373 -3.371 -3.366 -3.358 -3.347 10.05896 15.92447 -7.74955   0.433
 3.54 3.80 -3.250 -3.248 -3.244 -3.237 -3.227 10.19495 16.12718 -7.54689   0.506
 3.54 4.00 -3.130 -3.128 -3.125 -3.119 -3.110 10.32940 16.33102 -7.34314   0.590
 3.54 4.20 -3.015 -3.013 -3.010 -3.005 -2.998 10.46255 16.53692 -7.13722   0.688
 3.54 4.40 -2.904 -2.903 -2.900 -2.896 -2.889 10.59571 16.74516 -6.92894   0.802
 3.54 4.60 -2.799 -2.798 -2.796 -2.792 -2.785 10.73026 16.95661 -6.71746   0.937
 3.54 4.80 -2.700 -2.699 -2.697 -2.693 -2.687 10.86840 17.17149 -6.50258   1.098
 3.54 5.00 -2.606 -2.605 -2.604 -2.600 -2.595 11.00945 17.38899 -6.28508   1.292
 3.54 5.20 -2.519 -2.518 -2.517 -2.513 -2.508 11.15600 17.61014 -6.06390   1.529
 3.54 5.40 -2.437 -2.436 -2.435 -2.432 -2.427 11.30566 17.83129 -5.84272   1.817
 3.54 5.60 -2.359 -2.359 -2.357 -2.355 -2.350 11.45919 18.05220 -5.62179   2.168
 3.54 5.80 -2.286 -2.285 -2.284 -2.281 -2.277 11.61439 18.27227 -5.40177   2.592
 3.54 6.00 -2.215 -2.214 -2.213 -2.211 -2.207 11.76975 18.49150 -5.18263   3.100
 3.54 6.25 -2.130 -2.129 -2.128 -2.125 -2.122 11.96406 18.76128 -4.91292   3.877
 3.54 6.50 -2.047 -2.047 -2.046 -2.043 -2.040 12.15836 19.02776 -4.64647   4.849
 3.54 6.75 -1.968 -1.967 -1.966 -1.964 -1.960 12.34863 19.29072 -4.38341   6.036
 3.54 7.00 -1.891 -1.890 -1.889 -1.887 -1.884 12.53504 19.55096 -4.12309   7.481
 3.54 7.25 -1.817 -1.816 -1.815 -1.813 -1.810 12.71550 19.80877 -3.86528   9.209
 3.54 7.50 -1.746 -1.745 -1.744 -1.742 -1.739 12.89003 20.06483 -3.60924  11.258
 3.54 7.75 -1.677 -1.677 -1.676 -1.673 -1.670 13.05769 20.31967 -3.35442  13.654
 3.54 8.00 -1.612 -1.611 -1.610 -1.608 -1.604 13.21880 20.57310 -3.10100  16.436
 3.56-2.00 -4.319 -4.318 -4.318 -4.318 -4.317  6.07591 10.29973-13.37428   0.004
 3.56-1.50 -4.466 -4.466 -4.465 -4.465 -4.464  6.33746 10.79982-12.87419   0.006
 3.56-1.00 -4.596 -4.596 -4.595 -4.594 -4.592  6.60713 11.29994-12.37428   0.008
 3.56-0.50 -4.705 -4.704 -4.702 -4.699 -4.695  6.89104 11.79982-11.87419   0.011
 3.56 0.00 -4.780 -4.779 -4.776 -4.771 -4.763  7.19976 12.29994-11.37428   0.016
 3.56 0.50 -4.804 -4.802 -4.797 -4.789 -4.779  7.54716 12.79982-10.87419   0.023
 3.56 1.00 -4.752 -4.749 -4.743 -4.733 -4.720  7.94517 13.29994-10.37428   0.037
 3.56 1.25 -4.690 -4.687 -4.681 -4.670 -4.656  8.16306 13.54988-10.12424   0.048
 3.56 1.50 -4.602 -4.598 -4.592 -4.580 -4.565  8.38757 13.79982 -9.87419   0.062
 3.56 1.75 -4.488 -4.484 -4.477 -4.465 -4.449  8.61819 14.04988 -9.62418   0.081
 3.56 2.00 -4.349 -4.345 -4.338 -4.325 -4.309  8.84880 14.29994 -9.37417   0.105
 3.56 2.25 -4.192 -4.188 -4.181 -4.168 -4.152  9.07649 14.54999 -9.12418   0.136
 3.56 2.50 -4.021 -4.017 -4.010 -3.997 -3.981  9.30081 14.80003 -8.87419   0.177
 3.56 2.75 -3.842 -3.839 -3.832 -3.821 -3.806  9.51786 15.05015 -8.62400   0.227
 3.56 3.00 -3.660 -3.657 -3.651 -3.641 -3.627  9.72811 15.30038 -8.37366   0.289
 3.56 3.20 -3.515 -3.512 -3.507 -3.497 -3.485  9.89061 15.50072 -8.17334   0.348
 3.56 3.40 -3.371 -3.369 -3.364 -3.355 -3.344 10.04820 15.70126 -7.97286   0.417
 3.56 3.60 -3.230 -3.228 -3.224 -3.216 -3.206 10.20048 15.90206 -7.77211   0.497
 3.56 3.80 -3.093 -3.091 -3.088 -3.081 -3.072 10.34792 16.10341 -7.57070   0.589
 3.56 4.00 -2.961 -2.959 -2.956 -2.950 -2.942 10.49108 16.30535 -7.36866   0.695
 3.56 4.20 -2.833 -2.832 -2.829 -2.824 -2.816 10.62925 16.50848 -7.16549   0.815
 3.56 4.40 -2.711 -2.710 -2.707 -2.703 -2.696 10.76587 16.71314 -6.96082   0.954
 3.56 4.60 -2.594 -2.593 -2.591 -2.587 -2.581 10.90087 16.91986 -6.75411   1.114
 3.56 4.80 -2.484 -2.483 -2.481 -2.478 -2.472 11.03542 17.12957 -6.54442   1.301
 3.56 5.00 -2.381 -2.380 -2.379 -2.375 -2.370 11.16997 17.34203 -6.33199   1.519
 3.56 5.20 -2.286 -2.285 -2.283 -2.280 -2.276 11.30762 17.55891 -6.11518   1.780
 3.56 5.40 -2.198 -2.197 -2.196 -2.193 -2.188 11.44756 17.77763 -5.89651   2.091
 3.56 5.60 -2.117 -2.116 -2.115 -2.112 -2.108 11.59052 17.99841 -5.67572   2.464
 3.56 5.80 -2.042 -2.042 -2.040 -2.038 -2.034 11.73634 18.21990 -5.45421   2.915
 3.56 6.00 -1.972 -1.971 -1.970 -1.968 -1.964 11.88423 18.44138 -5.23270   3.456
 3.56 6.25 -1.889 -1.889 -1.887 -1.885 -1.881 12.07227 18.71525 -4.95881   4.291
 3.56 6.50 -1.809 -1.809 -1.808 -1.805 -1.802 12.26031 18.98646 -4.68761   5.328
 3.56 6.75 -1.732 -1.731 -1.730 -1.728 -1.725 12.44819 19.25362 -4.42047   6.614
 3.56 7.00 -1.656 -1.656 -1.654 -1.652 -1.649 12.63579 19.51759 -4.15652   8.209
 3.56 7.25 -1.583 -1.582 -1.581 -1.579 -1.575 12.81931 19.77851 -3.89565  10.140
 3.56 7.50 -1.511 -1.511 -1.510 -1.507 -1.504 12.99883 20.03703 -3.63714  12.468
 3.56 7.75 -1.443 -1.443 -1.442 -1.439 -1.436 13.17194 20.29372 -3.38040  15.218
 3.56 8.00 -1.378 -1.378 -1.376 -1.374 -1.370 13.33945 20.54839 -3.12563  18.456
 3.58-2.00 -3.996 -3.995 -3.995 -3.995 -3.994  6.49402 10.27990-13.39426   0.007
 3.58-1.50 -4.163 -4.162 -4.162 -4.162 -4.161  6.74842 10.77981-12.89415   0.009
 3.58-1.00 -4.315 -4.315 -4.314 -4.314 -4.313  7.00561 11.27989-12.39426   0.012
 3.58-0.50 -4.449 -4.449 -4.448 -4.447 -4.446  7.26834 11.77981-11.89415   0.017
 3.58 0.00 -4.556 -4.556 -4.555 -4.553 -4.550  7.53995 12.27989-11.39426   0.023
 3.58 0.50 -4.620 -4.619 -4.617 -4.614 -4.609  7.82789 12.77981-10.89415   0.032
 3.58 1.00 -4.615 -4.613 -4.610 -4.605 -4.598  8.14301 13.27990-10.39426   0.045
 3.58 1.25 -4.578 -4.576 -4.572 -4.566 -4.558  8.31572 13.52985-10.14421   0.055
 3.58 1.50 -4.513 -4.511 -4.507 -4.501 -4.491  8.49969 13.77981 -9.89415   0.069
 3.58 1.75 -4.420 -4.417 -4.413 -4.406 -4.396  8.69751 14.02985 -9.64415   0.086
 3.58 2.00 -4.297 -4.295 -4.290 -4.282 -4.272  8.90558 14.27989 -9.39416   0.109
 3.58 2.25 -4.148 -4.145 -4.141 -4.132 -4.122  9.12509 14.52989 -9.14416   0.141
 3.58 2.50 -3.977 -3.975 -3.970 -3.961 -3.950  9.34655 14.77989 -8.89415   0.182
 3.58 2.75 -3.793 -3.790 -3.785 -3.777 -3.766  9.56923 15.02997 -8.64407   0.235
 3.58 3.00 -3.600 -3.598 -3.593 -3.585 -3.574  9.79190 15.28012 -8.39394   0.304
 3.58 3.20 -3.445 -3.442 -3.438 -3.430 -3.420  9.96516 15.48030 -8.19381   0.371
 3.58 3.40 -3.289 -3.287 -3.283 -3.275 -3.265 10.13480 15.68058 -7.99360   0.451
 3.58 3.60 -3.135 -3.133 -3.129 -3.122 -3.113 10.30030 15.88097 -7.79323   0.545
 3.58 3.80 -2.984 -2.982 -2.979 -2.973 -2.964 10.46088 16.08165 -7.59248   0.656
 3.58 4.00 -2.837 -2.835 -2.832 -2.827 -2.818 10.61679 16.28262 -7.39137   0.785
 3.58 4.20 -2.695 -2.694 -2.691 -2.686 -2.678 10.76708 16.48427 -7.18974   0.933
 3.58 4.40 -2.558 -2.557 -2.555 -2.550 -2.543 10.91328 16.68683 -6.98727   1.104
 3.58 4.60 -2.428 -2.426 -2.424 -2.420 -2.414 11.05476 16.89058 -6.78360   1.300
 3.58 4.80 -2.303 -2.302 -2.300 -2.297 -2.291 11.19350 17.09640 -6.57778   1.525
 3.58 5.00 -2.186 -2.186 -2.184 -2.180 -2.175 11.33082 17.30428 -6.36988   1.786
 3.58 5.20 -2.078 -2.077 -2.075 -2.072 -2.068 11.46696 17.51577 -6.15843   2.089
 3.58 5.40 -1.977 -1.977 -1.975 -1.973 -1.968 11.60310 17.73007 -5.94415   2.443
 3.58 5.60 -1.887 -1.886 -1.885 -1.882 -1.878 11.74013 17.94839 -5.72574   2.860
 3.58 5.80 -1.805 -1.804 -1.803 -1.801 -1.797 11.87912 18.16877 -5.50525   3.357
 3.58 6.00 -1.731 -1.730 -1.729 -1.727 -1.723 12.01953 18.38935 -5.28467   3.947
 3.58 6.25 -1.647 -1.647 -1.645 -1.643 -1.640 12.19794 18.66521 -5.00886   4.847
 3.58 6.50 -1.570 -1.569 -1.568 -1.566 -1.562 12.37803 18.94107 -4.73306   5.963
 3.58 6.75 -1.497 -1.496 -1.495 -1.493 -1.489 12.55979 19.21243 -4.46167   7.351
 3.58 7.00 -1.425 -1.425 -1.424 -1.421 -1.418 12.74155 19.48058 -4.19348   9.062
 3.58 7.25 -1.356 -1.355 -1.354 -1.351 -1.348 12.92254 19.74497 -3.92907  11.162
 3.58 7.50 -1.287 -1.286 -1.285 -1.283 -1.279 13.10243 20.00647 -3.66756  13.731
 3.58 7.75 -1.220 -1.220 -1.219 -1.216 -1.212 13.27775 20.26564 -3.40839  16.801
 3.58 8.00 -1.156 -1.156 -1.154 -1.152 -1.148 13.44963 20.52231 -3.15175  20.474
 3.60-2.00 -3.659 -3.659 -3.658 -3.658 -3.657  6.89933 10.25959-13.41443   0.011
 3.60-1.50 -3.843 -3.843 -3.842 -3.842 -3.841  7.15137 10.75974-12.91435   0.014
 3.60-1.00 -4.012 -4.012 -4.012 -4.011 -4.010  7.40432 11.25983-12.41431   0.019
 3.60-0.50 -4.164 -4.164 -4.163 -4.162 -4.161  7.65916 11.75982-11.91435   0.025
 3.60 0.00 -4.290 -4.289 -4.289 -4.288 -4.286  7.91756 12.25983-11.41420   0.034
 3.60 0.50 -4.374 -4.373 -4.372 -4.371 -4.369  8.18184 12.75982-10.91435   0.046
 3.60 1.00 -4.393 -4.392 -4.391 -4.388 -4.385  8.45728 13.25983-10.41420   0.064
 3.60 1.25 -4.370 -4.369 -4.368 -4.365 -4.360  8.60141 13.50983-10.16428   0.076
 3.60 1.50 -4.324 -4.323 -4.321 -4.317 -4.312  8.75136 13.75982 -9.91435   0.090
 3.60 1.75 -4.252 -4.251 -4.248 -4.244 -4.239  8.90932 14.00982 -9.66428   0.108
 3.60 2.00 -4.155 -4.154 -4.151 -4.147 -4.141  9.07628 14.25983 -9.41420   0.130
 3.60 2.25 -4.034 -4.033 -4.030 -4.025 -4.019  9.25492 14.50986 -9.16428   0.160
 3.60 2.50 -3.891 -3.889 -3.886 -3.881 -3.874  9.44436 14.75989 -8.91435   0.199
 3.60 2.75 -3.726 -3.724 -3.721 -3.716 -3.708  9.64666 15.00997 -8.66425   0.251
 3.60 3.00 -3.545 -3.543 -3.540 -3.534 -3.527  9.85564 15.26007 -8.41409   0.319
 3.60 3.20 -3.392 -3.390 -3.387 -3.381 -3.373 10.02788 15.46016 -8.21394   0.389
 3.60 3.40 -3.234 -3.232 -3.229 -3.223 -3.215 10.20011 15.66028 -8.01375   0.474
 3.60 3.60 -3.074 -3.073 -3.069 -3.063 -3.055 10.37156 15.86045 -7.81352   0.578
 3.60 3.80 -2.915 -2.913 -2.910 -2.904 -2.896 10.54060 16.06078 -7.61319   0.702
 3.60 4.00 -2.757 -2.755 -2.752 -2.746 -2.738 10.70749 16.26126 -7.41274   0.851
 3.60 4.20 -2.602 -2.601 -2.598 -2.592 -2.585 10.86938 16.46213 -7.21192   1.026
 3.60 4.40 -2.451 -2.450 -2.447 -2.442 -2.435 11.02715 16.66352 -7.01059   1.230
 3.60 4.60 -2.306 -2.304 -2.302 -2.297 -2.291 11.18025 16.86555 -6.80858   1.468
 3.60 4.80 -2.166 -2.165 -2.163 -2.159 -2.153 11.32896 17.06885 -6.60525   1.742
 3.60 5.00 -2.033 -2.032 -2.031 -2.027 -2.021 11.47392 17.27346 -6.40055   2.058
 3.60 5.20 -1.909 -1.908 -1.906 -1.903 -1.898 11.61463 17.48063 -6.19338   2.420
 3.60 5.40 -1.793 -1.792 -1.790 -1.788 -1.783 11.75391 17.69038 -5.98363   2.841
 3.60 5.60 -1.687 -1.686 -1.685 -1.682 -1.678 11.89170 17.90362 -5.77040   3.329
 3.60 5.80 -1.591 -1.591 -1.590 -1.587 -1.583 12.02907 18.12010 -5.55392   3.900
 3.60 6.00 -1.506 -1.506 -1.505 -1.502 -1.498 12.16643 18.33885 -5.33517   4.568
 3.60 6.25 -1.414 -1.413 -1.412 -1.410 -1.406 12.33928 18.61570 -5.05832   5.573
 3.60 6.50 -1.333 -1.332 -1.331 -1.329 -1.325 12.51282 18.89254 -4.78147   6.805
 3.60 6.75 -1.261 -1.260 -1.259 -1.256 -1.253 12.68721 19.16727 -4.50675   8.318
 3.60 7.00 -1.193 -1.193 -1.192 -1.189 -1.185 12.86183 19.43981 -4.23426  10.170
 3.60 7.25 -1.129 -1.129 -1.127 -1.125 -1.121 13.03661 19.70815 -3.96597  12.437
 3.60 7.50 -1.066 -1.066 -1.064 -1.062 -1.058 13.21139 19.97322 -3.70093  15.210
 3.60 7.75 -1.005 -1.004 -1.003 -1.000 -0.996 13.38420 20.23530 -3.43882  18.558
 3.60 8.00 -0.944 -0.943 -0.942 -0.939 -0.935 13.55570 20.49429 -3.17973  22.608
 3.62-2.00 -3.315 -3.314 -3.314 -3.313 -3.312  7.29004 10.23930-13.43474   0.016
 3.62-1.50 -3.513 -3.513 -3.512 -3.511 -3.510  7.54108 10.73957-12.93442   0.022
 3.62-1.00 -3.698 -3.698 -3.697 -3.696 -3.695  7.79260 11.23980-12.43439   0.029
 3.62-0.50 -3.864 -3.864 -3.863 -3.862 -3.861  8.04454 11.73973-11.93442   0.039
 3.62 0.00 -4.003 -4.002 -4.002 -4.001 -3.999  8.29820 12.23980-11.43427   0.052
 3.62 0.50 -4.096 -4.096 -4.095 -4.094 -4.092  8.55388 12.73981-10.93442   0.070
 3.62 1.00 -4.123 -4.123 -4.122 -4.120 -4.118  8.81385 13.23980-10.43427   0.094
 3.62 1.25 -4.105 -4.104 -4.103 -4.102 -4.099  8.94640 13.48981-10.18435   0.109
 3.62 1.50 -4.064 -4.063 -4.062 -4.060 -4.057  9.08135 13.73981 -9.93442   0.128
 3.62 1.75 -4.001 -4.000 -3.999 -3.996 -3.993  9.21958 13.98981 -9.68435   0.150
 3.62 2.00 -3.918 -3.917 -3.915 -3.912 -3.908  9.36192 14.23980 -9.43427   0.177
 3.62 2.25 -3.816 -3.815 -3.813 -3.810 -3.806  9.50984 14.48981 -9.18435   0.210
 3.62 2.50 -3.698 -3.697 -3.695 -3.692 -3.687  9.66445 14.73981 -8.93442   0.250
 3.62 2.75 -3.565 -3.564 -3.562 -3.558 -3.552  9.82819 14.98981 -8.68429   0.302
 3.62 3.00 -3.417 -3.415 -3.413 -3.409 -3.403 10.00130 15.23980 -8.43415   0.369
 3.62 3.20 -3.288 -3.286 -3.284 -3.279 -3.273 10.14842 15.43987 -8.23411   0.437
 3.62 3.40 -3.149 -3.148 -3.145 -3.140 -3.134 10.30108 15.63998 -8.03407   0.521
 3.62 3.60 -3.003 -3.002 -2.999 -2.994 -2.987 10.46076 15.84011 -7.83398   0.626
 3.62 3.80 -2.851 -2.849 -2.846 -2.841 -2.834 10.62380 16.04030 -7.63377   0.755
 3.62 4.00 -2.694 -2.693 -2.690 -2.685 -2.677 10.78746 16.24055 -7.43344   0.912
 3.62 4.20 -2.536 -2.535 -2.532 -2.527 -2.519 10.95150 16.44102 -7.23298   1.102
 3.62 4.40 -2.378 -2.377 -2.374 -2.369 -2.362 11.11554 16.64177 -7.03227   1.331
 3.62 4.60 -2.223 -2.221 -2.219 -2.214 -2.207 11.27776 16.84290 -6.83119   1.605
 3.62 4.80 -2.071 -2.070 -2.067 -2.063 -2.056 11.43579 17.04479 -6.62933   1.925
 3.62 5.00 -1.924 -1.923 -1.921 -1.917 -1.910 11.59062 17.24748 -6.42666   2.300
 3.62 5.20 -1.783 -1.783 -1.781 -1.777 -1.771 11.74066 17.45167 -6.22245   2.734
 3.62 5.40 -1.651 -1.650 -1.648 -1.645 -1.640 11.88747 17.65774 -6.01634   3.237
 3.62 5.60 -1.528 -1.527 -1.526 -1.523 -1.518 12.03082 17.86638 -5.80766   3.818
 3.62 5.80 -1.415 -1.415 -1.414 -1.411 -1.406 12.17190 18.07833 -5.59571   4.492
 3.62 6.00 -1.314 -1.314 -1.312 -1.310 -1.305 12.31133 18.29314 -5.38091   5.274
 3.62 6.25 -1.205 -1.204 -1.203 -1.200 -1.196 12.48416 18.56742 -5.10668   6.434
 3.62 6.50 -1.112 -1.111 -1.110 -1.107 -1.103 12.65571 18.84292 -4.83121   7.839
 3.62 6.75 -1.033 -1.032 -1.031 -1.028 -1.024 12.82639 19.11921 -4.55490   9.541
 3.62 7.00 -0.964 -0.963 -0.962 -0.959 -0.955 12.99616 19.39550 -4.27860  11.601
 3.62 7.25 -0.902 -0.902 -0.900 -0.897 -0.893 13.16515 19.66764 -4.00639  14.092
 3.62 7.50 -0.845 -0.844 -0.842 -0.839 -0.835 13.33325 19.93666 -3.73731  17.100
 3.62 7.75 -0.789 -0.789 -0.787 -0.784 -0.779 13.50039 20.20208 -3.47191  20.729
 3.62 8.00 -0.735 -0.735 -0.733 -0.730 -0.725 13.66661 20.46404 -3.21000  25.101
 3.64-2.00 -2.967 -2.966 -2.966 -2.964 -2.963  7.66219 10.21880-13.45544   0.024
 3.64-1.50 -3.178 -3.178 -3.177 -3.176 -3.174  7.91323 10.71917-12.95507   0.033
 3.64-1.00 -3.377 -3.376 -3.375 -3.374 -3.372  8.16435 11.21958-12.45457   0.044
 3.64-0.50 -3.557 -3.556 -3.556 -3.554 -3.552  8.41531 11.71966-11.95429   0.058
 3.64 0.00 -3.707 -3.707 -3.706 -3.705 -3.703  8.66699 12.21985-11.45432   0.078
 3.64 0.50 -3.808 -3.808 -3.807 -3.805 -3.803  8.91939 12.71983-10.95429   0.104
 3.64 1.00 -3.837 -3.836 -3.835 -3.833 -3.831  9.17348 13.21985-10.45420   0.139
 3.64 1.25 -3.818 -3.818 -3.817 -3.815 -3.812  9.30160 13.46984-10.20424   0.161
 3.64 1.50 -3.778 -3.777 -3.776 -3.774 -3.771  9.43072 13.71983 -9.95429   0.187
 3.64 1.75 -3.717 -3.716 -3.715 -3.712 -3.709  9.56115 13.96984 -9.70424   0.217
 3.64 2.00 -3.637 -3.637 -3.635 -3.633 -3.629  9.69329 14.21985 -9.45420   0.253
 3.64 2.25 -3.543 -3.542 -3.541 -3.538 -3.534  9.82778 14.46984 -9.20424   0.295
 3.64 2.50 -3.437 -3.436 -3.434 -3.431 -3.427  9.96525 14.71983 -8.95429   0.346
 3.64 2.75 -3.321 -3.319 -3.318 -3.314 -3.309 10.10682 14.96983 -8.70424   0.407
 3.64 3.00 -3.195 -3.194 -3.192 -3.188 -3.183 10.25334 15.21985 -8.45420   0.482
 3.64 3.20 -3.087 -3.086 -3.084 -3.080 -3.074 10.37530 15.41989 -8.25423   0.555
 3.64 3.40 -2.973 -2.972 -2.969 -2.965 -2.959 10.50201 15.61995 -8.05427   0.642
 3.64 3.60 -2.852 -2.851 -2.848 -2.844 -2.837 10.63424 15.82005 -7.85421   0.748
 3.64 3.80 -2.724 -2.723 -2.720 -2.715 -2.708 10.77245 16.02018 -7.65400   0.877
 3.64 4.00 -2.589 -2.587 -2.585 -2.579 -2.572 10.91603 16.22037 -7.45371   1.034
 3.64 4.20 -2.447 -2.445 -2.442 -2.437 -2.430 11.06629 16.42062 -7.25339   1.229
 3.64 4.40 -2.299 -2.297 -2.295 -2.289 -2.282 11.21945 16.62100 -7.05297   1.466
 3.64 4.60 -2.148 -2.146 -2.144 -2.138 -2.131 11.37583 16.82160 -6.85238   1.755
 3.64 4.80 -1.995 -1.993 -1.991 -1.986 -1.979 11.53328 17.02269 -6.65136   2.104
 3.64 5.00 -1.842 -1.841 -1.839 -1.834 -1.827 11.69073 17.22428 -6.44989   2.522
 3.64 5.20 -1.693 -1.692 -1.690 -1.685 -1.679 11.84606 17.42668 -6.24750   3.016
 3.64 5.40 -1.547 -1.546 -1.545 -1.541 -1.535 11.99952 17.63030 -6.04386   3.599
 3.64 5.60 -1.409 -1.409 -1.407 -1.404 -1.398 12.15031 17.83563 -5.83851   4.282
 3.64 5.80 -1.281 -1.280 -1.279 -1.276 -1.270 12.29786 18.04369 -5.63047   5.074
 3.64 6.00 -1.162 -1.161 -1.160 -1.157 -1.152 12.44279 18.25431 -5.41987   5.995
 3.64 6.25 -1.031 -1.031 -1.029 -1.026 -1.021 12.62036 18.52308 -5.15103   7.355
 3.64 6.50 -0.919 -0.918 -0.917 -0.914 -0.909 12.79470 18.79560 -4.87844   8.991
 3.64 6.75 -0.826 -0.825 -0.824 -0.820 -0.816 12.96641 19.07234 -4.60170  10.957
 3.64 7.00 -0.748 -0.747 -0.745 -0.742 -0.737 13.13545 19.34908 -4.32495  13.311
 3.64 7.25 -0.682 -0.681 -0.680 -0.677 -0.672 13.30189 19.62408 -4.05001  16.121
 3.64 7.50 -0.625 -0.624 -0.623 -0.619 -0.614 13.46598 19.89713 -3.77702  19.472
 3.64 7.75 -0.574 -0.573 -0.571 -0.568 -0.563 13.62796 20.16604 -3.50813  23.464
 3.64 8.00 -0.526 -0.525 -0.523 -0.520 -0.514 13.78774 20.43152 -3.24260  28.204
 3.66-2.00 -2.619 -2.619 -2.618 -2.617 -2.614  8.01870 10.19701-13.47703   0.036
 3.66-1.50 -2.841 -2.841 -2.840 -2.838 -2.836  8.27021 10.69819-12.97593   0.048
 3.66-1.00 -3.051 -3.051 -3.050 -3.048 -3.046  8.52140 11.19893-12.47509   0.064
 3.66-0.50 -3.244 -3.244 -3.243 -3.241 -3.239  8.77225 11.69932-11.97469   0.086
 3.66 0.00 -3.408 -3.407 -3.406 -3.404 -3.402  9.02325 12.19948-11.47457   0.114
 3.66 0.50 -3.518 -3.517 -3.516 -3.514 -3.512  9.27439 12.69967-10.97429   0.153
 3.66 1.00 -3.549 -3.549 -3.548 -3.545 -3.542  9.52634 13.19976-10.47431   0.204
 3.66 1.25 -3.531 -3.530 -3.529 -3.526 -3.523  9.65271 13.44975-10.22430   0.236
 3.66 1.50 -3.490 -3.489 -3.488 -3.485 -3.481  9.77945 13.69975 -9.97428   0.273
 3.66 1.75 -3.428 -3.428 -3.426 -3.423 -3.419  9.90669 13.94975 -9.72430   0.316
 3.66 2.00 -3.350 -3.349 -3.348 -3.345 -3.340 10.03463 14.19976 -9.47431   0.366
 3.66 2.25 -3.259 -3.257 -3.256 -3.253 -3.248 10.16367 14.44980 -9.22431   0.425
 3.66 2.50 -3.157 -3.156 -3.154 -3.150 -3.145 10.29403 14.69984 -8.97429   0.494
 3.66 2.75 -3.047 -3.046 -3.044 -3.040 -3.034 10.42611 14.94980 -8.72423   0.575
 3.66 3.00 -2.931 -2.929 -2.927 -2.923 -2.917 10.56038 15.19976 -8.47418   0.671
 3.66 3.20 -2.833 -2.832 -2.829 -2.825 -2.819 10.66991 15.39982 -8.27422   0.761
 3.66 3.40 -2.732 -2.730 -2.728 -2.723 -2.716 10.78178 15.59989 -8.07426   0.866
 3.66 3.60 -2.627 -2.625 -2.622 -2.617 -2.610 10.89628 15.79995 -7.87422   0.988
 3.66 3.80 -2.517 -2.515 -2.512 -2.507 -2.499 11.01437 15.99999 -7.67408   1.132
 3.66 4.00 -2.402 -2.400 -2.398 -2.392 -2.384 11.13609 16.20003 -7.47392   1.302
 3.66 4.20 -2.282 -2.280 -2.277 -2.271 -2.263 11.26271 16.40019 -7.27376   1.506
 3.66 4.40 -2.156 -2.154 -2.151 -2.146 -2.137 11.39389 16.60045 -7.07357   1.751
 3.66 4.60 -2.024 -2.023 -2.020 -2.014 -2.006 11.53033 16.80081 -6.87326   2.049
 3.66 4.80 -1.887 -1.885 -1.883 -1.877 -1.869 11.67129 17.00139 -6.67264   2.410
 3.66 5.00 -1.745 -1.744 -1.742 -1.737 -1.729 11.81584 17.20222 -6.47173   2.847
 3.66 5.20 -1.601 -1.600 -1.598 -1.593 -1.586 11.96480 17.40366 -6.27037   3.380
 3.66 5.40 -1.456 -1.455 -1.453 -1.449 -1.443 12.11398 17.60590 -6.06829   4.013
 3.66 5.60 -1.314 -1.313 -1.311 -1.307 -1.301 12.26335 17.80915 -5.86512   4.766
 3.66 5.80 -1.176 -1.175 -1.173 -1.170 -1.164 12.41276 18.01422 -5.65995   5.660
 3.66 6.00 -1.044 -1.044 -1.042 -1.039 -1.033 12.56217 18.22116 -5.45284   6.722
 3.66 6.25 -0.895 -0.894 -0.892 -0.889 -0.883 12.74487 18.48460 -5.18941   8.296
 3.66 6.50 -0.762 -0.761 -0.759 -0.756 -0.750 12.92443 18.75251 -4.92154  10.201
 3.66 6.75 -0.649 -0.648 -0.647 -0.643 -0.638 13.10040 19.02666 -4.64737  12.491
 3.66 7.00 -0.555 -0.554 -0.553 -0.549 -0.544 13.27254 19.30211 -4.37192  15.228
 3.66 7.25 -0.479 -0.478 -0.476 -0.473 -0.467 13.44032 19.57845 -4.09561  18.473
 3.66 7.50 -0.416 -0.415 -0.413 -0.409 -0.404 13.60401 19.85479 -3.81930  22.305
 3.66 7.75 -0.364 -0.363 -0.361 -0.357 -0.351 13.76373 20.12691 -3.54718  26.809
 3.66 8.00 -0.318 -0.317 -0.315 -0.311 -0.305 13.91945 20.39620 -3.27786  32.073
 3.68-2.00 -2.277 -2.276 -2.275 -2.273 -2.271  8.35622 10.17348-13.50073   0.052
 3.68-1.50 -2.506 -2.505 -2.504 -2.502 -2.499  8.60938 10.67614-12.99783   0.069
 3.68-1.00 -2.725 -2.725 -2.724 -2.722 -2.719  8.86130 11.17783-12.49621   0.093
 3.68-0.50 -2.930 -2.929 -2.928 -2.926 -2.923  9.11261 11.67870-11.99525   0.124
 3.68 0.00 -3.105 -3.105 -3.103 -3.101 -3.098  9.36342 12.17927-11.49485   0.165
 3.68 0.50 -3.228 -3.227 -3.226 -3.223 -3.220  9.61437 12.67952-10.99439   0.221
 3.68 1.00 -3.266 -3.265 -3.264 -3.261 -3.257  9.86534 13.17955-10.49444   0.295
 3.68 1.25 -3.249 -3.248 -3.246 -3.244 -3.239  9.99106 13.42967-10.24442   0.340
 3.68 1.50 -3.208 -3.207 -3.206 -3.203 -3.198 10.11694 13.67979 -9.99439   0.393
 3.68 1.75 -3.147 -3.146 -3.145 -3.141 -3.136 10.24295 13.92983 -9.74435   0.455
 3.68 2.00 -3.070 -3.069 -3.067 -3.063 -3.058 10.36922 14.17984 -9.49431   0.526
 3.68 2.25 -2.979 -2.978 -2.976 -2.972 -2.966 10.49599 14.42982 -9.24435   0.609
 3.68 2.50 -2.879 -2.878 -2.875 -2.871 -2.865 10.62335 14.67979 -8.99439   0.705
 3.68 2.75 -2.772 -2.771 -2.768 -2.763 -2.757 10.75148 14.92982 -8.74428   0.817
 3.68 3.00 -2.660 -2.658 -2.655 -2.650 -2.643 10.88058 15.17984 -8.49417   0.948
 3.68 3.20 -2.566 -2.565 -2.562 -2.557 -2.549 10.98476 15.37986 -8.29426   1.069
 3.68 3.40 -2.470 -2.469 -2.466 -2.460 -2.452 11.09000 15.57987 -8.09435   1.206
 3.68 3.60 -2.372 -2.370 -2.367 -2.361 -2.353 11.19644 15.77993 -7.89432   1.363
 3.68 3.80 -2.271 -2.269 -2.266 -2.260 -2.251 11.30464 15.98003 -7.69418   1.544
 3.68 4.00 -2.167 -2.165 -2.162 -2.155 -2.147 11.41464 16.18013 -7.49404   1.753
 3.68 4.20 -2.059 -2.057 -2.054 -2.048 -2.039 11.52705 16.38021 -7.29401   1.995
 3.68 4.40 -1.948 -1.946 -1.943 -1.937 -1.928 11.64219 16.58029 -7.09398   2.278
 3.68 4.60 -1.833 -1.831 -1.828 -1.822 -1.813 11.76037 16.78044 -6.89385   2.610
 3.68 4.80 -1.714 -1.712 -1.709 -1.703 -1.694 11.88224 16.98077 -6.69344   3.004
 3.68 5.00 -1.590 -1.589 -1.586 -1.580 -1.572 12.00775 17.18127 -6.49282   3.471
 3.68 5.20 -1.463 -1.461 -1.459 -1.453 -1.445 12.13788 17.38212 -6.29192   4.032
 3.68 5.40 -1.331 -1.330 -1.328 -1.323 -1.316 12.27152 17.58345 -6.09056   4.702
 3.68 5.60 -1.198 -1.197 -1.195 -1.191 -1.184 12.40910 17.78543 -5.88860   5.508
 3.68 5.80 -1.065 -1.064 -1.063 -1.059 -1.052 12.54926 17.98863 -5.68547   6.472
 3.68 6.00 -0.934 -0.933 -0.931 -0.927 -0.921 12.69108 18.19312 -5.48109   7.620
 3.68 6.25 -0.777 -0.776 -0.775 -0.771 -0.765 12.87034 18.45216 -5.22206   9.367
 3.68 6.50 -0.631 -0.630 -0.629 -0.625 -0.619 13.04961 18.71517 -4.95900  11.515
 3.68 6.75 -0.502 -0.501 -0.499 -0.495 -0.489 13.22719 18.98436 -4.68979  14.127
 3.68 7.00 -0.390 -0.389 -0.387 -0.384 -0.377 13.40278 19.25720 -4.41691  17.291
 3.68 7.25 -0.299 -0.298 -0.296 -0.292 -0.286 13.57366 19.53399 -4.14010  21.051
 3.68 7.50 -0.225 -0.224 -0.222 -0.218 -0.211 13.73997 19.81077 -3.86328  25.493
 3.68 7.75 -0.166 -0.165 -0.163 -0.159 -0.152 13.90054 20.08537 -3.58870  30.668
 3.68 8.00 -0.118 -0.117 -0.115 -0.110 -0.103 14.05576 20.35851 -3.31560  36.665
 3.70-2.00 -1.941 -1.941 -1.940 -1.938 -1.935  8.67541 10.14551-13.52871   0.073
 3.70-1.50 -2.175 -2.174 -2.173 -2.171 -2.168  8.93222 10.65167-13.02246   0.098
 3.70-1.00 -2.401 -2.400 -2.399 -2.397 -2.393  9.18611 11.15534-12.51884   0.132
 3.70-0.50 -2.614 -2.613 -2.612 -2.609 -2.605  9.43839 11.65725-12.01687   0.176
 3.70 0.00 -2.800 -2.800 -2.798 -2.796 -2.792  9.68984 12.15836-11.51570   0.235
 3.70 0.50 -2.936 -2.935 -2.933 -2.931 -2.926  9.94081 12.65897-11.01511   0.314
 3.70 1.00 -2.986 -2.985 -2.983 -2.980 -2.975 10.19173 13.15927-10.51470   0.419
 3.70 1.25 -2.972 -2.971 -2.969 -2.966 -2.961 10.31718 13.40940-10.26460   0.484
 3.70 1.50 -2.934 -2.933 -2.931 -2.927 -2.922 10.44264 13.65954-10.01453   0.559
 3.70 1.75 -2.875 -2.874 -2.871 -2.867 -2.861 10.56818 13.90970 -9.76447   0.646
 3.70 2.00 -2.799 -2.797 -2.795 -2.790 -2.784 10.69382 14.15987 -9.51442   0.747
 3.70 2.25 -2.709 -2.708 -2.705 -2.700 -2.694 10.81966 14.40980 -9.26439   0.863
 3.70 2.50 -2.610 -2.609 -2.606 -2.601 -2.594 10.94576 14.65973 -9.01435   0.998
 3.70 2.75 -2.505 -2.503 -2.500 -2.495 -2.487 11.07226 14.90980 -8.76431   1.154
 3.70 3.00 -2.394 -2.392 -2.389 -2.384 -2.375 11.19921 15.15987 -8.51428   1.336
 3.70 3.20 -2.303 -2.301 -2.298 -2.292 -2.283 11.30112 15.35985 -8.31427   1.503
 3.70 3.40 -2.209 -2.207 -2.204 -2.198 -2.189 11.40349 15.55983 -8.11426   1.691
 3.70 3.60 -2.114 -2.112 -2.109 -2.102 -2.093 11.50639 15.75982 -7.91424   1.904
 3.70 3.80 -2.017 -2.015 -2.011 -2.004 -1.995 11.61011 15.95983 -7.71419   2.145
 3.70 4.00 -1.918 -1.916 -1.912 -1.905 -1.895 11.71467 16.15987 -7.51414   2.420
 3.70 4.20 -1.816 -1.814 -1.810 -1.804 -1.794 11.82037 16.35993 -7.31409   2.733
 3.70 4.40 -1.713 -1.711 -1.707 -1.700 -1.690 11.92745 16.56004 -7.11402   3.092
 3.70 4.60 -1.607 -1.605 -1.601 -1.594 -1.584 12.03603 16.76019 -6.91393   3.503
 3.70 4.80 -1.498 -1.496 -1.493 -1.486 -1.476 12.14666 16.96043 -6.71373   3.979
 3.70 5.00 -1.386 -1.385 -1.382 -1.375 -1.366 12.25936 17.16077 -6.51343   4.530
 3.70 5.20 -1.271 -1.270 -1.267 -1.261 -1.252 12.37475 17.36126 -6.31293   5.173
 3.70 5.40 -1.154 -1.153 -1.150 -1.145 -1.136 12.49291 17.56200 -6.11213   5.927
 3.70 5.60 -1.034 -1.033 -1.031 -1.026 -1.018 12.61411 17.76313 -5.91094   6.815
 3.70 5.80 -0.914 -0.913 -0.911 -0.906 -0.899 12.73849 17.96509 -5.70896   7.864
 3.70 6.00 -0.792 -0.791 -0.789 -0.785 -0.778 12.86581 18.16791 -5.50612   9.106
 3.70 6.25 -0.644 -0.643 -0.641 -0.637 -0.630 13.02951 18.42380 -5.25030  10.994
 3.70 6.50 -0.500 -0.499 -0.497 -0.493 -0.486 13.19645 18.68278 -4.99140  13.323
 3.70 6.75 -0.365 -0.364 -0.362 -0.358 -0.351 13.36688 18.94698 -4.72707  16.212
 3.70 7.00 -0.243 -0.242 -0.240 -0.236 -0.229 13.53732 19.21564 -4.45830  19.728
 3.70 7.25 -0.139 -0.138 -0.136 -0.132 -0.125 13.70677 19.49052 -4.18357  23.978
 3.70 7.50 -0.052 -0.051 -0.049 -0.045 -0.038 13.87477 19.76619 -3.90798  29.093
 3.70 7.75  0.015  0.016  0.018  0.023  0.030 14.03634 20.04212 -3.63211  35.042
 3.70 8.00  0.069  0.070  0.072  0.077  0.085 14.19312 20.31848 -3.35576  41.979
 3.73-2.00 -1.458 -1.458 -1.457 -1.455 -1.451  9.10585 10.08672-13.58737   0.116
 3.73-1.50 -1.692 -1.692 -1.691 -1.688 -1.684  9.37694 10.60487-13.06920   0.158
 3.73-1.00 -1.922 -1.921 -1.920 -1.917 -1.913  9.63889 11.11561-12.55846   0.214
 3.73-0.50 -2.141 -2.140 -2.139 -2.136 -2.132  9.89553 11.62180-12.05232   0.288
 3.73 0.00 -2.338 -2.337 -2.336 -2.333 -2.328 10.14953 12.12548-11.54883   0.386
 3.73 0.50 -2.490 -2.489 -2.488 -2.484 -2.479 10.40157 12.62726-11.04682   0.516
 3.73 1.00 -2.561 -2.560 -2.558 -2.554 -2.548 10.65302 13.12840-10.54561   0.689
 3.73 1.25 -2.557 -2.556 -2.554 -2.549 -2.543 10.77852 13.37874-10.29528   0.796
 3.73 1.50 -2.527 -2.525 -2.523 -2.519 -2.512 10.90396 13.62900-10.04504   0.919
 3.73 1.75 -2.473 -2.472 -2.469 -2.465 -2.458 11.02934 13.87921 -9.79485   1.062
 3.73 2.00 -2.402 -2.400 -2.397 -2.392 -2.385 11.15473 14.12937 -9.54470   1.227
 3.73 2.25 -2.316 -2.314 -2.311 -2.306 -2.298 11.28018 14.37951 -9.29459   1.418
 3.73 2.50 -2.220 -2.218 -2.215 -2.210 -2.201 11.40569 14.62961 -9.04450   1.638
 3.73 2.75 -2.117 -2.115 -2.112 -2.106 -2.097 11.53123 14.87965 -8.79444   1.893
 3.73 3.00 -2.009 -2.007 -2.004 -1.998 -1.988 11.65687 15.12969 -8.54439   2.187
 3.73 3.20 -1.920 -1.918 -1.915 -1.908 -1.899 11.75754 15.32973 -8.34436   2.456
 3.73 3.40 -1.830 -1.828 -1.824 -1.817 -1.807 11.85838 15.52979 -8.14433   2.758
 3.73 3.60 -1.737 -1.735 -1.731 -1.724 -1.714 11.95940 15.72986 -7.94430   3.098
 3.73 3.80 -1.643 -1.641 -1.637 -1.630 -1.619 12.06070 15.92993 -7.74427   3.481
 3.73 4.00 -1.548 -1.546 -1.542 -1.535 -1.524 12.16227 16.13001 -7.54424   3.913
 3.73 4.20 -1.451 -1.449 -1.445 -1.438 -1.427 12.26415 16.32998 -7.34420   4.400
 3.73 4.40 -1.353 -1.351 -1.347 -1.340 -1.329 12.36648 16.52994 -7.14415   4.950
 3.73 4.60 -1.253 -1.251 -1.248 -1.240 -1.229 12.46931 16.72997 -6.94408   5.573
 3.73 4.80 -1.152 -1.150 -1.146 -1.139 -1.129 12.57290 16.93012 -6.74396   6.279
 3.73 5.00 -1.049 -1.047 -1.044 -1.037 -1.027 12.67724 17.13033 -6.54379   7.081
 3.73 5.20 -0.944 -0.942 -0.939 -0.933 -0.923 12.78257 17.33058 -6.34355   7.994
 3.73 5.40 -0.838 -0.836 -0.833 -0.828 -0.818 12.88901 17.53093 -6.14319   9.036
 3.73 5.60 -0.730 -0.729 -0.726 -0.721 -0.712 12.99666 17.73146 -5.94263  10.228
 3.73 5.80 -0.621 -0.620 -0.618 -0.613 -0.605 13.10579 17.93244 -5.74162  11.597
 3.73 6.00 -0.512 -0.511 -0.509 -0.505 -0.497 13.21643 18.13386 -5.54016  13.173
 3.73 6.25 -0.379 -0.378 -0.376 -0.372 -0.364 13.35729 18.38690 -5.28715  15.492
 3.73 6.50 -0.248 -0.247 -0.245 -0.240 -0.233 13.50092 18.64177 -5.03236  18.277
 3.73 6.75 -0.121 -0.120 -0.118 -0.114 -0.106 13.64755 18.90010 -4.77404  21.639
 3.73 7.00 -0.002 -0.001  0.000  0.005  0.012 13.79685 19.16227 -4.51187  25.697
 3.73 7.25  0.104  0.105  0.107  0.112  0.119 13.94981 19.43034 -4.24383  30.641
 3.73 7.50  0.197  0.198  0.200  0.205  0.213 14.10278 19.70234 -3.97184  36.539
 3.73 7.75  0.274  0.275  0.277  0.282  0.290 14.25569 19.97729 -3.69683  43.573
 3.73 8.00  0.336  0.337  0.339  0.344  0.352 14.40858 20.25551 -3.41851  51.962
 3.76-2.00 -1.019 -1.018 -1.017 -1.015 -1.011  9.44963  9.98994-13.68424   0.166
 3.76-1.50 -1.237 -1.236 -1.235 -1.233 -1.229  9.75899 10.53224-13.14188   0.238
 3.76-1.00 -1.459 -1.458 -1.457 -1.454 -1.450 10.04297 11.05994-12.61404   0.330
 3.76-0.50 -1.675 -1.674 -1.672 -1.670 -1.665 10.31239 11.57692-12.09724   0.449
 3.76 0.00 -1.872 -1.872 -1.870 -1.867 -1.862 10.57334 12.08672-11.58737   0.607
 3.76 0.50 -2.032 -2.031 -2.030 -2.026 -2.021 10.82956 12.59240-11.08165   0.815
 3.76 1.00 -2.120 -2.119 -2.117 -2.113 -2.107 11.08314 13.09587-10.57840   1.091
 3.76 1.25 -2.128 -2.127 -2.124 -2.120 -2.114 11.20934 13.34676-10.32739   1.262
 3.76 1.50 -2.109 -2.108 -2.105 -2.101 -2.094 11.33526 13.59748-10.07660   1.459
 3.76 1.75 -2.066 -2.065 -2.062 -2.058 -2.050 11.46092 13.84813 -9.82594   1.686
 3.76 2.00 -2.003 -2.002 -1.999 -1.994 -1.987 11.58648 14.09864 -9.57545   1.948
 3.76 2.25 -1.925 -1.923 -1.920 -1.915 -1.907 11.71197 14.34893 -9.32516   2.251
 3.76 2.50 -1.835 -1.834 -1.831 -1.825 -1.817 11.83740 14.59912 -9.07495   2.601
 3.76 2.75 -1.738 -1.736 -1.733 -1.727 -1.718 11.96277 14.84923 -8.82477   3.005
 3.76 3.00 -1.635 -1.633 -1.630 -1.624 -1.614 12.08814 15.09934 -8.57463   3.472
 3.76 3.20 -1.549 -1.548 -1.544 -1.538 -1.528 12.18847 15.29947 -8.37454   3.897
 3.76 3.40 -1.462 -1.460 -1.457 -1.450 -1.440 12.28885 15.49960 -8.17446   4.374
 3.76 3.60 -1.373 -1.372 -1.368 -1.361 -1.351 12.38930 15.69967 -7.97440   4.910
 3.76 3.80 -1.283 -1.281 -1.278 -1.270 -1.260 12.48985 15.89968 -7.77435   5.513
 3.76 4.00 -1.192 -1.190 -1.186 -1.179 -1.168 12.59051 16.09968 -7.57430   6.190
 3.76 4.20 -1.099 -1.097 -1.093 -1.086 -1.074 12.69124 16.29976 -7.37427   6.951
 3.76 4.40 -1.005 -1.003 -0.999 -0.992 -0.980 12.79212 16.49984 -7.17424   7.807
 3.76 4.60 -0.909 -0.907 -0.904 -0.896 -0.885 12.89319 16.69991 -6.97419   8.770
 3.76 4.80 -0.812 -0.810 -0.807 -0.800 -0.788 12.99457 16.89997 -6.77409   9.856
 3.76 5.00 -0.714 -0.712 -0.709 -0.702 -0.691 13.09621 17.10003 -6.57398  11.079
 3.76 5.20 -0.614 -0.613 -0.609 -0.603 -0.592 13.19815 17.30014 -6.37386  12.459
 3.76 5.40 -0.513 -0.512 -0.509 -0.502 -0.492 13.30048 17.50032 -6.17370  14.017
 3.76 5.60 -0.411 -0.409 -0.407 -0.401 -0.392 13.40328 17.70058 -5.97344  15.778
 3.76 5.80 -0.308 -0.307 -0.304 -0.299 -0.290 13.50668 17.90105 -5.77294  17.773
 3.76 6.00 -0.204 -0.203 -0.201 -0.197 -0.189 13.61066 18.10175 -5.57219  20.033
 3.76 6.25 -0.078 -0.077 -0.075 -0.071 -0.063 13.74157 18.35333 -5.32065  23.292
 3.76 6.50  0.046  0.046  0.048  0.053  0.060 13.87350 18.60595 -5.06814  27.113
 3.76 6.75  0.167  0.168  0.170  0.174  0.182 14.00662 18.86051 -4.81357  31.602
 3.76 7.00  0.284  0.284  0.286  0.291  0.298 14.14051 19.11760 -4.55642  36.867
 3.76 7.25  0.391  0.391  0.393  0.398  0.406 14.27515 19.37928 -4.29481  43.052
 3.76 7.50  0.485  0.486  0.488  0.493  0.501 14.40993 19.64532 -4.02882  50.281
 3.76 7.75  0.563  0.564  0.566  0.571  0.579 14.54477 19.91640 -3.75772  58.726
 3.76 8.00  0.625  0.626  0.628  0.633  0.642 14.67970 20.19229 -3.48175  68.595
 3.79-2.00 -0.694 -0.694 -0.693 -0.690 -0.686  9.64856  9.86303-13.81107   0.202
 3.79-1.50 -0.845 -0.844 -0.843 -0.840 -0.836 10.03623 10.41963-13.25453   0.316
 3.79-1.00 -1.031 -1.030 -1.029 -1.026 -1.022 10.37346 10.97234-12.70180   0.466
 3.79-0.50 -1.227 -1.226 -1.225 -1.222 -1.218 10.67505 11.51068-12.16342   0.659
 3.79 0.00 -1.412 -1.411 -1.410 -1.407 -1.403 10.95458 12.03543-11.63884   0.909
 3.79 0.50 -1.566 -1.565 -1.564 -1.561 -1.556 11.22115 12.54998-11.12419   1.236
 3.79 1.00 -1.662 -1.661 -1.659 -1.656 -1.650 11.48073 13.05843-10.61547   1.666
 3.79 1.25 -1.678 -1.677 -1.675 -1.672 -1.666 11.60877 13.31129-10.36272   1.931
 3.79 1.50 -1.671 -1.670 -1.668 -1.664 -1.658 11.73608 13.56348-10.11064   2.236
 3.79 1.75 -1.641 -1.640 -1.638 -1.634 -1.627 11.86283 13.81511 -9.85904   2.587
 3.79 2.00 -1.591 -1.590 -1.588 -1.583 -1.577 11.98918 14.06633 -9.60783   2.992
 3.79 2.25 -1.524 -1.523 -1.521 -1.516 -1.509 12.11523 14.31721 -9.35696   3.459
 3.79 2.50 -1.445 -1.444 -1.441 -1.437 -1.429 12.24105 14.56785 -9.10629   3.999
 3.79 2.75 -1.357 -1.355 -1.353 -1.348 -1.340 12.36667 14.81823 -8.85577   4.621
 3.79 3.00 -1.262 -1.260 -1.258 -1.252 -1.244 12.49220 15.06856 -8.60537   5.340
 3.79 3.20 -1.182 -1.181 -1.178 -1.172 -1.164 12.59257 15.26880 -8.40518   5.994
 3.79 3.40 -1.101 -1.099 -1.096 -1.090 -1.081 12.69294 15.46903 -8.20499   6.728
 3.79 3.60 -1.017 -1.016 -1.012 -1.006 -0.997 12.79330 15.66925 -8.00482   7.552
 3.79 3.80 -0.932 -0.931 -0.927 -0.921 -0.911 12.89365 15.86947 -7.80465   8.477
 3.79 4.00 -0.846 -0.844 -0.841 -0.834 -0.824 12.99401 16.06967 -7.60450   9.516
 3.79 4.20 -0.758 -0.756 -0.753 -0.746 -0.735 13.09439 16.26964 -7.40447  10.682
 3.79 4.40 -0.669 -0.667 -0.663 -0.656 -0.645 13.19480 16.46962 -7.20443  11.991
 3.79 4.60 -0.578 -0.576 -0.573 -0.565 -0.554 13.29529 16.66969 -7.00436  13.462
 3.79 4.80 -0.486 -0.484 -0.480 -0.473 -0.462 13.39592 16.86987 -6.80426  15.115
 3.79 5.00 -0.392 -0.390 -0.387 -0.380 -0.369 13.49665 17.07004 -6.60415  16.974
 3.79 5.20 -0.296 -0.295 -0.292 -0.285 -0.274 13.59751 17.27005 -6.40410  19.064
 3.79 5.40 -0.199 -0.198 -0.195 -0.189 -0.179 13.69854 17.47007 -6.20405  21.414
 3.79 5.60 -0.101 -0.100 -0.097 -0.092 -0.082 13.79979 17.67014 -6.00395  24.060
 3.79 5.80 -0.002 -0.001  0.001  0.006  0.015 13.90131 17.87039 -5.80368  27.041
 3.79 6.00  0.097  0.098  0.100  0.105  0.113 14.00303 18.07078 -5.60328  30.398
 3.79 6.25  0.219  0.220  0.222  0.227  0.235 14.13045 18.32161 -5.35248  35.202
 3.79 6.50  0.342  0.342  0.344  0.349  0.356 14.25816 18.57299 -5.10117  40.780
 3.79 6.75  0.462  0.462  0.464  0.468  0.476 14.38629 18.82536 -4.84875  47.264
 3.79 7.00  0.579  0.579  0.581  0.586  0.593 14.51442 19.07918 -4.59483  54.778
 3.79 7.25  0.690  0.690  0.692  0.696  0.704 14.64221 19.33600 -4.33804  63.462
 3.79 7.50  0.792  0.792  0.794  0.798  0.806 14.76952 19.59627 -4.07785  73.480
 3.79 7.75  0.879  0.880  0.882  0.886  0.893 14.89485 19.86190 -3.81227  84.885
 3.79 8.00  0.949  0.950  0.952  0.956  0.964 15.01870 20.13226 -3.54197  97.892
 3.82-2.00 -0.561 -0.560 -0.559 -0.556 -0.551  9.69810  9.77612-13.89791   0.207
 3.82-1.50 -0.605 -0.604 -0.603 -0.600 -0.595 10.16227 10.30406-13.37008   0.353
 3.82-1.00 -0.696 -0.695 -0.694 -0.691 -0.686 10.58365 10.85297-12.82102   0.573
 3.82-0.50 -0.829 -0.828 -0.827 -0.824 -0.819 10.95168 11.41027-12.26392   0.875
 3.82 0.00 -0.976 -0.975 -0.974 -0.971 -0.967 11.27416 11.95818-11.71602   1.269
 3.82 0.50 -1.106 -1.105 -1.104 -1.102 -1.097 11.56632 12.49108-11.18303   1.776
 3.82 1.00 -1.193 -1.192 -1.191 -1.188 -1.184 11.84023 13.01157-10.66254   2.435
 3.82 1.25 -1.213 -1.212 -1.210 -1.207 -1.203 11.97295 13.26838-10.40571   2.837
 3.82 1.50 -1.214 -1.213 -1.211 -1.208 -1.203 12.10380 13.52362-10.15046   3.299
 3.82 1.75 -1.196 -1.195 -1.193 -1.189 -1.184 12.23320 13.77757 -9.89645   3.829
 3.82 2.00 -1.159 -1.158 -1.156 -1.153 -1.147 12.36154 14.03060 -9.64340   4.438
 3.82 2.25 -1.107 -1.106 -1.104 -1.100 -1.094 12.48903 14.28290 -9.39118   5.139
 3.82 2.50 -1.042 -1.041 -1.039 -1.035 -1.028 12.61595 14.53466 -9.13948   5.948
 3.82 2.75 -0.966 -0.965 -0.963 -0.959 -0.952 12.74243 14.78602 -8.88815   6.880
 3.82 3.00 -0.883 -0.882 -0.879 -0.875 -0.868 12.86859 15.03703 -8.63714   7.956
 3.82 3.20 -0.812 -0.811 -0.808 -0.803 -0.796 12.96933 15.23756 -8.43657   8.935
 3.82 3.40 -0.738 -0.737 -0.734 -0.729 -0.722 13.06996 15.43801 -8.23610  10.032
 3.82 3.60 -0.662 -0.660 -0.658 -0.653 -0.644 13.17051 15.63839 -8.03570  11.263
 3.82 3.80 -0.584 -0.582 -0.579 -0.574 -0.565 13.27100 15.83874 -7.83535  12.644
 3.82 4.00 -0.504 -0.502 -0.499 -0.494 -0.485 13.37144 16.03902 -7.63507  14.194
 3.82 4.20 -0.422 -0.421 -0.418 -0.412 -0.402 13.47183 16.23914 -7.43495  15.933
 3.82 4.40 -0.339 -0.338 -0.334 -0.328 -0.319 13.57223 16.43927 -7.23483  17.886
 3.82 4.60 -0.254 -0.253 -0.250 -0.243 -0.233 13.67263 16.63943 -7.03472  20.078
 3.82 4.80 -0.168 -0.166 -0.163 -0.157 -0.147 13.77305 16.83962 -6.83462  22.539
 3.82 5.00 -0.080 -0.078 -0.075 -0.069 -0.059 13.87350 17.03981 -6.63451  25.303
 3.82 5.20  0.009  0.011  0.014  0.020  0.030 13.97398 17.23982 -6.43441  28.408
 3.82 5.40  0.101  0.103  0.105  0.111  0.121 14.07453 17.43983 -6.23430  31.896
 3.82 5.60  0.195  0.196  0.198  0.204  0.213 14.17520 17.63987 -6.03417  35.815
 3.82 5.80  0.290  0.291  0.293  0.298  0.307 14.27602 17.84000 -5.83399  40.222
 3.82 6.00  0.386  0.387  0.389  0.394  0.401 14.37694 18.04021 -5.63376  45.176
 3.82 6.25  0.505  0.506  0.508  0.512  0.520 14.50321 18.29063 -5.38337  52.245
 3.82 6.50  0.625  0.626  0.627  0.631  0.639 14.62961 18.54133 -5.13277  60.429
 3.82 6.75  0.744  0.744  0.746  0.750  0.757 14.75618 18.79254 -4.88155  69.906
 3.82 7.00  0.861  0.862  0.864  0.868  0.875 14.88275 19.04454 -4.62949  80.869
 3.82 7.25  0.976  0.977  0.978  0.982  0.989 15.00891 19.29824 -4.37582  93.506
 3.82 7.50  1.085  1.086  1.088  1.091  1.098 15.13450 19.55413 -4.11999 108.044
 3.82 7.75  1.184  1.185  1.187  1.190  1.197 15.25790 19.81418 -3.85994 124.547
 3.82 8.00  1.270  1.271  1.272  1.276  1.282 15.37967 20.07773 -3.59636 143.311
 3.85-2.00 -0.533 -0.533 -0.531 -0.528 -0.522  9.68458  9.73199-13.94195   0.197
 3.85-1.50 -0.531 -0.530 -0.529 -0.525 -0.519 10.17696 10.23855-13.43545   0.347
 3.85-1.00 -0.535 -0.534 -0.532 -0.528 -0.522 10.65533 10.75656-12.91757   0.601
 3.85-0.50 -0.558 -0.557 -0.556 -0.553 -0.547 11.10209 11.29469-12.37945   1.006
 3.85 0.00 -0.614 -0.613 -0.612 -0.609 -0.605 11.49859 11.84997-11.82420   1.588
 3.85 0.50 -0.684 -0.683 -0.682 -0.680 -0.676 11.84354 12.40449-11.26970   2.362
 3.85 1.00 -0.737 -0.737 -0.735 -0.733 -0.729 12.15014 12.94537-10.72862   3.361
 3.85 1.25 -0.749 -0.749 -0.748 -0.745 -0.741 12.29352 13.21013-10.46388   3.965
 3.85 1.50 -0.749 -0.749 -0.747 -0.745 -0.740 12.43249 13.47188-10.20218   4.653
 3.85 1.75 -0.736 -0.735 -0.734 -0.731 -0.727 12.56800 13.73101 -9.94315   5.438
 3.85 2.00 -0.709 -0.708 -0.707 -0.704 -0.699 12.70096 13.98807 -9.68613   6.337
 3.85 2.25 -0.670 -0.669 -0.668 -0.664 -0.660 12.83190 14.24330 -9.43077   7.368
 3.85 2.50 -0.619 -0.618 -0.617 -0.613 -0.608 12.96142 14.49734 -9.17666   8.553
 3.85 2.75 -0.558 -0.558 -0.556 -0.553 -0.547 13.08986 14.75059 -8.92356   9.916
 3.85 3.00 -0.490 -0.489 -0.487 -0.483 -0.478 13.21748 15.00303 -8.67121  11.486
 3.85 3.20 -0.430 -0.429 -0.427 -0.423 -0.417 13.31910 15.20431 -8.46982  12.911
 3.85 3.40 -0.366 -0.365 -0.363 -0.359 -0.353 13.42043 15.40538 -8.26867  14.509
 3.85 3.60 -0.299 -0.298 -0.296 -0.292 -0.285 13.52151 15.60629 -8.06774  16.300
 3.85 3.80 -0.230 -0.229 -0.227 -0.222 -0.215 13.62243 15.80709 -7.86696  18.309
 3.85 4.00 -0.159 -0.158 -0.155 -0.150 -0.143 13.72321 16.00775 -7.66635  20.562
 3.85 4.20 -0.085 -0.084 -0.081 -0.076 -0.069 13.82389 16.20820 -7.46597  23.088
 3.85 4.40 -0.010 -0.008 -0.006 -0.001  0.007 13.92450 16.40854 -7.26565  25.923
 3.85 4.60  0.067  0.068  0.070  0.076  0.084 14.02505 16.60874 -7.06538  29.105
 3.85 4.80  0.146  0.147  0.150  0.155  0.164 14.12557 16.80888 -6.86515  32.677
 3.85 5.00  0.227  0.228  0.231  0.236  0.245 14.22609 17.00903 -6.66494  36.687
 3.85 5.20  0.310  0.312  0.314  0.320  0.328 14.32666 17.20926 -6.46479  41.189
 3.85 5.40  0.396  0.397  0.399  0.405  0.413 14.42725 17.40949 -6.26464  46.244
 3.85 5.60  0.483  0.484  0.486  0.491  0.500 14.52786 17.60966 -6.06448  51.921
 3.85 5.80  0.573  0.574  0.576  0.580  0.588 14.62850 17.80977 -5.86432  58.300
 3.85 6.00  0.664  0.665  0.667  0.671  0.678 14.72916 18.00988 -5.66414  65.467
 3.85 6.25  0.778  0.779  0.781  0.785  0.792 14.85513 18.26009 -5.41390  75.685
 3.85 6.50  0.894  0.895  0.897  0.900  0.907 14.98118 18.51041 -5.16361  87.505
 3.85 6.75  1.011  1.011  1.013  1.016  1.023 15.10734 18.76100 -4.91299 101.185
 3.85 7.00  1.127  1.128  1.130  1.133  1.139 15.23350 19.01199 -4.66194 117.003
 3.85 7.25  1.244  1.244  1.246  1.249  1.255 15.35943 19.26386 -4.41014 135.255
 3.85 7.50  1.358  1.358  1.360  1.363  1.369 15.48501 19.51693 -4.15720 156.290
 3.85 7.75  1.466  1.466  1.468  1.471  1.476 15.60910 19.77252 -3.90158 180.292
 3.85 8.00  1.566  1.567  1.568  1.571  1.576 15.73207 20.03020 -3.64378 207.718
 3.88-2.00 -0.532 -0.531 -0.530 -0.527 -0.522  9.65744  9.69923-13.97469   0.184
 3.88-1.50 -0.522 -0.521 -0.519 -0.515 -0.509 10.15594 10.20058-13.47353   0.327
 3.88-1.00 -0.500 -0.499 -0.497 -0.493 -0.486 10.65138 10.70475-12.96940   0.578
 3.88-0.50 -0.461 -0.460 -0.458 -0.454 -0.447 11.13767 11.21643-12.45755   1.012
 3.88 0.00 -0.411 -0.410 -0.409 -0.405 -0.400 11.60097 11.74492-11.92922   1.725
 3.88 0.50 -0.369 -0.369 -0.367 -0.365 -0.360 12.02119 12.29425-11.37986   2.799
 3.88 1.00 -0.341 -0.340 -0.339 -0.337 -0.333 12.38810 12.85144-10.82275   4.270
 3.88 1.25 -0.327 -0.326 -0.325 -0.323 -0.319 12.55346 13.12667-10.54746   5.166
 3.88 1.50 -0.309 -0.309 -0.308 -0.305 -0.301 12.70978 13.39898-10.27507   6.185
 3.88 1.75 -0.287 -0.287 -0.286 -0.283 -0.280 12.85831 13.66702-10.00712   7.339
 3.88 2.00 -0.259 -0.259 -0.258 -0.255 -0.251 13.00130 13.93166 -9.74256   8.653
 3.88 2.25 -0.225 -0.224 -0.223 -0.221 -0.217 13.13995 14.19295 -9.48120  10.149
 3.88 2.50 -0.184 -0.183 -0.182 -0.179 -0.175 13.27531 14.45179 -9.22228  11.859
 3.88 2.75 -0.135 -0.135 -0.134 -0.131 -0.126 13.40798 14.70860 -8.96544  13.817
 3.88 3.00 -0.081 -0.080 -0.079 -0.076 -0.071 13.53883 14.96383 -8.71019  16.064
 3.88 3.20 -0.032 -0.032 -0.030 -0.027 -0.022 13.64246 15.16703 -8.50701  18.099
 3.88 3.40  0.019  0.020  0.021  0.024  0.030 13.74545 15.36963 -8.30443  20.377
 3.88 3.60  0.074  0.075  0.077  0.080  0.086 13.84788 15.57167 -8.10240  22.925
 3.88 3.80  0.133  0.134  0.136  0.139  0.145 13.94991 15.77336 -7.90073  25.781
 3.88 4.00  0.194  0.195  0.197  0.201  0.207 14.05154 15.97470 -7.69941  28.980
 3.88 4.20  0.258  0.259  0.261  0.265  0.271 14.15273 16.17576 -7.49835  32.566
 3.88 4.40  0.324  0.325  0.327  0.331  0.338 14.25379 16.37662 -7.29751  36.587
 3.88 4.60  0.393  0.394  0.396  0.400  0.407 14.35477 16.57728 -7.09686  41.098
 3.88 4.80  0.463  0.464  0.466  0.471  0.478 14.45569 16.77781 -6.89635  46.160
 3.88 5.00  0.536  0.537  0.539  0.544  0.551 14.55654 16.97823 -6.69594  51.840
 3.88 5.20  0.611  0.612  0.614  0.619  0.626 14.65727 17.17858 -6.49560  58.215
 3.88 5.40  0.688  0.689  0.691  0.696  0.703 14.75799 17.37888 -6.29531  65.373
 3.88 5.60  0.768  0.769  0.771  0.775  0.782 14.85873 17.57910 -6.09506  73.413
 3.88 5.80  0.851  0.851  0.853  0.857  0.864 14.95952 17.77929 -5.89484  82.443
 3.88 6.00  0.935  0.936  0.938  0.941  0.948 15.06032 17.97946 -5.69465  92.586
 3.88 6.25  1.043  1.044  1.045  1.048  1.054 15.18634 18.22966 -5.44444 107.046
 3.88 6.50  1.153  1.154  1.155  1.159  1.164 15.31239 18.47986 -5.19423 123.774
 3.88 6.75  1.265  1.266  1.267  1.270  1.276 15.43865 18.73020 -4.94388 143.139
 3.88 7.00  1.379  1.380  1.381  1.384  1.389 15.56490 18.98069 -4.69336 165.533
 3.88 7.25  1.494  1.495  1.496  1.499  1.504 15.69109 19.23147 -4.44257 191.412
 3.88 7.50  1.610  1.610  1.611  1.614  1.619 15.81717 19.48273 -4.19132 221.301
 3.88 7.75  1.723  1.724  1.725  1.727  1.732 15.94228 19.73532 -3.93872 255.589
 3.88 8.00  1.833  1.834  1.835  1.837  1.841 16.06670 19.98896 -3.68508 294.967
 3.91-2.00 -0.534 -0.534 -0.533 -0.531 -0.527  9.62808  9.66876-14.00533   0.172
 3.91-1.50 -0.525 -0.525 -0.523 -0.520 -0.515 10.12775 10.16909-13.50501   0.306
 3.91-1.00 -0.504 -0.503 -0.501 -0.497 -0.490 10.62675 10.66997-13.00410   0.543
 3.91-0.50 -0.456 -0.455 -0.453 -0.448 -0.440 11.12353 11.17260-12.50141   0.962
 3.91 0.00 -0.366 -0.365 -0.363 -0.358 -0.351 11.61426 11.68097-11.99311   1.693
 3.91 0.50 -0.233 -0.232 -0.231 -0.227 -0.221 12.08778 12.20249-11.47173   2.920
 3.91 1.00 -0.084 -0.083 -0.082 -0.079 -0.074 12.52556 12.74484-10.92922   4.833
 3.91 1.25 -0.015 -0.014 -0.013 -0.011 -0.006 12.72476 13.02315-10.65088   6.079
 3.91 1.50  0.046  0.047  0.048  0.050  0.054 12.91126 13.30146-10.37253   7.535
 3.91 1.75  0.100  0.101  0.102  0.104  0.108 13.08454 13.57849-10.09551   9.198
 3.91 2.00  0.150  0.150  0.151  0.153  0.157 13.24748 13.85388 -9.82016  11.095
 3.91 2.25  0.195  0.195  0.196  0.199  0.202 13.40123 14.12452 -9.54953  13.244
 3.91 2.50  0.239  0.240  0.241  0.243  0.247 13.54827 14.39164 -9.28241  15.687
 3.91 2.75  0.284  0.285  0.286  0.288  0.292 13.68983 14.65515 -9.01889  18.464
 3.91 3.00  0.332  0.332  0.333  0.336  0.340 13.82743 14.91582 -8.75820  21.634
 3.91 3.20  0.372  0.372  0.373  0.376  0.380 13.93517 15.12247 -8.55156  24.492
 3.91 3.40  0.414  0.415  0.416  0.419  0.423 14.04150 15.32794 -8.34610  27.682
 3.91 3.60  0.459  0.460  0.461  0.464  0.469 14.14648 15.53229 -8.14178  31.238
 3.91 3.80  0.507  0.508  0.509  0.512  0.517 14.25060 15.73587 -7.93825  35.217
 3.91 4.00  0.558  0.559  0.560  0.563  0.568 14.35392 15.93872 -7.73542  39.665
 3.91 4.20  0.611  0.612  0.613  0.617  0.622 14.45659 16.14099 -7.53316  44.642
 3.91 4.40  0.667  0.668  0.669  0.673  0.678 14.55884 16.34282 -7.33132  50.219
 3.91 4.60  0.725  0.726  0.728  0.731  0.737 14.66070 16.54425 -7.12985  56.467
 3.91 4.80  0.786  0.787  0.789  0.792  0.798 14.76233 16.74541 -6.92864  63.475
 3.91 5.00  0.850  0.850  0.852  0.856  0.862 14.86374 16.94631 -6.72769  71.336
 3.91 5.20  0.915  0.916  0.918  0.921  0.928 14.96490 17.14697 -6.52700  80.153
 3.91 5.40  0.984  0.984  0.986  0.990  0.996 15.06604 17.34754 -6.32644  90.052
 3.91 5.60  1.055  1.055  1.057  1.060  1.066 15.16717 17.54802 -6.12602 101.167
 3.91 5.80  1.129  1.129  1.131  1.134  1.140 15.26829 17.74845 -5.92568 113.651
 3.91 6.00  1.205  1.206  1.207  1.210  1.216 15.36940 17.94880 -5.72538 127.676
 3.91 6.25  1.304  1.304  1.306  1.309  1.314 15.49576 18.19907 -5.47505 147.671
 3.91 6.50  1.407  1.407  1.408  1.411  1.416 15.62211 18.44933 -5.22475 170.804
 3.91 6.75  1.512  1.512  1.514  1.516  1.521 15.74870 18.69959 -4.97449 197.596
 3.91 7.00  1.621  1.621  1.622  1.625  1.629 15.87529 18.94988 -4.72423 228.599
 3.91 7.25  1.732  1.732  1.733  1.736  1.740 16.00187 19.20024 -4.47389 264.472
 3.91 7.50  1.845  1.846  1.847  1.849  1.853 16.12840 19.45071 -4.22344 305.974
 3.91 7.75  1.960  1.960  1.961  1.963  1.967 16.25454 19.70167 -3.97244 353.771
 3.91 8.00  2.074  2.075  2.076  2.078  2.081 16.38039 19.95299 -3.72102 408.867
 3.94-2.00 -0.536 -0.536 -0.535 -0.534 -0.532  9.59835  9.63839-14.03569   0.161
 3.94-1.50 -0.530 -0.530 -0.529 -0.527 -0.523 10.09795 10.13862-13.53551   0.285
 3.94-1.00 -0.514 -0.513 -0.512 -0.509 -0.504 10.59781 10.63889-13.03518   0.507
 3.94-0.50 -0.474 -0.473 -0.471 -0.467 -0.459 11.09691 11.13956-12.53462   0.901
 3.94 0.00 -0.387 -0.386 -0.384 -0.379 -0.370 11.59484 11.64167-12.03245   1.599
 3.94 0.50 -0.233 -0.232 -0.229 -0.224 -0.216 12.08778 12.14768-11.52637   2.821
 3.94 1.00 -0.009 -0.008 -0.006 -0.003  0.003 12.56785 12.66455-11.00953   4.901
 3.94 1.25  0.116  0.117  0.118  0.122  0.127 12.79733 12.93034-10.74369   6.383
 3.94 1.50  0.242  0.242  0.244  0.247  0.252 13.01745 13.20085-10.47314   8.226
 3.94 1.75  0.356  0.356  0.357  0.360  0.365 13.22426 13.47809-10.19606  10.437
 3.94 2.00  0.456  0.456  0.457  0.460  0.464 13.41847 13.75549 -9.91865  13.051
 3.94 2.25  0.538  0.539  0.540  0.542  0.546 13.59844 14.03299 -9.64108  16.055
 3.94 2.50  0.608  0.609  0.610  0.612  0.616 13.76716 14.31048 -9.36351  19.498
 3.94 2.75  0.667  0.668  0.669  0.671  0.675 13.92551 14.58328 -9.09068  23.401
 3.94 3.00  0.721  0.722  0.723  0.725  0.729 14.07628 14.85266 -8.82131  27.838
 3.94 3.20  0.761  0.762  0.763  0.765  0.769 14.19228 15.06517 -8.60890  31.812
 3.94 3.40  0.801  0.801  0.802  0.805  0.809 14.30535 15.27570 -8.39846  36.232
 3.94 3.60  0.841  0.841  0.842  0.845  0.849 14.41559 15.48424 -8.18989  41.133
 3.94 3.80  0.881  0.882  0.883  0.886  0.890 14.52395 15.69129 -7.98277  46.599
 3.94 4.00  0.924  0.924  0.926  0.928  0.933 14.63063 15.89697 -7.77702  52.689
 3.94 4.20  0.968  0.969  0.970  0.972  0.977 14.73600 16.10148 -7.57254  59.484
 3.94 4.40  1.014  1.015  1.016  1.019  1.024 14.84044 16.30517 -7.36889  67.086
 3.94 4.60  1.063  1.064  1.065  1.068  1.073 14.94399 16.50810 -7.16599  75.583
 3.94 4.80  1.114  1.115  1.116  1.119  1.124 15.04698 16.71052 -6.96361  85.104
 3.94 5.00  1.168  1.168  1.170  1.173  1.178 15.14953 16.91243 -6.76170  95.770
 3.94 5.20  1.224  1.225  1.226  1.229  1.234 15.25176 17.11393 -6.56018 107.724
 3.94 5.40  1.283  1.283  1.285  1.288  1.293 15.35375 17.31514 -6.35896 121.140
 3.94 5.60  1.344  1.345  1.346  1.349  1.354 15.45549 17.51610 -6.15803 136.193
 3.94 5.80  1.409  1.409  1.411  1.413  1.418 15.55711 17.71689 -5.95730 153.100
 3.94 6.00  1.477  1.477  1.478  1.481  1.485 15.65868 17.91751 -5.75671 172.095
 3.94 6.25  1.565  1.565  1.566  1.569  1.573 15.78561 18.16804 -5.50611 199.173
 3.94 6.50  1.658  1.658  1.659  1.661  1.665 15.91254 18.41847 -5.25563 230.512
 3.94 6.75  1.755  1.755  1.756  1.758  1.762 16.03959 18.66886 -5.00528 266.821
 3.94 7.00  1.856  1.856  1.857  1.859  1.863 16.16673 18.91918 -4.75498 308.878
 3.94 7.25  1.961  1.962  1.963  1.964  1.968 16.29400 19.16940 -4.50472 357.615
 3.94 7.50  2.070  2.071  2.072  2.073  2.076 16.42127 19.41963 -4.25446 414.041
 3.94 7.75  2.182  2.182  2.183  2.185  2.188 16.54833 19.66997 -4.00413 479.253
 3.94 8.00  2.296  2.296  2.297  2.298  2.301 16.67523 19.92039 -3.75375 554.645
 3.97-2.00 -0.533 -0.532 -0.532 -0.531 -0.530  9.57019  9.60681-14.06732   0.150
 3.97-1.50 -0.532 -0.532 -0.531 -0.530 -0.528 10.06893 10.10789-13.56623   0.267
 3.97-1.00 -0.522 -0.521 -0.521 -0.518 -0.515 10.56820 10.60853-13.06550   0.474
 3.97-0.50 -0.493 -0.492 -0.491 -0.488 -0.482 11.06781 11.10890-12.56511   0.842
 3.97 0.00 -0.423 -0.422 -0.420 -0.415 -0.408 11.56714 11.60959-12.06449   1.496
 3.97 0.50 -0.281 -0.280 -0.278 -0.273 -0.264 12.06521 12.11126-11.56288   2.654
 3.97 1.00 -0.050 -0.048 -0.046 -0.041 -0.032 12.55955 12.61637-11.05774   4.690
 3.97 1.25  0.098  0.099  0.101  0.106  0.113 12.80318 12.87187-10.80224   6.209
 3.97 1.50  0.261  0.262  0.264  0.268  0.275 13.04297 13.13033-10.54379   8.183
 3.97 1.75  0.429  0.430  0.432  0.435  0.442 13.27594 13.39390-10.28022  10.700
 3.97 2.00  0.591  0.592  0.593  0.597  0.602 13.50065 13.66219-10.01193  13.858
 3.97 2.25  0.735  0.736  0.737  0.740  0.745 13.71264 13.93721 -9.73699  17.689
 3.97 2.50  0.859  0.860  0.861  0.864  0.868 13.91233 14.21405 -9.46017  22.263
 3.97 2.75  0.959  0.960  0.961  0.964  0.968 14.09762 14.49219 -9.18198  27.558
 3.97 3.00  1.042  1.043  1.044  1.046  1.050 14.27114 14.77034 -8.90379  33.652
 3.97 3.20  1.097  1.098  1.099  1.101  1.105 14.40169 14.98987 -8.68422  39.109
 3.97 3.40  1.146  1.147  1.148  1.150  1.154 14.52689 15.20736 -8.46671  45.172
 3.97 3.60  1.191  1.191  1.192  1.195  1.198 14.64689 15.42243 -8.25165  51.863
 3.97 3.80  1.232  1.233  1.234  1.236  1.240 14.76325 15.63506 -8.03907  59.297
 3.97 4.00  1.273  1.273  1.274  1.277  1.281 14.87633 15.84560 -7.82857  67.542
 3.97 4.20  1.313  1.313  1.314  1.317  1.321 14.98674 16.05414 -7.62004  76.701
 3.97 4.40  1.353  1.354  1.355  1.357  1.361 15.09531 16.26120 -7.41297  86.916
 3.97 4.60  1.395  1.396  1.397  1.399  1.403 15.20215 16.46683 -7.20729  98.294
 3.97 4.80  1.439  1.439  1.440  1.443  1.447 15.30789 16.67143 -7.00261 111.018
 3.97 5.00  1.484  1.485  1.486  1.488  1.493 15.41263 16.87512 -6.79888 125.243
 3.97 5.20  1.532  1.533  1.534  1.536  1.540 15.51659 17.07808 -6.59602 141.158
 3.97 5.40  1.582  1.583  1.584  1.586  1.590 15.62002 17.28048 -6.39367 159.003
 3.97 5.60  1.635  1.636  1.636  1.639  1.643 15.72293 17.48236 -6.19175 179.004
 3.97 5.80  1.690  1.691  1.692  1.694  1.698 15.82556 17.68389 -5.99015 201.459
 3.97 6.00  1.749  1.749  1.750  1.752  1.756 15.92799 17.88508 -5.78888 226.677
 3.97 6.25  1.826  1.827  1.827  1.829  1.833 16.05577 18.13617 -5.53784 262.606
 3.97 6.50  1.909  1.909  1.910  1.912  1.915 16.18356 18.38704 -5.28701 304.230
 3.97 6.75  1.996  1.996  1.997  1.999  2.002 16.31141 18.63777 -5.03627 352.465
 3.97 7.00  2.089  2.089  2.089  2.091  2.094 16.43933 18.88835 -4.78569 408.368
 3.97 7.25  2.186  2.186  2.187  2.188  2.191 16.56738 19.13870 -4.53535 473.240
 3.97 7.50  2.289  2.289  2.289  2.291  2.293 16.69548 19.38899 -4.28508 548.457
 3.97 7.75  2.395  2.395  2.396  2.397  2.399 16.82363 19.63925 -4.03484 635.654
 3.97 8.00  2.505  2.506  2.506  2.507  2.509 16.95182 19.88947 -3.78463 736.750
 4.00-2.00 -0.517 -0.517 -0.516 -0.516 -0.515  9.54937  9.56820-14.10591   0.142
 4.00-1.50 -0.524 -0.524 -0.524 -0.523 -0.522 10.04376 10.07335-13.60067   0.250
 4.00-1.00 -0.524 -0.523 -0.523 -0.521 -0.519 10.54033 10.57680-13.09735   0.443
 4.00-0.50 -0.506 -0.506 -0.505 -0.503 -0.499 11.03862 11.07809-12.59585   0.787
 4.00 0.00 -0.455 -0.455 -0.453 -0.450 -0.444 11.53795 11.57887-12.09523   1.398
 4.00 0.50 -0.340 -0.339 -0.337 -0.332 -0.324 12.03703 12.07954-11.59448   2.483
 4.00 1.00 -0.129 -0.128 -0.126 -0.120 -0.111 12.53555 12.58115-11.09297   4.407
 4.00 1.25  0.014  0.015  0.018  0.023  0.032 12.78371 12.83287-10.84129   5.864
 4.00 1.50  0.183  0.184  0.186  0.192  0.201 13.03060 13.08565-10.58855   7.792
 4.00 1.75  0.369  0.370  0.372  0.377  0.386 13.27506 13.34046-10.33374  10.325
 4.00 2.00  0.565  0.566  0.568  0.573  0.580 13.51614 13.59791-10.07624  13.630
 4.00 2.25  0.759  0.760  0.762  0.766  0.772 13.75095 13.86003 -9.81400  17.861
 4.00 2.50  0.942  0.943  0.944  0.948  0.954 13.97814 14.12678 -9.54714  23.200
 4.00 2.75  1.103  1.104  1.105  1.108  1.113 14.19340 14.40044 -9.27359  29.726
 4.00 3.00  1.240  1.241  1.242  1.245  1.250 14.39672 14.67669 -8.99740  37.568
 4.00 3.20  1.330  1.331  1.332  1.335  1.339 14.54875 14.89942 -8.77467  44.753
 4.00 3.40  1.407  1.408  1.409  1.411  1.415 14.69305 15.12214 -8.55194  52.839
 4.00 3.60  1.472  1.472  1.473  1.476  1.480 14.82937 15.34385 -8.33027  61.816
 4.00 3.80  1.527  1.527  1.529  1.531  1.534 14.95927 15.56311 -8.11108  71.787
 4.00 4.00  1.576  1.577  1.578  1.580  1.583 15.08350 15.78046 -7.89381  82.826
 4.00 4.20  1.620  1.620  1.621  1.623  1.627 15.20281 15.99483 -7.67938  95.026
 4.00 4.40  1.661  1.661  1.662  1.664  1.668 15.31867 16.20707 -7.46707 108.588
 4.00 4.60  1.701  1.701  1.702  1.704  1.707 15.43124 16.41716 -7.25690 123.611
 4.00 4.80  1.740  1.740  1.741  1.743  1.747 15.54162 16.62552 -7.04847 140.356
 4.00 5.00  1.780  1.780  1.781  1.783  1.787 15.65002 16.83232 -6.84164 159.005
 4.00 5.20  1.821  1.822  1.822  1.824  1.828 15.75679 17.03772 -6.63625 179.804
 4.00 5.40  1.864  1.864  1.865  1.867  1.870 15.86249 17.24215 -6.43186 203.072
 4.00 5.60  1.909  1.910  1.910  1.912  1.915 15.96713 17.44568 -6.22842 229.080
 4.00 5.80  1.957  1.957  1.958  1.960  1.963 16.07114 17.64859 -6.02560 258.235
 4.00 6.00  2.007  2.007  2.008  2.010  2.013 16.17464 17.85089 -5.82333 290.922
 4.00 6.25  2.074  2.074  2.075  2.077  2.079 16.30346 18.10303 -5.57105 337.425
 4.00 6.50  2.147  2.147  2.147  2.149  2.151 16.43201 18.35468 -5.31930 391.243
 4.00 6.75  2.224  2.224  2.225  2.226  2.228 16.56035 18.60601 -5.06799 453.539
 4.00 7.00  2.307  2.308  2.308  2.309  2.311 16.68869 18.85703 -4.81702 525.754
 4.00 7.25  2.396  2.397  2.397  2.398  2.400 16.81715 19.10777 -4.56639 609.546
 4.00 7.50  2.491  2.492  2.492  2.493  2.495 16.94576 19.35832 -4.31587 706.812
 4.00 7.75  2.592  2.592  2.592  2.593  2.595 17.07488 19.60874 -4.06541 820.057
 4.00 8.00  2.697  2.697  2.697  2.698  2.700 17.20439 19.85902 -3.81503 951.852
 4.05-2.00 -0.498 -0.498 -0.498 -0.497 -0.496  9.50826  9.50947-14.16456   0.128
 4.05-1.50 -0.499 -0.499 -0.498 -0.498 -0.496 10.00732 10.01072-13.66334   0.226
 4.05-1.00 -0.501 -0.501 -0.500 -0.499 -0.497 10.50420 10.51362-13.16052   0.401
 4.05-0.50 -0.501 -0.500 -0.500 -0.498 -0.496 10.99900 11.01870-12.65561   0.709
 4.05 0.00 -0.484 -0.483 -0.482 -0.480 -0.477 11.49346 11.52388-12.15021   1.254
 4.05 0.50 -0.421 -0.420 -0.419 -0.416 -0.411 11.98994 12.02694-11.64705   2.220
 4.05 1.00 -0.274 -0.273 -0.271 -0.267 -0.260 12.48827 12.52866-11.14545   3.941
 4.05 1.25 -0.158 -0.157 -0.155 -0.150 -0.143 12.73761 12.77923-10.89490   5.251
 4.05 1.50 -0.013 -0.012 -0.010 -0.004  0.003 12.98695 13.02979-10.64436   6.997
 4.05 1.75  0.160  0.161  0.163  0.169  0.178 13.23598 13.28068-10.39343   9.320
 4.05 2.00  0.357  0.358  0.361  0.366  0.376 13.48458 13.53199-10.14207  12.408
 4.05 2.25  0.570  0.572  0.574  0.579  0.589 13.73202 13.78424 -9.88979  16.498
 4.05 2.50  0.792  0.793  0.795  0.801  0.809 13.97786 14.03783 -9.63620  21.895
 4.05 2.75  1.015  1.016  1.018  1.023  1.030 14.22059 14.29411 -9.37994  28.954
 4.05 3.00  1.232  1.233  1.235  1.239  1.245 14.45909 14.55364 -9.12045  38.102
 4.05 3.20  1.395  1.396  1.398  1.401  1.407 14.64444 14.76519 -8.90886  47.166
 4.05 3.40  1.546  1.547  1.548  1.551  1.556 14.82410 14.97974 -8.69428  58.005
 4.05 3.60  1.681  1.682  1.683  1.685  1.690 14.99684 15.19853 -8.47551  70.770
 4.05 3.80  1.798  1.799  1.800  1.802  1.806 15.16099 15.41972 -8.25436  85.493
 4.05 4.00  1.899  1.900  1.901  1.902  1.906 15.31723 15.64147 -8.03264 102.343
 4.05 4.20  1.982  1.983  1.983  1.985  1.988 15.46410 15.86358 -7.81055 121.193
 4.05 4.40  2.053  2.054  2.054  2.056  2.059 15.60371 16.08568 -7.58847 142.323
 4.05 4.60  2.114  2.114  2.115  2.116  2.119 15.73596 16.30640 -7.36776 165.728
 4.05 4.80  2.166  2.166  2.167  2.169  2.171 15.86253 16.52413 -7.15003 191.730
 4.05 5.00  2.214  2.214  2.215  2.216  2.218 15.98412 16.73973 -6.93442 220.542
 4.05 5.20  2.257  2.258  2.258  2.260  2.262 16.10153 16.95257 -6.72153 252.452
 4.05 5.40  2.300  2.300  2.300  2.302  2.304 16.21597 17.16343 -6.51064 287.997
 4.05 5.60  2.341  2.342  2.342  2.343  2.345 16.32755 17.37232 -6.30173 327.477
 4.05 5.80  2.383  2.384  2.384  2.385  2.387 16.43730 17.57970 -6.09436 371.588
 4.05 6.00  2.427  2.427  2.427  2.428  2.430 16.54543 17.78569 -5.88840 420.857
 4.05 6.25  2.483  2.483  2.484  2.485  2.486 16.67881 18.04153 -5.63263 490.739
 4.05 6.50  2.543  2.544  2.544  2.545  2.546 16.81104 18.29601 -5.37820 571.424
 4.05 6.75  2.608  2.608  2.608  2.609  2.610 16.94242 18.54938 -5.12483 664.622
 4.05 7.00  2.678  2.678  2.678  2.679  2.680 17.07335 18.80195 -4.87225 772.708
 4.05 7.25  2.753  2.753  2.753  2.754  2.755 17.20390 19.05389 -4.62027 898.101
 4.05 7.50  2.835  2.835  2.835  2.836  2.837 17.33445 19.30535 -4.368761043.842
 4.05 7.75  2.923  2.923  2.923  2.924  2.925 17.46548 19.55649 -4.117581213.864
 4.05 8.00  3.018  3.018  3.018  3.019  3.019 17.59682 19.80726 -3.866781412.066
 4.10-2.00 -0.495 -0.495 -0.494 -0.493 -0.491  9.45894  9.45894-14.21510   0.114
 4.10-1.50 -0.493 -0.493 -0.492 -0.491 -0.489  9.95876  9.95904-13.71512   0.202
 4.10-1.00 -0.491 -0.491 -0.490 -0.489 -0.486 10.45864 10.45924-13.21481   0.360
 4.10-0.50 -0.487 -0.487 -0.486 -0.484 -0.481 10.95794 10.95985-12.71422   0.639
 4.10 0.00 -0.474 -0.474 -0.473 -0.471 -0.468 11.45637 11.46150-12.21254   1.134
 4.10 0.50 -0.441 -0.440 -0.439 -0.437 -0.433 11.95250 11.96520-11.70885   2.008
 4.10 1.00 -0.356 -0.356 -0.354 -0.351 -0.346 12.44685 12.47071-11.20336   3.547
 4.10 1.25 -0.283 -0.282 -0.280 -0.277 -0.271 12.69414 12.72322-10.95082   4.715
 4.10 1.50 -0.182 -0.181 -0.179 -0.176 -0.169 12.94161 12.97548-10.69853   6.270
 4.10 1.75 -0.051 -0.050 -0.048 -0.044 -0.036 13.18993 13.22701-10.44698   8.345
 4.10 2.00  0.109  0.110  0.112  0.117  0.125 13.43854 13.47828-10.19572  11.110
 4.10 2.25  0.299  0.300  0.302  0.307  0.316 13.68743 13.72932 -9.94476  14.796
 4.10 2.50  0.511  0.512  0.514  0.519  0.527 13.93631 13.98037 -9.69379  19.705
 4.10 2.75  0.739  0.740  0.742  0.747  0.755 14.18467 14.23184 -9.44230  26.228
 4.10 3.00  0.976  0.977  0.979  0.984  0.992 14.43233 14.48387 -9.19017  34.883
 4.10 3.20  1.167  1.168  1.170  1.174  1.181 14.62926 14.68658 -8.98748  43.760
 4.10 3.40  1.356  1.357  1.359  1.363  1.369 14.82466 14.89057 -8.78354  54.799
 4.10 3.60  1.542  1.543  1.544  1.547  1.553 15.01806 15.09628 -8.57786  68.464
 4.10 3.80  1.721  1.721  1.723  1.725  1.730 15.20772 15.30471 -8.36941  85.169
 4.10 4.00  1.890  1.890  1.891  1.894  1.897 15.39357 15.51574 -8.15833 105.487
 4.10 4.20  2.044  2.044  2.045  2.047  2.050 15.57276 15.73105 -7.94293 129.655
 4.10 4.40  2.182  2.183  2.183  2.185  2.187 15.74511 15.94892 -7.72502 158.114
 4.10 4.60  2.302  2.303  2.303  2.305  2.307 15.90946 16.17005 -7.50390 191.058
 4.10 4.80  2.405  2.405  2.405  2.406  2.408 16.06502 16.39252 -7.28147 228.547
 4.10 5.00  2.493  2.493  2.493  2.494  2.496 16.21272 16.61500 -7.05904 270.921
 4.10 5.20  2.565  2.566  2.566  2.567  2.568 16.35208 16.83627 -6.83779 318.040
 4.10 5.40  2.629  2.629  2.630  2.631  2.632 16.48517 17.05629 -6.61777 370.676
 4.10 5.60  2.686  2.686  2.686  2.687  2.688 16.61200 17.27430 -6.39976 428.948
 4.10 5.80  2.737  2.737  2.737  2.738  2.739 16.73431 17.48955 -6.18449 493.825
 4.10 6.00  2.786  2.786  2.786  2.787  2.788 16.85266 17.70260 -5.97143 565.936
 4.10 6.25  2.844  2.844  2.845  2.845  2.846 16.99623 17.96556 -5.70845 667.635
 4.10 6.50  2.903  2.904  2.904  2.904  2.905 17.13640 18.22583 -5.44819 784.541
 4.10 6.75  2.964  2.964  2.964  2.964  2.965 17.27387 18.48387 -5.19023 919.062
 4.10 7.00  3.027  3.027  3.028  3.028  3.029 17.40977 18.74013 -4.934051074.703
 4.10 7.25  3.095  3.095  3.095  3.096  3.096 17.54429 18.99486 -4.679361254.719
 4.10 7.50  3.168  3.168  3.168  3.169  3.169 17.67861 19.24846 -4.425741464.564
 4.10 7.75  3.247  3.247  3.247  3.247  3.248 17.81286 19.50128 -4.172851709.384
 4.10 8.00  3.332  3.332  3.332  3.332  3.333 17.94699 19.75320 -3.920821994.889
 4.15-2.00 -0.495 -0.495 -0.495 -0.494 -0.492  9.40892  9.40892-14.26512   0.101
 4.15-1.50 -0.492 -0.492 -0.491 -0.490 -0.487  9.90886  9.90891-13.76523   0.180
 4.15-1.00 -0.488 -0.488 -0.487 -0.485 -0.481 10.40892 10.40892-13.26512   0.321
 4.15-0.50 -0.483 -0.482 -0.481 -0.479 -0.475 10.90875 10.90902-12.76498   0.570
 4.15 0.00 -0.474 -0.474 -0.472 -0.470 -0.465 11.40858 11.40926-12.26488   1.013
 4.15 0.50 -0.452 -0.451 -0.450 -0.447 -0.442 11.90816 11.90961-11.76447   1.801
 4.15 1.00 -0.395 -0.394 -0.393 -0.389 -0.384 12.40705 12.41078-11.26328   3.198
 4.15 1.25 -0.343 -0.342 -0.341 -0.337 -0.332 12.65584 12.66197-11.01211   4.259
 4.15 1.50 -0.272 -0.271 -0.269 -0.266 -0.260 12.90412 12.91366-10.76045   5.669
 4.15 1.75 -0.178 -0.177 -0.175 -0.171 -0.164 13.15159 13.16614-10.50796   7.538
 4.15 2.00 -0.060 -0.059 -0.057 -0.053 -0.046 13.39881 13.41880-10.25532  10.020
 4.15 2.25  0.084  0.084  0.086  0.091  0.098 13.64584 13.67157-10.00257  13.316
 4.15 2.50  0.253  0.254  0.256  0.260  0.268 13.89287 13.92433 -9.74982  17.696
 4.15 2.75  0.450  0.451  0.453  0.457  0.465 14.14069 14.17652 -9.49766  23.537
 4.15 3.00  0.668  0.669  0.671  0.675  0.682 14.38863 14.42846 -9.24573  31.312
 4.15 3.20  0.856  0.857  0.858  0.862  0.869 14.58705 14.62980 -9.04437  39.349
 4.15 3.40  1.051  1.051  1.053  1.056  1.063 14.78547 14.83114 -8.84300  49.450
 4.15 3.60  1.250  1.250  1.252  1.255  1.261 14.98365 15.03273 -8.64140  62.125
 4.15 3.80  1.450  1.451  1.452  1.455  1.460 15.18097 15.23511 -8.43901  77.971
 4.15 4.00  1.648  1.648  1.649  1.652  1.656 15.37749 15.43823 -8.23590  97.767
 4.15 4.20  1.842  1.843  1.844  1.846  1.850 15.57195 15.64300 -8.03114 122.297
 4.15 4.40  2.032  2.032  2.033  2.034  2.037 15.76382 15.84972 -7.82442 152.525
 4.15 4.60  2.212  2.212  2.213  2.214  2.216 15.95232 16.05911 -7.61502 189.487
 4.15 4.80  2.380  2.380  2.380  2.381  2.383 16.13530 16.27188 -7.40221 233.918
 4.15 5.00  2.534  2.534  2.534  2.535  2.537 16.31281 16.48756 -7.18649 286.957
 4.15 5.20  2.668  2.668  2.668  2.669  2.670 16.48190 16.70770 -6.96624 348.618
 4.15 5.40  2.786  2.786  2.786  2.786  2.787 16.64332 16.92864 -6.74527 419.817
 4.15 5.60  2.886  2.886  2.886  2.887  2.888 16.79625 17.15037 -6.52360 500.674
 4.15 5.80  2.972  2.972  2.972  2.972  2.973 16.94121 17.37227 -6.30176 591.665
 4.15 6.00  3.047  3.048  3.048  3.048  3.048 17.07918 17.59417 -6.07993 693.576
 4.15 6.25  3.128  3.128  3.128  3.128  3.129 17.24260 17.86721 -5.80687 837.114
 4.15 6.50  3.202  3.202  3.202  3.202  3.203 17.39863 18.13704 -5.537001001.789
 4.15 6.75  3.270  3.270  3.271  3.271  3.271 17.54847 18.40304 -5.271031190.344
 4.15 7.00  3.338  3.338  3.339  3.339  3.339 17.69417 18.66596 -5.008161407.707
 4.15 7.25  3.407  3.407  3.407  3.407  3.407 17.83645 18.92600 -4.748201658.301
 4.15 7.50  3.478  3.478  3.478  3.478  3.479 17.97708 19.18384 -4.490391949.731
 4.15 7.75  3.553  3.553  3.553  3.553  3.553 18.11686 19.44005 -4.234142290.052
 4.15 8.00  3.633  3.633  3.633  3.633  3.633 18.25551 19.69443 -3.979642686.226
 4.20-2.00 -0.497 -0.497 -0.497 -0.496 -0.495  9.35889  9.35889-14.31515   0.090
 4.20-1.50 -0.495 -0.494 -0.494 -0.493 -0.492  9.85884  9.85890-13.81531   0.161
 4.20-1.00 -0.490 -0.490 -0.489 -0.488 -0.486 10.35889 10.35889-13.31516   0.286
 4.20-0.50 -0.483 -0.482 -0.482 -0.480 -0.477 10.85878 10.85896-12.81503   0.508
 4.20 0.00 -0.473 -0.472 -0.471 -0.469 -0.464 11.35889 11.35908-12.31507   0.903
 4.20 0.50 -0.457 -0.456 -0.454 -0.451 -0.445 11.85866 11.85908-11.81502   1.606
 4.20 1.00 -0.421 -0.420 -0.419 -0.415 -0.408 12.35851 12.35927-11.31480   2.856
 4.20 1.25 -0.388 -0.388 -0.386 -0.382 -0.374 12.60836 12.60943-11.06465   3.807
 4.20 1.50 -0.340 -0.339 -0.337 -0.333 -0.325 12.85812 12.85968-10.81446   5.075
 4.20 1.75 -0.272 -0.271 -0.269 -0.264 -0.256 13.10767 13.11012-10.56404   6.764
 4.20 2.00 -0.181 -0.180 -0.178 -0.173 -0.165 13.35698 13.36078-10.31336   9.015
 4.20 2.25 -0.064 -0.063 -0.061 -0.056 -0.048 13.60594 13.61183-10.06231  12.007
 4.20 2.50  0.077  0.077  0.079  0.084  0.092 13.85443 13.86332 -9.81079  15.982
 4.20 2.75  0.242  0.243  0.245  0.250  0.257 14.10206 14.11562 -9.55851  21.255
 4.20 3.00  0.429  0.430  0.431  0.435  0.442 14.34928 14.36829 -9.30583  28.254
 4.20 3.20  0.593  0.594  0.595  0.599  0.606 14.54674 14.57070 -9.10338  35.465
 4.20 3.40  0.768  0.769  0.770  0.773  0.780 14.74419 14.77310 -8.90092  44.515
 4.20 3.60  0.953  0.954  0.955  0.958  0.963 14.94179 14.97534 -8.69867  55.886
 4.20 3.80  1.147  1.147  1.148  1.151  1.156 15.13953 15.17742 -8.49662  70.174
 4.20 4.00  1.346  1.347  1.348  1.350  1.354 15.33726 15.37949 -8.29456  88.115
 4.20 4.20  1.551  1.551  1.552  1.554  1.558 15.53479 15.58171 -8.09236 110.617
 4.20 4.40  1.757  1.757  1.758  1.760  1.763 15.73202 15.78416 -7.88992 138.817
 4.20 4.60  1.962  1.962  1.962  1.964  1.966 15.92858 15.98722 -7.68688 174.067
 4.20 4.80  2.162  2.163  2.163  2.164  2.167 16.12336 16.19179 -7.48234 217.814
 4.20 5.00  2.359  2.359  2.360  2.360  2.362 16.31639 16.39777 -7.27638 271.999
 4.20 5.20  2.546  2.547  2.547  2.548  2.549 16.50553 16.60659 -7.06750 338.183
 4.20 5.40  2.724  2.724  2.724  2.725  2.726 16.69026 16.81812 -6.85591 418.353
 4.20 5.60  2.886  2.886  2.886  2.886  2.887 16.86952 17.03331 -6.64069 514.277
 4.20 5.80  3.030  3.030  3.030  3.030  3.031 17.04140 17.25152 -6.42249 626.811
 4.20 6.00  3.159  3.159  3.159  3.160  3.160 17.20629 17.47159 -6.20246 757.839
 4.20 6.25  3.293  3.293  3.293  3.293  3.293 17.39997 17.74906 -5.92504 947.157
 4.20 6.50  3.408  3.408  3.408  3.408  3.408 17.58241 18.02653 -5.647621168.530
 4.20 6.75  3.504  3.504  3.504  3.504  3.504 17.75381 18.30122 -5.372911423.384
 4.20 7.00  3.592  3.592  3.592  3.592  3.592 17.91709 18.57334 -5.100731717.739
 4.20 7.25  3.672  3.672  3.672  3.672  3.673 18.07325 18.84136 -4.832672056.270
 4.20 7.50  3.751  3.751  3.751  3.751  3.752 18.22505 19.10619 -4.567832449.084
 4.20 7.75  3.830  3.830  3.830  3.830  3.830 18.37419 19.36820 -4.305842907.770
 4.20 8.00  3.911  3.911  3.911  3.911  3.911 18.52009 19.62726 -4.046823439.314
 4.25-2.00 -0.496 -0.496 -0.496 -0.495 -0.494  9.30899  9.30899-14.36522   0.081
 4.25-1.50 -0.495 -0.495 -0.494 -0.494 -0.493  9.80889  9.80889-13.86519   0.143
 4.25-1.00 -0.492 -0.492 -0.492 -0.491 -0.490 10.30878 10.30899-13.36512   0.255
 4.25-0.50 -0.486 -0.486 -0.486 -0.485 -0.483 10.80882 10.80895-12.86519   0.453
 4.25 0.00 -0.476 -0.475 -0.475 -0.473 -0.471 11.30878 11.30899-12.36512   0.805
 4.25 0.50 -0.460 -0.459 -0.459 -0.457 -0.453 11.80875 11.80902-11.86519   1.431
 4.25 1.00 -0.433 -0.433 -0.431 -0.428 -0.422 12.30878 12.30921-11.36492   2.545
 4.25 1.25 -0.411 -0.410 -0.409 -0.405 -0.398 12.55866 12.55921-11.11489   3.394
 4.25 1.50 -0.378 -0.377 -0.376 -0.371 -0.363 12.80855 12.80922-10.86487   4.526
 4.25 1.75 -0.332 -0.331 -0.329 -0.324 -0.315 13.05845 13.05929-10.61476   6.035
 4.25 2.00 -0.267 -0.266 -0.264 -0.259 -0.249 13.30835 13.30942-10.36462   8.046
 4.25 2.25 -0.182 -0.181 -0.179 -0.173 -0.163 13.55816 13.55961-10.11445  10.727
 4.25 2.50 -0.072 -0.071 -0.069 -0.063 -0.053 13.80787 13.80990 -9.86423  14.300
 4.25 2.75  0.064  0.065  0.067  0.073  0.083 14.05738 14.06038 -9.61376  19.059
 4.25 3.00  0.228  0.229  0.231  0.236  0.245 14.30664 14.31112 -9.36301  25.396
 4.25 3.20  0.379  0.380  0.382  0.386  0.395 14.50575 14.51200 -9.16209  31.938
 4.25 3.40  0.543  0.544  0.546  0.550  0.557 14.70453 14.71320 -8.96086  40.150
 4.25 3.60  0.719  0.719  0.721  0.724  0.731 14.90284 14.91486 -8.75920  50.448
 4.25 3.80  0.902  0.903  0.904  0.907  0.913 15.10068 15.11695 -8.55713  63.355
 4.25 4.00  1.091  1.091  1.092  1.095  1.099 15.29820 15.31931 -8.35477  79.535
 4.25 4.20  1.286  1.286  1.287  1.289  1.293 15.49547 15.52190 -8.15215  99.807
 4.25 4.40  1.485  1.485  1.486  1.488  1.491 15.69257 15.72461 -7.94942 125.225
 4.25 4.60  1.688  1.689  1.689  1.691  1.693 15.88958 15.92738 -7.74664 157.104
 4.25 4.80  1.896  1.896  1.896  1.897  1.900 16.08644 16.13024 -7.54380 197.077
 4.25 5.00  2.105  2.105  2.105  2.106  2.108 16.28308 16.33325 -7.34085 247.170
 4.25 5.20  2.314  2.314  2.314  2.315  2.316 16.47881 16.53699 -7.13712 309.645
 4.25 5.40  2.519  2.519  2.519  2.520  2.521 16.67332 16.74170 -6.93244 387.350
 4.25 5.60  2.719  2.719  2.719  2.720  2.721 16.86596 16.94795 -6.72620 483.516
 4.25 5.80  2.911  2.912  2.912  2.912  2.913 17.05494 17.15683 -6.51730 601.048
 4.25 6.00  3.094  3.094  3.094  3.094  3.095 17.24030 17.36810 -6.30601 744.055
 4.25 6.25  3.297  3.297  3.297  3.297  3.297 17.46316 17.63751 -6.03661 961.648
 4.25 6.50  3.478  3.478  3.478  3.478  3.478 17.67615 17.91041 -5.763721228.833
 4.25 6.75  3.627  3.627  3.628  3.628  3.628 17.87631 18.18715 -5.486961547.457
 4.25 7.00  3.759  3.759  3.759  3.759  3.759 18.06558 18.46390 -5.210211924.365
 4.25 7.25  3.870  3.870  3.870  3.870  3.870 18.24382 18.73906 -4.935152362.408
 4.25 7.50  3.971  3.971  3.971  3.971  3.971 18.41397 19.01241 -4.661942873.342
 4.25 7.75  4.064  4.064  4.064  4.064  4.064 18.57816 19.28169 -4.392583471.177
 4.25 8.00  4.155  4.155  4.155  4.155  4.155 18.73568 19.54765 -4.126394161.591
 4.30-2.00 -0.492 -0.492 -0.491 -0.491 -0.489  9.26007  9.25768-14.41646   0.072
 4.30-1.50 -0.492 -0.492 -0.492 -0.491 -0.489  9.75929  9.75846-13.91542   0.128
 4.30-1.00 -0.491 -0.491 -0.490 -0.489 -0.488 10.25912 10.25888-13.41522   0.227
 4.30-0.50 -0.487 -0.487 -0.487 -0.486 -0.484 10.75884 10.75891-12.91507   0.404
 4.30 0.00 -0.479 -0.478 -0.478 -0.477 -0.475 11.25888 11.25888-12.41510   0.718
 4.30 0.50 -0.463 -0.463 -0.462 -0.461 -0.458 11.75876 11.75899-11.91507   1.276
 4.30 1.00 -0.439 -0.439 -0.438 -0.436 -0.433 12.25864 12.25912-11.41499   2.269
 4.30 1.25 -0.422 -0.422 -0.421 -0.419 -0.415 12.50861 12.50913-11.16503   3.025
 4.30 1.50 -0.399 -0.398 -0.397 -0.395 -0.390 12.75861 12.75914-10.91507   4.034
 4.30 1.75 -0.366 -0.365 -0.364 -0.361 -0.355 13.00862 13.00925-10.66497   5.379
 4.30 2.00 -0.320 -0.319 -0.318 -0.314 -0.306 13.25864 13.25935-10.41488   7.173
 4.30 2.25 -0.257 -0.256 -0.254 -0.249 -0.241 13.50851 13.50936-10.16479   9.564
 4.30 2.50 -0.173 -0.172 -0.170 -0.165 -0.155 13.75838 13.75937 -9.91471  12.752
 4.30 2.75 -0.066 -0.065 -0.063 -0.057 -0.047 14.00827 14.00957 -9.66454  17.003
 4.30 3.00  0.066  0.067  0.069  0.075  0.086 14.25816 14.25983 -9.41431  22.670
 4.30 3.20  0.193  0.194  0.196  0.201  0.212 14.45790 14.46004 -9.21410  28.533
 4.30 3.40  0.337  0.338  0.340  0.345  0.355 14.65754 14.66029 -9.01381  35.908
 4.30 3.60  0.499  0.499  0.501  0.506  0.514 14.85709 14.86063 -8.81343  45.184
 4.30 3.80  0.675  0.675  0.677  0.681  0.688 15.05651 15.06120 -8.61285  56.845
 4.30 4.00  0.861  0.861  0.862  0.866  0.871 15.25576 15.26198 -8.41207  71.499
 4.30 4.20  1.056  1.056  1.057  1.060  1.065 15.45455 15.46317 -8.21086  89.887
 4.30 4.40  1.255  1.256  1.257  1.259  1.263 15.65293 15.66474 -8.00927 112.951
 4.30 4.60  1.458  1.458  1.459  1.460  1.464 15.85085 15.86676 -7.80722 141.855
 4.30 4.80  1.663  1.663  1.663  1.665  1.667 16.04828 16.06922 -7.60473 178.052
 4.30 5.00  1.868  1.868  1.869  1.870  1.872 16.24527 16.27207 -7.40187 223.374
 4.30 5.20  2.077  2.077  2.077  2.078  2.080 16.44192 16.47519 -7.19881 280.134
 4.30 5.40  2.287  2.287  2.287  2.288  2.289 16.63805 16.67874 -6.99535 351.112
 4.30 5.60  2.499  2.499  2.499  2.499  2.501 16.83374 16.88267 -6.79150 439.842
 4.30 5.80  2.710  2.710  2.710  2.711  2.712 17.02861 17.08728 -6.58694 550.448
 4.30 6.00  2.918  2.918  2.918  2.918  2.919 17.22246 17.29270 -6.38153 688.034
 4.30 6.25  3.167  3.167  3.167  3.168  3.168 17.46094 17.55219 -6.12198 905.439
 4.30 6.50  3.405  3.405  3.405  3.405  3.405 17.69452 17.81491 -5.859181184.863
 4.30 6.75  3.616  3.616  3.616  3.616  3.616 17.91976 18.08306 -5.591061535.557
 4.30 7.00  3.808  3.808  3.808  3.808  3.808 18.13609 18.35468 -5.319481969.733
 4.30 7.25  3.969  3.969  3.969  3.969  3.969 18.34049 18.63032 -5.043882492.562
 4.30 7.50  4.113  4.113  4.113  4.113  4.113 18.53479 18.90596 -4.768283117.686
 4.30 7.75  4.235  4.235  4.235  4.235  4.235 18.71980 19.18042 -4.493793857.796
 4.30 8.00  4.350  4.350  4.350  4.350  4.350 18.89526 19.45408 -4.220044721.092
 4.35-2.00 -0.466 -0.466 -0.466 -0.465 -0.464  9.22246  9.19507-14.47912   0.067
 4.35-1.50 -0.474 -0.474 -0.474 -0.473 -0.471  9.71767  9.69992-13.97429   0.117
 4.35-1.00 -0.481 -0.481 -0.481 -0.480 -0.478 10.21299 10.20466-13.46929   0.205
 4.35-0.50 -0.483 -0.483 -0.483 -0.481 -0.479 10.71037 10.70731-12.96658   0.362
 4.35 0.00 -0.479 -0.479 -0.478 -0.477 -0.474 11.20925 11.20844-12.46559   0.641
 4.35 0.50 -0.466 -0.466 -0.466 -0.464 -0.461 11.70893 11.70885-11.96537   1.138
 4.35 1.00 -0.442 -0.442 -0.442 -0.440 -0.437 12.20871 12.20898-11.46509   2.022
 4.35 1.25 -0.426 -0.425 -0.425 -0.423 -0.420 12.45868 12.45904-11.21503   2.696
 4.35 1.50 -0.405 -0.405 -0.404 -0.403 -0.399 12.70868 12.70910-10.96497   3.596
 4.35 1.75 -0.380 -0.379 -0.379 -0.377 -0.373 12.95869 12.95917-10.71490   4.795
 4.35 2.00 -0.346 -0.346 -0.345 -0.342 -0.338 13.20871 13.20925-10.46483   6.394
 4.35 2.25 -0.300 -0.299 -0.298 -0.295 -0.290 13.45861 13.45926-10.21490   8.525
 4.35 2.50 -0.238 -0.237 -0.236 -0.233 -0.226 13.70851 13.70927 -9.96497  11.367
 4.35 2.75 -0.155 -0.154 -0.153 -0.149 -0.142 13.95847 13.95939 -9.71478  15.157
 4.35 3.00 -0.049 -0.048 -0.046 -0.042 -0.034 14.20844 14.20951 -9.46458  20.211
 4.35 3.20  0.055  0.056  0.058  0.062  0.071 14.40826 14.40962 -9.26442  25.441
 4.35 3.40  0.178  0.179  0.181  0.186  0.195 14.60809 14.60972 -9.06425  32.024
 4.35 3.60  0.320  0.321  0.323  0.327  0.336 14.80792 14.80986 -8.86410  40.308
 4.35 3.80  0.479  0.480  0.481  0.485  0.494 15.00778 15.01006 -8.66396  50.735
 4.35 4.00  0.652  0.653  0.654  0.658  0.666 15.20763 15.21032 -8.46382  63.855
 4.35 4.20  0.838  0.839  0.840  0.843  0.850 15.40726 15.41065 -8.26344  80.356
 4.35 4.40  1.034  1.034  1.035  1.038  1.043 15.60671 15.61111 -8.06290 101.106
 4.35 4.60  1.236  1.236  1.237  1.239  1.244 15.80602 15.81176 -7.86223 127.188
 4.35 4.80  1.444  1.444  1.445  1.446  1.450 16.00508 16.01275 -7.66133 159.946
 4.35 5.00  1.654  1.654  1.654  1.656  1.658 16.20385 16.21405 -7.46017 201.070
 4.35 5.20  1.867  1.867  1.867  1.868  1.870 16.40204 16.41577 -7.25836 252.599
 4.35 5.40  2.080  2.080  2.080  2.081  2.083 16.59967 16.61797 -7.05603 317.131
 4.35 5.60  2.293  2.293  2.293  2.294  2.295 16.79672 16.82071 -6.85322 397.893
 4.35 5.80  2.507  2.507  2.507  2.508  2.509 16.99305 17.02410 -6.64985 498.824
 4.35 6.00  2.722  2.722  2.722  2.722  2.723 17.18865 17.22814 -6.44587 624.828
 4.35 6.25  2.990  2.990  2.990  2.990  2.991 17.43211 17.48405 -6.18998 826.958
 4.35 6.50  3.253  3.253  3.253  3.253  3.254 17.67367 17.74147 -5.932561092.035
 4.35 6.75  3.504  3.504  3.504  3.505  3.505 17.91184 18.00143 -5.672611436.462
 4.35 7.00  3.744  3.744  3.744  3.744  3.744 18.14551 18.26435 -5.409721879.761
 4.35 7.25  3.958  3.958  3.958  3.958  3.958 18.37130 18.53197 -5.142092437.900
 4.35 7.50  4.155  4.155  4.155  4.155  4.155 18.58894 18.80277 -4.871283132.352
 4.35 7.75  4.322  4.322  4.322  4.322  4.322 18.79634 19.07603 -4.598043977.244
 4.35 8.00  4.475  4.475  4.475  4.475  4.475 18.99419 19.35199 -4.322124994.742
 4.40-2.00 -0.457 -0.457 -0.457 -0.456 -0.455  9.17696  9.14019-14.53387   0.060
 4.40-1.50 -0.457 -0.457 -0.457 -0.456 -0.454  9.67633  9.64068-14.03344   0.107
 4.40-1.00 -0.458 -0.458 -0.457 -0.457 -0.455 10.17522 10.14208-13.53195   0.190
 4.40-0.50 -0.461 -0.461 -0.460 -0.459 -0.457 10.67201 10.64532-13.02877   0.335
 4.40 0.00 -0.465 -0.465 -0.464 -0.463 -0.460 11.16732 11.15045-12.52360   0.586
 4.40 0.50 -0.463 -0.463 -0.462 -0.460 -0.457 11.66266 11.65504-12.01904   1.027
 4.40 1.00 -0.446 -0.446 -0.445 -0.443 -0.439 12.16017 12.15776-11.51641   1.811
 4.40 1.25 -0.431 -0.431 -0.430 -0.428 -0.424 12.40957 12.40826-11.26587   2.409
 4.40 1.50 -0.411 -0.410 -0.410 -0.407 -0.403 12.65916 12.65858-11.01552   3.208
 4.40 1.75 -0.385 -0.385 -0.384 -0.382 -0.378 12.90885 12.90881-10.76530   4.275
 4.40 2.00 -0.354 -0.354 -0.353 -0.351 -0.347 13.15866 13.15897-10.51513   5.699
 4.40 2.25 -0.316 -0.316 -0.315 -0.313 -0.308 13.40862 13.40907-10.26500   7.599
 4.40 2.50 -0.267 -0.267 -0.266 -0.264 -0.259 13.65858 13.65915-10.01489  10.132
 4.40 2.75 -0.203 -0.203 -0.202 -0.199 -0.195 13.90847 13.90921 -9.76479  13.510
 4.40 3.00 -0.120 -0.120 -0.119 -0.116 -0.111 14.15836 14.15927 -9.51470  18.015
 4.40 3.20 -0.036 -0.035 -0.034 -0.031 -0.025 14.35830 14.35936 -9.31463  22.677
 4.40 3.40  0.065  0.065  0.066  0.070  0.076 14.55823 14.55948 -9.11456  28.546
 4.40 3.60  0.186  0.186  0.187  0.191  0.197 14.75817 14.75960 -8.91445  35.933
 4.40 3.80  0.326  0.326  0.328  0.331  0.338 14.95812 14.95973 -8.71429  45.232
 4.40 4.00  0.483  0.484  0.485  0.488  0.495 15.15806 15.15987 -8.51414  56.937
 4.40 4.20  0.657  0.658  0.659  0.662  0.668 15.35785 15.36002 -8.31399  71.665
 4.40 4.40  0.843  0.844  0.845  0.848  0.853 15.55759 15.56020 -8.11384  90.198
 4.40 4.60  1.039  1.040  1.040  1.043  1.048 15.75730 15.76045 -7.91364 113.519
 4.40 4.80  1.242  1.243  1.243  1.245  1.250 15.95696 15.96085 -7.71331 142.857
 4.40 5.00  1.450  1.451  1.451  1.453  1.456 16.15655 16.16137 -7.51286 179.758
 4.40 5.20  1.664  1.664  1.664  1.666  1.668 16.35591 16.36199 -7.31223 226.134
 4.40 5.40  1.880  1.880  1.880  1.881  1.883 16.55501 16.56283 -7.11135 284.389
 4.40 5.60  2.098  2.098  2.098  2.099  2.100 16.75381 16.76398 -6.91016 357.523
 4.40 5.80  2.317  2.317  2.317  2.318  2.319 16.95209 16.96569 -6.70847 449.201
 4.40 6.00  2.536  2.537  2.537  2.537  2.538 17.14983 17.16791 -6.50626 564.040
 4.40 6.25  2.812  2.812  2.812  2.812  2.813 17.39582 17.42168 -6.25245 748.696
 4.40 6.50  3.086  3.086  3.086  3.087  3.087 17.64038 17.67669 -5.99740 992.182
 4.40 6.75  3.358  3.358  3.358  3.358  3.359 17.88329 17.93316 -5.741001312.385
 4.40 7.00  3.622  3.622  3.622  3.622  3.622 18.12385 18.19145 -5.482801731.281
 4.40 7.25  3.871  3.871  3.871  3.871  3.871 18.36099 18.45210 -5.222142274.695
 4.40 7.50  4.108  4.108  4.108  4.108  4.108 18.59362 18.71559 -4.958612973.130
 4.40 7.75  4.320  4.320  4.320  4.320  4.320 18.81862 18.98303 -4.691143852.369
 4.40 8.00  4.517  4.517  4.517  4.517  4.517 19.03703 19.25406 -4.420104954.153
 4.45-2.00 -0.456 -0.456 -0.456 -0.455 -0.454  9.12710  9.08991-14.58419   0.054
 4.45-1.50 -0.456 -0.456 -0.455 -0.455 -0.453  9.62696  9.58995-14.08413   0.096
 4.45-1.00 -0.455 -0.455 -0.454 -0.453 -0.451 10.12711 10.09026-13.58403   0.171
 4.45-0.50 -0.453 -0.453 -0.453 -0.452 -0.449 10.62665 10.59028-13.08376   0.303
 4.45 0.00 -0.451 -0.451 -0.450 -0.449 -0.446 11.12613 11.09096-12.58303   0.538
 4.45 0.50 -0.447 -0.446 -0.446 -0.444 -0.441 11.62418 11.59306-12.08103   0.951
 4.45 1.00 -0.437 -0.436 -0.436 -0.434 -0.430 12.12024 12.09726-11.57692   1.669
 4.45 1.25 -0.427 -0.426 -0.426 -0.423 -0.419 12.36773 12.34988-11.32426   2.207
 4.45 1.50 -0.411 -0.411 -0.410 -0.407 -0.403 12.61521 12.60249-11.07160   2.919
 4.45 1.75 -0.389 -0.389 -0.388 -0.385 -0.380 12.86306 12.85471-10.81943   3.865
 4.45 2.00 -0.360 -0.359 -0.358 -0.356 -0.351 13.11126 13.10653-10.56767   5.124
 4.45 2.25 -0.323 -0.323 -0.322 -0.319 -0.314 13.36018 13.35754-10.31659   6.807
 4.45 2.50 -0.278 -0.278 -0.277 -0.274 -0.269 13.60949 13.60821-10.06586   9.054
 4.45 2.75 -0.223 -0.222 -0.222 -0.219 -0.214 13.85917 13.85860 -9.81542  12.056
 4.45 3.00 -0.154 -0.154 -0.153 -0.150 -0.145 14.10890 14.10890 -9.56511  16.063
 4.45 3.20 -0.085 -0.085 -0.084 -0.081 -0.076 14.30869 14.30912 -9.36495  20.217
 4.45 3.40 -0.002 -0.002 -0.001  0.001  0.006 14.50850 14.50931 -9.16481  25.447
 4.45 3.60  0.098  0.098  0.099  0.102  0.107 14.70838 14.70942 -8.96469  32.032
 4.45 3.80  0.218  0.219  0.219  0.222  0.227 14.90830 14.90950 -8.76458  40.321
 4.45 4.00  0.357  0.357  0.358  0.360  0.365 15.10823 15.10958 -8.56447  50.756
 4.45 4.20  0.515  0.516  0.516  0.519  0.524 15.30807 15.30974 -8.36434  63.888
 4.45 4.40  0.689  0.689  0.690  0.692  0.697 15.50788 15.50992 -8.16418  80.416
 4.45 4.60  0.875  0.875  0.876  0.878  0.882 15.70768 15.71012 -7.96399 101.218
 4.45 4.80  1.072  1.072  1.073  1.074  1.078 15.90746 15.91034 -7.76377 127.399
 4.45 5.00  1.275  1.275  1.276  1.277  1.281 16.10721 16.11059 -7.56352 160.347
 4.45 5.20  1.485  1.485  1.486  1.487  1.490 16.30693 16.31087 -7.36324 201.794
 4.45 5.40  1.699  1.699  1.699  1.700  1.702 16.50658 16.51121 -7.16289 253.924
 4.45 5.60  1.915  1.916  1.916  1.917  1.918 16.70612 16.71166 -6.96240 319.483
 4.45 5.80  2.135  2.135  2.135  2.136  2.137 16.90543 16.91235 -6.76166 401.882
 4.45 6.00  2.356  2.356  2.356  2.357  2.358 17.10449 17.11328 -6.56067 505.406
 4.45 6.25  2.636  2.636  2.636  2.636  2.637 17.35271 17.36501 -6.30897 672.591
 4.45 6.50  2.917  2.917  2.917  2.917  2.918 17.60010 17.61753 -6.05656 894.222
 4.45 6.75  3.199  3.199  3.199  3.199  3.200 17.84615 17.87129 -5.802871187.140
 4.45 7.00  3.479  3.479  3.479  3.479  3.480 18.09061 18.12646 -5.547751573.141
 4.45 7.25  3.752  3.752  3.752  3.752  3.752 18.33299 18.38336 -5.290812079.404
 4.45 7.50  4.013  4.013  4.013  4.014  4.014 18.57264 18.64237 -5.031752739.893
 4.45 7.75  4.256  4.256  4.256  4.256  4.256 18.80793 18.90426 -4.769883592.609
 4.45 8.00  4.487  4.487  4.487  4.487  4.487 19.03941 19.16879 -4.505434690.461
 4.50-2.00 -0.456 -0.456 -0.456 -0.455 -0.454  9.07700  9.03981-14.63414   0.048
 4.50-1.50 -0.455 -0.455 -0.455 -0.454 -0.452  9.57703  9.53995-14.13413   0.086
 4.50-1.00 -0.454 -0.454 -0.453 -0.452 -0.451 10.07700 10.03981-13.63414   0.152
 4.50-0.50 -0.452 -0.452 -0.452 -0.451 -0.449 10.57703 10.53995-13.13413   0.270
 4.50 0.00 -0.450 -0.450 -0.450 -0.449 -0.446 11.07700 11.04021-12.63395   0.481
 4.50 0.50 -0.446 -0.446 -0.445 -0.444 -0.441 11.57669 11.54020-12.13383   0.854
 4.50 1.00 -0.436 -0.436 -0.436 -0.434 -0.431 12.07628 12.04100-11.63320   1.517
 4.50 1.25 -0.427 -0.427 -0.426 -0.425 -0.421 12.32577 12.29151-11.38267   2.020
 4.50 1.50 -0.414 -0.413 -0.413 -0.411 -0.406 12.57496 12.54220-11.13189   2.686
 4.50 1.75 -0.393 -0.393 -0.392 -0.390 -0.385 12.82365 12.79373-10.88047   3.567
 4.50 2.00 -0.364 -0.364 -0.363 -0.360 -0.355 13.07188 13.04571-10.62856   4.729
 4.50 2.25 -0.326 -0.326 -0.325 -0.323 -0.317 13.31940 13.29822-10.37597   6.255
 4.50 2.50 -0.280 -0.280 -0.279 -0.276 -0.271 13.56691 13.55072-10.12338   8.273
 4.50 2.75 -0.226 -0.226 -0.225 -0.223 -0.217 13.81450 13.80312 -9.87094  10.946
 4.50 3.00 -0.163 -0.162 -0.161 -0.159 -0.153 14.06221 14.05538 -9.61870  14.489
 4.50 3.20 -0.103 -0.102 -0.101 -0.099 -0.093 14.26103 14.25662 -9.41747  18.164
 4.50 3.40 -0.031 -0.031 -0.030 -0.028 -0.022 14.46013 14.45760 -9.21650  22.792
 4.50 3.60  0.053  0.053  0.054  0.057  0.062 14.65955 14.65830 -9.01580  28.629
 4.50 3.80  0.155  0.155  0.156  0.158  0.163 14.85914 14.85882 -8.81529  35.988
 4.50 4.00  0.275  0.275  0.276  0.278  0.282 15.05881 15.05918 -8.61493  45.265
 4.50 4.20  0.415  0.416  0.416  0.418  0.422 15.25849 15.25938 -8.41472  56.966
 4.50 4.40  0.573  0.573  0.574  0.575  0.579 15.45823 15.45957 -8.21452  71.697
 4.50 4.60  0.746  0.747  0.747  0.749  0.752 15.65802 15.65980 -8.01430  90.242
 4.50 4.80  0.933  0.933  0.934  0.935  0.938 15.85784 15.86006 -7.81408 113.585
 4.50 5.00  1.129  1.129  1.129  1.130  1.133 16.05767 16.06032 -7.61386 142.966
 4.50 5.20  1.333  1.333  1.334  1.335  1.337 16.25744 16.26049 -7.41365 179.937
 4.50 5.40  1.543  1.543  1.543  1.544  1.546 16.45717 16.46066 -7.21344 226.457
 4.50 5.60  1.756  1.756  1.757  1.757  1.759 16.65688 16.66090 -7.01318 284.992
 4.50 5.80  1.974  1.974  1.974  1.974  1.976 16.85655 16.86131 -6.81277 358.631
 4.50 6.00  2.193  2.193  2.193  2.194  2.195 17.05614 17.06183 -6.61225 451.255
 4.50 6.25  2.471  2.471  2.471  2.471  2.472 17.30527 17.31262 -6.36146 601.174
 4.50 6.50  2.750  2.750  2.750  2.751  2.751 17.55400 17.56372 -6.11036 800.557
 4.50 6.75  3.035  3.035  3.035  3.035  3.036 17.80221 17.81554 -5.858551065.335
 4.50 7.00  3.322  3.322  3.322  3.322  3.322 18.04961 18.06819 -5.605901416.326
 4.50 7.25  3.607  3.607  3.607  3.607  3.607 18.29544 18.32203 -5.352061879.799
 4.50 7.50  3.887  3.887  3.887  3.888  3.888 18.53945 18.57738 -5.096692489.846
 4.50 7.75  4.155  4.155  4.155  4.155  4.155 18.78071 18.83507 -4.838933287.114
 4.50 8.00  4.408  4.408  4.408  4.408  4.408 19.01953 19.09482 -4.579054327.292
 4.55-2.00 -0.456 -0.456 -0.456 -0.455 -0.454  9.02694  8.98998-14.68403   0.043
 4.55-1.50 -0.456 -0.456 -0.455 -0.455 -0.453  9.52699  9.48996-14.18416   0.076
 4.55-1.00 -0.454 -0.454 -0.454 -0.453 -0.452 10.02694  9.98998-13.68403   0.136
 4.55-0.50 -0.453 -0.453 -0.452 -0.452 -0.449 10.52699 10.48996-13.18409   0.241
 4.55 0.00 -0.451 -0.450 -0.450 -0.449 -0.447 11.02694 10.99003-12.68403   0.429
 4.55 0.50 -0.447 -0.447 -0.447 -0.445 -0.442 11.52699 11.49010-12.18409   0.762
 4.55 1.00 -0.441 -0.441 -0.440 -0.439 -0.435 12.02694 11.99016-11.68403   1.355
 4.55 1.25 -0.435 -0.435 -0.435 -0.433 -0.429 12.27686 12.24020-11.43396   1.806
 4.55 1.50 -0.427 -0.426 -0.426 -0.424 -0.420 12.52673 12.49024-11.18383   2.408
 4.55 1.75 -0.413 -0.413 -0.412 -0.410 -0.406 12.77648 12.74046-10.93357   3.209
 4.55 2.00 -0.392 -0.391 -0.391 -0.389 -0.384 13.02612 12.99083-10.68319   4.276
 4.55 2.25 -0.360 -0.360 -0.359 -0.357 -0.352 13.27568 13.24133-10.43272   5.693
 4.55 2.50 -0.316 -0.315 -0.314 -0.312 -0.306 13.52505 13.49206-10.18204   7.574
 4.55 2.75 -0.256 -0.255 -0.254 -0.252 -0.246 13.77397 13.74337 -9.93078  10.061
 4.55 3.00 -0.181 -0.181 -0.180 -0.178 -0.172 14.02243 13.99515 -9.67902  13.346
 4.55 3.20 -0.113 -0.113 -0.112 -0.109 -0.104 14.22044 14.19710 -9.47698  16.696
 4.55 3.40 -0.038 -0.037 -0.037 -0.034 -0.029 14.41845 14.39909 -9.27495  20.886
 4.55 3.60  0.044  0.044  0.045  0.047  0.052 14.61649 14.60112 -9.07291  26.125
 4.55 3.80  0.136  0.137  0.137  0.140  0.144 14.81462 14.80315 -8.87092  32.677
 4.55 4.00  0.242  0.242  0.243  0.245  0.249 15.01284 15.00518 -8.66898  40.873
 4.55 4.20  0.364  0.364  0.364  0.366  0.371 15.21142 15.20658 -8.46760  51.211
 4.55 4.40  0.502  0.502  0.503  0.505  0.508 15.41024 15.40768 -8.26648  64.230
 4.55 4.60  0.658  0.658  0.659  0.660  0.664 15.60934 15.60845 -8.06565  80.661
 4.55 4.80  0.830  0.830  0.830  0.831  0.834 15.80867 15.80901 -7.86502 101.391
 4.55 5.00  1.013  1.013  1.013  1.014  1.017 16.00817 16.00945 -7.66454 127.523
 4.55 5.20  1.208  1.208  1.209  1.210  1.212 16.20785 16.20978 -7.46425 160.475
 4.55 5.40  1.410  1.410  1.411  1.411  1.413 16.40757 16.41011 -7.26395 201.948
 4.55 5.60  1.618  1.618  1.618  1.619  1.621 16.60734 16.61045 -7.06364 254.146
 4.55 5.80  1.831  1.831  1.831  1.832  1.833 16.80712 16.81079 -6.86331 319.838
 4.55 6.00  2.046  2.046  2.047  2.047  2.048 17.00690 17.01115 -6.66294 402.510
 4.55 6.25  2.320  2.320  2.321  2.321  2.322 17.25627 17.26166 -6.41242 536.421
 4.55 6.50  2.596  2.597  2.597  2.597  2.597 17.50542 17.51229 -6.16178 714.746
 4.55 6.75  2.875  2.875  2.875  2.875  2.876 17.75440 17.76321 -5.91086 952.081
 4.55 7.00  3.160  3.160  3.160  3.160  3.160 18.00303 18.01452 -5.659561267.669
 4.55 7.25  3.446  3.446  3.446  3.446  3.447 18.25099 18.26653 -5.407561686.427
 4.55 7.50  3.733  3.733  3.733  3.733  3.733 18.49804 18.51944 -5.154652241.035
 4.55 7.75  4.013  4.013  4.013  4.013  4.013 18.74324 18.77393 -4.900112971.954
 4.55 8.00  4.285  4.285  4.285  4.285  4.285 18.98691 19.02979 -4.644173934.445
 4.60-2.00 -0.455 -0.455 -0.455 -0.454 -0.452  8.97708  8.93997-14.73424   0.038
 4.60-1.50 -0.455 -0.455 -0.455 -0.454 -0.452  9.47698  9.43996-14.23418   0.068
 4.60-1.00 -0.454 -0.454 -0.454 -0.453 -0.451  9.97708  9.93997-13.73400   0.121
 4.60-0.50 -0.454 -0.453 -0.453 -0.453 -0.450 10.47698 10.43996-13.23411   0.215
 4.60 0.00 -0.452 -0.452 -0.452 -0.451 -0.449 10.97704 10.94002-12.73400   0.382
 4.60 0.50 -0.450 -0.449 -0.449 -0.448 -0.446 11.47698 11.43996-12.23411   0.679
 4.60 1.00 -0.445 -0.445 -0.444 -0.443 -0.440 11.97699 11.94007-11.73400   1.208
 4.60 1.25 -0.441 -0.441 -0.440 -0.439 -0.436 12.22691 12.19009-11.48402   1.610
 4.60 1.50 -0.435 -0.435 -0.435 -0.433 -0.429 12.47683 12.44012-11.23403   2.147
 4.60 1.75 -0.427 -0.427 -0.426 -0.424 -0.420 12.72684 12.69016-10.98390   2.863
 4.60 2.00 -0.414 -0.414 -0.413 -0.411 -0.406 12.97685 12.94022-10.73377   3.817
 4.60 2.25 -0.394 -0.394 -0.393 -0.391 -0.386 13.22671 13.19031-10.48372   5.089
 4.60 2.50 -0.363 -0.363 -0.362 -0.360 -0.354 13.47654 13.44044-10.23366   6.783
 4.60 2.75 -0.319 -0.318 -0.318 -0.315 -0.309 13.72637 13.69065 -9.98344   9.040
 4.60 3.00 -0.257 -0.257 -0.256 -0.253 -0.247 13.97617 13.94097 -9.73306  12.044
 4.60 3.20 -0.193 -0.193 -0.192 -0.189 -0.182 14.17577 14.14137 -9.53266  15.143
 4.60 3.40 -0.115 -0.115 -0.114 -0.111 -0.105 14.37517 14.34196 -9.33208  19.029
 4.60 3.60 -0.023 -0.023 -0.022 -0.019 -0.013 14.57435 14.54283 -9.13121  23.893
 4.60 3.80  0.082  0.083  0.083  0.086  0.091 14.77323 14.74407 -8.92995  29.969
 4.60 4.00  0.200  0.201  0.201  0.203  0.208 14.97183 14.94562 -8.72839  37.555
 4.60 4.20  0.329  0.330  0.330  0.332  0.336 15.16985 15.14772 -8.52635  46.970
 4.60 4.40  0.467  0.468  0.468  0.470  0.473 15.36786 15.34982 -8.32432  58.745
 4.60 4.60  0.614  0.615  0.615  0.617  0.620 15.56588 15.55189 -8.12228  73.473
 4.60 4.80  0.771  0.772  0.772  0.773  0.776 15.76394 15.75389 -7.92027  91.898
 4.60 5.00  0.938  0.938  0.939  0.940  0.942 15.96204 15.95578 -7.71829 114.952
 4.60 5.20  1.117  1.117  1.117  1.118  1.120 16.16067 16.15711 -7.51693 144.013
 4.60 5.40  1.304  1.304  1.305  1.305  1.307 16.35955 16.35819 -7.31584 180.621
 4.60 5.60  1.500  1.500  1.500  1.501  1.502 16.55874 16.55902 -7.11500 226.930
 4.60 5.80  1.704  1.704  1.704  1.704  1.706 16.75811 16.75970 -6.91432 285.424
 4.60 6.00  1.911  1.911  1.911  1.912  1.913 16.95756 16.96028 -6.71377 359.076
 4.60 6.25  2.178  2.178  2.178  2.178  2.179 17.20696 17.21089 -6.46323 478.499
 4.60 6.50  2.447  2.447  2.447  2.448  2.448 17.45637 17.46150 -6.21268 637.640
 4.60 6.75  2.716  2.716  2.716  2.716  2.716 17.70566 17.71219 -5.96197 849.626
 4.60 7.00  2.994  2.994  2.994  2.994  2.994 17.95482 17.96299 -5.711081131.930
 4.60 7.25  3.274  3.274  3.274  3.275  3.275 18.20362 18.21411 -5.459941507.356
 4.60 7.50  3.557  3.557  3.557  3.557  3.557 18.45194 18.46568 -5.208382006.180
 4.60 7.75  3.837  3.837  3.837  3.837  3.837 18.69930 18.71824 -4.955822667.181
 4.60 8.00  4.113  4.113  4.113  4.113  4.114 18.94586 18.97160 -4.702463542.748
 4.65-2.00 -0.455 -0.454 -0.454 -0.453 -0.451  8.92706  8.88997-14.78410   0.034
 4.65-1.50 -0.454 -0.454 -0.454 -0.453 -0.451  9.42700  9.38987-14.28416   0.061
 4.65-1.00 -0.453 -0.453 -0.453 -0.452 -0.450  9.92706  9.88997-13.78410   0.108
 4.65-0.50 -0.453 -0.453 -0.452 -0.452 -0.449 10.42700 10.38988-13.28416   0.191
 4.65 0.00 -0.452 -0.452 -0.452 -0.451 -0.448 10.92706 10.89003-12.78410   0.340
 4.65 0.50 -0.451 -0.451 -0.450 -0.449 -0.447 11.42700 11.39005-12.28408   0.605
 4.65 1.00 -0.448 -0.448 -0.448 -0.447 -0.444 11.92701 11.89003-11.78410   1.076
 4.65 1.25 -0.446 -0.446 -0.445 -0.444 -0.441 12.17701 12.14003-11.53410   1.435
 4.65 1.50 -0.442 -0.442 -0.442 -0.441 -0.437 12.42700 12.39005-11.28408   1.914
 4.65 1.75 -0.437 -0.437 -0.437 -0.435 -0.432 12.67695 12.64010-11.03396   2.552
 4.65 2.00 -0.429 -0.429 -0.429 -0.427 -0.423 12.92691 12.89014-10.78383   3.403
 4.65 2.25 -0.417 -0.417 -0.416 -0.414 -0.410 13.17687 13.14019-10.53387   4.537
 4.65 2.50 -0.398 -0.397 -0.397 -0.395 -0.390 13.42684 13.39023-10.28391   6.050
 4.65 2.75 -0.368 -0.368 -0.367 -0.365 -0.359 13.67678 13.64029-10.03390   8.066
 4.65 3.00 -0.325 -0.325 -0.324 -0.321 -0.315 13.92670 13.89037 -9.78383  10.754
 4.65 3.20 -0.278 -0.278 -0.277 -0.274 -0.267 14.12659 14.09044 -9.58374  13.534
 4.65 3.40 -0.218 -0.217 -0.216 -0.213 -0.206 14.32644 14.29053 -9.38359  17.032
 4.65 3.60 -0.142 -0.142 -0.141 -0.138 -0.130 14.52626 14.49069 -9.18340  21.430
 4.65 3.80 -0.051 -0.050 -0.049 -0.046 -0.038 14.72605 14.69100 -8.98313  26.958
 4.65 4.00  0.057  0.058  0.059  0.062  0.070 14.92578 14.89143 -8.78278  33.902
 4.65 4.20  0.185  0.185  0.186  0.189  0.197 15.12526 15.09199 -8.58221  42.609
 4.65 4.40  0.330  0.330  0.331  0.334  0.340 15.32452 15.29276 -8.38141  53.514
 4.65 4.60  0.491  0.491  0.492  0.494  0.499 15.52348 15.49385 -8.18028  67.146
 4.65 4.80  0.663  0.663  0.664  0.665  0.670 15.72210 15.69532 -7.97879  84.154
 4.65 5.00  0.842  0.842  0.842  0.844  0.847 15.92044 15.89708 -7.77702 105.369
 4.65 5.20  1.025  1.025  1.026  1.027  1.029 16.11832 16.09929 -7.57484 131.723
 4.65 5.40  1.210  1.210  1.210  1.211  1.213 16.31620 16.30150 -7.37266 164.668
 4.65 5.60  1.397  1.397  1.397  1.398  1.400 16.51414 16.50363 -7.17052 205.884
 4.65 5.80  1.588  1.588  1.588  1.589  1.590 16.71228 16.70554 -6.96856 257.562
 4.65 6.00  1.783  1.783  1.783  1.783  1.784 16.91057 16.90725 -6.76675 322.386
 4.65 6.25  2.034  2.034  2.034  2.035  2.035 17.15898 17.15874 -6.51533 428.067
 4.65 6.50  2.291  2.291  2.292  2.292  2.292 17.40773 17.40993 -6.26416 569.277
 4.65 6.75  2.549  2.549  2.549  2.549  2.550 17.65687 17.66087 -6.01318 758.359
 4.65 7.00  2.812  2.812  2.812  2.812  2.813 17.90601 17.91180 -5.762211010.243
 4.65 7.25  3.083  3.083  3.083  3.083  3.083 18.15500 18.16277 -5.511241345.637
 4.65 7.50  3.355  3.355  3.355  3.355  3.356 18.40381 18.41380 -5.260271792.101
 4.65 7.75  3.628  3.628  3.628  3.628  3.628 18.65220 18.66542 -5.008702385.329
 4.65 8.00  3.899  3.899  3.899  3.899  3.899 18.90026 18.91745 -4.756713173.551
 4.70-2.00 -0.454 -0.454 -0.454 -0.453 -0.450  8.87708  8.83998-14.83416   0.030
 4.70-1.50 -0.453 -0.453 -0.453 -0.452 -0.450  9.37712  9.33985-14.33414   0.054
 4.70-1.00 -0.453 -0.453 -0.452 -0.451 -0.449  9.87708  9.83998-13.83416   0.096
 4.70-0.50 -0.452 -0.452 -0.452 -0.451 -0.448 10.37694 10.34005-13.33414   0.171
 4.70 0.00 -0.451 -0.451 -0.451 -0.450 -0.447 10.87703 10.83998-12.83416   0.303
 4.70 0.50 -0.450 -0.450 -0.449 -0.448 -0.445 11.37694 11.34005-12.33414   0.539
 4.70 1.00 -0.448 -0.448 -0.447 -0.446 -0.443 11.87703 11.84004-11.83416   0.959
 4.70 1.25 -0.447 -0.446 -0.446 -0.445 -0.442 12.12698 12.09004-11.58411   1.279
 4.70 1.50 -0.445 -0.445 -0.444 -0.443 -0.440 12.37694 12.34005-11.33404   1.706
 4.70 1.75 -0.442 -0.442 -0.441 -0.440 -0.437 12.62696 12.59008-11.08396   2.275
 4.70 2.00 -0.437 -0.437 -0.437 -0.436 -0.432 12.87697 12.84011-10.83387   3.033
 4.70 2.25 -0.430 -0.430 -0.430 -0.429 -0.425 13.12696 13.09008-10.58391   4.044
 4.70 2.50 -0.420 -0.419 -0.419 -0.417 -0.413 13.37694 13.34005-10.33395   5.392
 4.70 2.75 -0.402 -0.402 -0.401 -0.400 -0.395 13.62690 13.59014-10.08391   7.190
 4.70 3.00 -0.375 -0.375 -0.374 -0.372 -0.367 13.87685 13.84023 -9.83387   9.587
 4.70 3.20 -0.344 -0.344 -0.343 -0.341 -0.335 14.07682 14.04024 -9.63383  12.068
 4.70 3.40 -0.302 -0.301 -0.301 -0.298 -0.292 14.27678 14.24024 -9.43379  15.190
 4.70 3.60 -0.246 -0.246 -0.245 -0.242 -0.235 14.47672 14.44031 -9.23374  19.120
 4.70 3.80 -0.176 -0.176 -0.175 -0.172 -0.164 14.67663 14.64045 -9.03366  24.064
 4.70 4.00 -0.090 -0.089 -0.088 -0.085 -0.076 14.87651 14.84061 -8.83357  30.286
 4.70 4.20  0.013  0.014  0.015  0.019  0.028 15.07635 15.04076 -8.63340  38.111
 4.70 4.40  0.136  0.136  0.137  0.141  0.150 15.27615 15.24094 -8.43316  47.950
 4.70 4.60  0.276  0.277  0.278  0.281  0.290 15.47589 15.44120 -8.23284  60.315
 4.70 4.80  0.434  0.434  0.436  0.439  0.447 15.67551 15.64164 -8.03239  75.839
 4.70 5.00  0.607  0.607  0.608  0.611  0.618 15.87500 15.84223 -7.83180  95.316
 4.70 5.20  0.793  0.794  0.795  0.797  0.803 16.07423 16.04305 -7.63099 119.691
 4.70 5.40  0.989  0.990  0.990  0.992  0.997 16.27317 16.24414 -7.42992 150.164
 4.70 5.60  1.192  1.192  1.192  1.194  1.197 16.47172 16.44570 -7.22843 188.158
 4.70 5.80  1.396  1.397  1.397  1.398  1.401 16.66993 16.64764 -7.02656 235.499
 4.70 6.00  1.601  1.601  1.601  1.602  1.604 16.86794 16.84973 -6.82449 294.540
 4.70 6.25  1.855  1.855  1.855  1.855  1.857 17.11521 17.10249 -6.57167 389.194
 4.70 6.50  2.107  2.107  2.108  2.108  2.109 17.36248 17.35526 -6.31885 514.267
 4.70 6.75  2.360  2.360  2.361  2.361  2.361 17.61028 17.60753 -6.06662 680.810
 4.70 7.00  2.599  2.599  2.599  2.599  2.600 17.85842 17.85944 -5.81474 902.865
 4.70 7.25  2.858  2.858  2.858  2.858  2.858 18.10703 18.11077 -5.563341202.050
 4.70 7.50  3.119  3.119  3.119  3.119  3.119 18.35564 18.36211 -5.311941600.377
 4.70 7.75  3.380  3.380  3.380  3.381  3.381 18.60423 18.61352 -5.060532130.658
 4.70 8.00  3.642  3.642  3.642  3.642  3.642 18.85279 18.86498 -4.809112836.613
 4.75-2.00 -0.454 -0.454 -0.454 -0.453 -0.450  8.82711  8.78993-14.88406   0.027
 4.75-1.50 -0.453 -0.453 -0.453 -0.452 -0.450  9.32695  9.29004-14.38416   0.048
 4.75-1.00 -0.453 -0.453 -0.452 -0.451 -0.449  9.82705  9.79000-13.88406   0.086
 4.75-0.50 -0.452 -0.452 -0.451 -0.450 -0.448 10.32695 10.29003-13.38416   0.152
 4.75 0.00 -0.451 -0.451 -0.450 -0.449 -0.446 10.82705 10.79000-12.88406   0.270
 4.75 0.50 -0.449 -0.449 -0.449 -0.448 -0.445 11.32695 11.29004-12.38416   0.481
 4.75 1.00 -0.447 -0.447 -0.447 -0.446 -0.442 11.82705 11.79000-11.88406   0.855
 4.75 1.25 -0.446 -0.446 -0.445 -0.444 -0.441 12.07700 12.04002-11.63405   1.140
 4.75 1.50 -0.444 -0.444 -0.444 -0.442 -0.439 12.32695 12.29004-11.38405   1.520
 4.75 1.75 -0.442 -0.442 -0.441 -0.440 -0.437 12.57697 12.54006-11.13405   2.027
 4.75 2.00 -0.439 -0.439 -0.438 -0.437 -0.434 12.82698 12.79007-10.88406   2.703
 4.75 2.25 -0.435 -0.435 -0.434 -0.433 -0.429 13.07697 13.04005-10.63402   3.604
 4.75 2.50 -0.429 -0.429 -0.428 -0.427 -0.423 13.32695 13.29003-10.38394   4.806
 4.75 2.75 -0.419 -0.419 -0.418 -0.417 -0.413 13.57690 13.54012-10.13383   6.409
 4.75 3.00 -0.403 -0.403 -0.403 -0.401 -0.397 13.82685 13.79022 -9.88372   8.546
 4.75 3.20 -0.385 -0.384 -0.384 -0.382 -0.378 14.02681 13.99023 -9.68377  10.757
 4.75 3.40 -0.359 -0.358 -0.358 -0.356 -0.351 14.22677 14.19025 -9.48382  13.541
 4.75 3.60 -0.323 -0.322 -0.322 -0.320 -0.314 14.42673 14.39028 -9.28383  17.045
 4.75 3.80 -0.274 -0.274 -0.273 -0.271 -0.265 14.62669 14.59035 -9.08379  21.455
 4.75 4.00 -0.212 -0.212 -0.211 -0.208 -0.202 14.82666 14.79043 -8.88373  27.007
 4.75 4.20 -0.133 -0.133 -0.132 -0.129 -0.121 15.02653 14.99053 -8.68366  33.993
 4.75 4.40 -0.037 -0.037 -0.036 -0.032 -0.024 15.22640 15.19065 -8.48357  42.782
 4.75 4.60  0.076  0.076  0.077  0.081  0.090 15.42630 15.39076 -8.28345  53.842
 4.75 4.80  0.208  0.208  0.209  0.213  0.222 15.62622 15.59087 -8.08328  67.755
 4.75 5.00  0.356  0.357  0.358  0.362  0.371 15.82614 15.79099 -7.88306  85.254
 4.75 5.20  0.520  0.521  0.522  0.525  0.534 16.02590 15.99123 -7.68280 107.245
 4.75 5.40  0.697  0.697  0.698  0.702  0.709 16.22554 16.19159 -7.48247 134.867
 4.75 5.60  0.885  0.886  0.886  0.889  0.896 16.42506 16.39209 -7.28201 169.538
 4.75 5.80  1.083  1.083  1.084  1.086  1.091 16.62440 16.59282 -7.08133 212.980
 4.75 6.00  1.288  1.288  1.288  1.290  1.294 16.82354 16.79379 -6.88041 267.369
 4.75 6.25  1.551  1.551  1.552  1.553  1.556 17.07187 17.04554 -6.62861 354.638
 4.75 6.50  1.820  1.820  1.820  1.821  1.823 17.31973 17.29776 -6.37634 469.652
 4.75 6.75  2.087  2.087  2.087  2.088  2.089 17.56699 17.55064 -6.12349 620.558
 4.75 7.00  2.338  2.338  2.338  2.339  2.340 17.81425 17.80353 -5.87063 819.951
 4.75 7.25  2.597  2.597  2.597  2.597  2.598 18.06157 18.05625 -5.617901083.602
 4.75 7.50  2.854  2.854  2.854  2.854  2.855 18.30899 18.30878 -5.365321432.482
 4.75 7.75  3.109  3.109  3.109  3.109  3.110 18.55692 18.56086 -5.113181902.624
 4.75 8.00  3.363  3.363  3.363  3.363  3.363 18.80523 18.81258 -4.861382535.275
 4.80-2.00 -0.454 -0.454 -0.454 -0.453 -0.451  8.77706  8.73997-14.93405   0.024
 4.80-1.50 -0.454 -0.454 -0.453 -0.452 -0.450  9.27715  9.24005-14.43415   0.043
 4.80-1.00 -0.453 -0.453 -0.453 -0.452 -0.449  9.77706  9.73997-13.93405   0.076
 4.80-0.50 -0.452 -0.452 -0.452 -0.451 -0.448 10.27692 10.24005-13.43415   0.136
 4.80 0.00 -0.451 -0.451 -0.451 -0.450 -0.447 10.77706 10.73997-12.93405   0.241
 4.80 0.50 -0.450 -0.450 -0.449 -0.448 -0.445 11.27692 11.24005-12.43415   0.429
 4.80 1.00 -0.448 -0.448 -0.447 -0.446 -0.443 11.77706 11.74005-11.93405   0.762
 4.80 1.25 -0.447 -0.446 -0.446 -0.445 -0.442 12.02699 11.99005-11.68404   1.016
 4.80 1.50 -0.445 -0.445 -0.444 -0.443 -0.440 12.27692 12.24005-11.43403   1.355
 4.80 1.75 -0.442 -0.442 -0.442 -0.441 -0.437 12.52696 12.49005-11.18404   1.807
 4.80 2.00 -0.439 -0.439 -0.439 -0.438 -0.434 12.77699 12.74005-10.93405   2.409
 4.80 2.25 -0.436 -0.435 -0.435 -0.434 -0.430 13.02696 12.99005-10.68404   3.212
 4.80 2.50 -0.431 -0.430 -0.430 -0.429 -0.425 13.27692 13.24005-10.43403   4.284
 4.80 2.75 -0.424 -0.424 -0.423 -0.422 -0.418 13.52692 13.49013-10.18404   5.712
 4.80 3.00 -0.414 -0.414 -0.414 -0.412 -0.408 13.77692 13.74020 -9.93405   7.617
 4.80 3.20 -0.403 -0.403 -0.402 -0.401 -0.396 13.97683 13.94025 -9.73401   9.588
 4.80 3.40 -0.387 -0.387 -0.387 -0.385 -0.380 14.17674 14.14028 -9.53395  12.070
 4.80 3.60 -0.365 -0.365 -0.365 -0.363 -0.358 14.37669 14.34031 -9.33387  15.194
 4.80 3.80 -0.335 -0.335 -0.334 -0.332 -0.327 14.57670 14.54034 -9.13377  19.126
 4.80 4.00 -0.294 -0.294 -0.293 -0.291 -0.286 14.77670 14.74036 -8.93367  24.075
 4.80 4.20 -0.240 -0.239 -0.239 -0.237 -0.231 14.97661 14.94044 -8.73368  30.304
 4.80 4.40 -0.171 -0.170 -0.170 -0.167 -0.161 15.17651 15.14051 -8.53368  38.143
 4.80 4.60 -0.085 -0.085 -0.084 -0.081 -0.074 15.37645 15.34058 -8.33361  48.008
 4.80 4.80  0.017  0.018  0.019  0.022  0.029 15.57643 15.54063 -8.13345  60.425
 4.80 5.00  0.138  0.139  0.140  0.143  0.151 15.77641 15.74068 -7.93330  76.050
 4.80 5.20  0.277  0.278  0.279  0.282  0.290 15.97628 15.94079 -7.73322  95.706
 4.80 5.40  0.432  0.432  0.433  0.436  0.445 16.17611 16.14095 -7.53313 120.429
 4.80 5.60  0.600  0.601  0.602  0.605  0.612 16.37591 16.34116 -7.33296 151.523
 4.80 5.80  0.780  0.781  0.781  0.784  0.791 16.57568 16.54143 -7.13262 190.607
 4.80 6.00  0.970  0.970  0.971  0.973  0.979 16.77539 16.74178 -6.93219 239.718
 4.80 6.25  1.216  1.216  1.217  1.219  1.224 17.02480 16.99240 -6.68157 319.047
 4.80 6.50  1.471  1.471  1.471  1.473  1.476 17.27393 17.24329 -6.43074 424.242
 4.80 6.75  1.735  1.735  1.735  1.736  1.739 17.52256 17.49478 -6.17932 563.276
 4.80 7.00  2.003  2.003  2.003  2.004  2.006 17.77071 17.74679 -5.92738 746.702
 4.80 7.25  2.268  2.268  2.268  2.268  2.270 18.01808 17.99950 -5.67470 987.437
 4.80 7.50  2.537  2.537  2.537  2.538  2.539 18.26529 18.25237 -5.421821304.616
 4.80 7.75  2.800  2.800  2.800  2.800  2.801 18.51245 18.50529 -5.168861722.921
 4.80 8.00  3.058  3.058  3.058  3.058  3.058 18.75952 18.75831 -4.915782274.005
 4.85-2.00 -0.454 -0.454 -0.454 -0.453 -0.451  8.72705  8.68993-14.98422   0.021
 4.85-1.50 -0.454 -0.454 -0.453 -0.452 -0.450  9.22712  9.19005-14.48413   0.038
 4.85-1.00 -0.453 -0.453 -0.453 -0.452 -0.450  9.72705  9.68993-13.98422   0.068
 4.85-0.50 -0.452 -0.452 -0.452 -0.451 -0.449 10.22712 10.19005-13.48413   0.121
 4.85 0.00 -0.452 -0.451 -0.451 -0.450 -0.448 10.72705 10.69002-12.98422   0.215
 4.85 0.50 -0.451 -0.451 -0.450 -0.449 -0.447 11.22711 11.19005-12.48413   0.382
 4.85 1.00 -0.449 -0.449 -0.449 -0.448 -0.445 11.72705 11.69002-11.98422   0.679
 4.85 1.25 -0.448 -0.448 -0.448 -0.447 -0.444 11.97696 11.94003-11.73417   0.906
 4.85 1.50 -0.447 -0.447 -0.446 -0.445 -0.442 12.22686 12.19005-11.48413   1.208
 4.85 1.75 -0.445 -0.445 -0.445 -0.443 -0.440 12.47691 12.44004-11.23417   1.611
 4.85 2.00 -0.443 -0.442 -0.442 -0.441 -0.437 12.72697 12.69002-10.98422   2.148
 4.85 2.25 -0.439 -0.439 -0.439 -0.437 -0.434 12.97692 12.94003-10.73411   2.864
 4.85 2.50 -0.434 -0.434 -0.434 -0.432 -0.429 13.22686 13.19005-10.48399   3.818
 4.85 2.75 -0.428 -0.428 -0.427 -0.426 -0.422 13.47687 13.44008-10.23389   5.091
 4.85 3.00 -0.419 -0.419 -0.418 -0.417 -0.413 13.72689 13.69011 -9.98380   6.789
 4.85 3.20 -0.410 -0.410 -0.410 -0.408 -0.404 13.92688 13.89009 -9.78383   8.546
 4.85 3.40 -0.399 -0.399 -0.398 -0.397 -0.392 14.12687 14.09006 -9.58385  10.758
 4.85 3.60 -0.384 -0.384 -0.384 -0.382 -0.377 14.32685 14.29010 -9.38385  13.542
 4.85 3.80 -0.364 -0.364 -0.364 -0.362 -0.357 14.52683 14.49019 -9.18383  17.048
 4.85 4.00 -0.338 -0.338 -0.337 -0.335 -0.330 14.72681 14.69028 -8.98380  21.460
 4.85 4.20 -0.302 -0.302 -0.301 -0.299 -0.294 14.92673 14.89030 -8.78378  27.013
 4.85 4.40 -0.255 -0.255 -0.254 -0.252 -0.246 15.12664 15.09032 -8.58375  34.001
 4.85 4.60 -0.194 -0.194 -0.194 -0.191 -0.185 15.32658 15.29036 -8.38366  42.798
 4.85 4.80 -0.119 -0.118 -0.118 -0.115 -0.109 15.52653 15.49045 -8.18352  53.870
 4.85 5.00 -0.027 -0.026 -0.026 -0.023 -0.016 15.72648 15.69055 -7.98339  67.805
 4.85 5.20  0.083  0.083  0.084  0.087  0.094 15.92643 15.89068 -7.78336  85.339
 4.85 5.40  0.211  0.211  0.212  0.215  0.222 16.12637 16.09082 -7.58334 107.401
 4.85 5.60  0.356  0.357  0.357  0.360  0.367 16.32627 16.29096 -7.38329 135.161
 4.85 5.80  0.517  0.518  0.518  0.521  0.527 16.52611 16.49111 -7.18316 170.087
 4.85 6.00  0.691  0.691  0.692  0.694  0.700 16.72591 16.69126 -6.98297 214.020
 4.85 6.25  0.922  0.922  0.923  0.925  0.930 16.97565 16.94157 -6.73261 285.146
 4.85 6.50  1.162  1.162  1.162  1.164  1.168 17.22531 17.19201 -6.48214 379.774
 4.85 6.75  1.410  1.410  1.411  1.412  1.416 17.47476 17.44258 -6.23160 505.533
 4.85 7.00  1.668  1.668  1.668  1.669  1.672 17.72395 17.69337 -5.98089 672.420
 4.85 7.25  1.925  1.925  1.925  1.926  1.928 17.97264 17.94467 -5.72955 893.139
 4.85 7.50  2.191  2.191  2.191  2.191  2.193 18.22089 18.19645 -5.477691184.507
 4.85 7.75  2.456  2.456  2.456  2.457  2.458 18.46865 18.44885 -5.225251567.716
 4.85 8.00  2.723  2.723  2.723  2.723  2.724 18.71592 18.70183 -4.972242071.024
 4.90-2.00 -0.454 -0.454 -0.454 -0.453 -0.451  8.67706  8.63998-15.03414   0.019
 4.90-1.50 -0.454 -0.454 -0.453 -0.453 -0.451  9.17696  9.13988-14.53417   0.034
 4.90-1.00 -0.453 -0.453 -0.453 -0.452 -0.450  9.67706  9.63998-14.03414   0.061
 4.90-0.50 -0.452 -0.452 -0.452 -0.451 -0.449 10.17696 10.13988-13.53417   0.108
 4.90 0.00 -0.451 -0.451 -0.451 -0.450 -0.448 10.67706 10.63999-13.03409   0.191
 4.90 0.50 -0.450 -0.450 -0.450 -0.449 -0.447 11.17696 11.13988-12.53417   0.340
 4.90 1.00 -0.449 -0.449 -0.449 -0.448 -0.445 11.67706 11.63998-12.03409   0.605
 4.90 1.25 -0.449 -0.448 -0.448 -0.447 -0.444 11.92701 11.88993-11.78413   0.807
 4.90 1.50 -0.448 -0.448 -0.447 -0.446 -0.443 12.17696 12.13988-11.53417   1.076
 4.90 1.75 -0.447 -0.446 -0.446 -0.445 -0.442 12.42696 12.38998-11.28411   1.435
 4.90 2.00 -0.445 -0.445 -0.445 -0.444 -0.441 12.67697 12.64008-11.03405   1.914
 4.90 2.25 -0.443 -0.443 -0.442 -0.441 -0.438 12.92696 12.89016-10.78403   2.552
 4.90 2.50 -0.440 -0.439 -0.439 -0.438 -0.435 13.17696 13.14019-10.53402   3.403
 4.90 2.75 -0.435 -0.434 -0.434 -0.433 -0.429 13.42696 13.39014-10.28399   4.538
 4.90 3.00 -0.428 -0.427 -0.427 -0.426 -0.422 13.67697 13.64008-10.03395   6.051
 4.90 3.20 -0.420 -0.420 -0.419 -0.418 -0.414 13.87697 13.84013 -9.83392   7.617
 4.90 3.40 -0.410 -0.410 -0.409 -0.408 -0.404 14.07696 14.04017 -9.63389   9.589
 4.90 3.60 -0.397 -0.397 -0.396 -0.395 -0.391 14.27692 14.24021 -9.43386  12.071
 4.90 3.80 -0.381 -0.381 -0.380 -0.379 -0.374 14.47686 14.44025 -9.23384  15.196
 4.90 4.00 -0.361 -0.360 -0.360 -0.358 -0.354 14.67679 14.64028 -9.03381  19.128
 4.90 4.20 -0.335 -0.334 -0.334 -0.332 -0.327 14.87673 14.84025 -8.83378  24.078
 4.90 4.40 -0.301 -0.301 -0.300 -0.298 -0.293 15.07669 15.04021 -8.63375  30.308
 4.90 4.60 -0.258 -0.258 -0.257 -0.255 -0.250 15.27666 15.24024 -8.43370  38.151
 4.90 4.80 -0.203 -0.203 -0.202 -0.200 -0.195 15.47663 15.44036 -8.23364  48.022
 4.90 5.00 -0.135 -0.135 -0.134 -0.132 -0.126 15.67660 15.64048 -8.03358  60.446
 4.90 5.20 -0.051 -0.051 -0.050 -0.048 -0.042 15.87652 15.84062 -7.83352  76.079
 4.90 5.40  0.049  0.049  0.050  0.052  0.058 16.07643 16.04075 -7.63346  95.754
 4.90 5.60  0.168  0.168  0.168  0.171  0.177 16.27634 16.24085 -7.43338 120.513
 4.90 5.80  0.305  0.305  0.306  0.308  0.314 16.47624 16.44092 -7.23325 151.671
 4.90 6.00  0.458  0.458  0.459  0.461  0.466 16.67615 16.64098 -7.03311 190.878
 4.90 6.25  0.671  0.671  0.671  0.673  0.678 16.92599 16.89118 -6.78292 254.394
 4.90 6.50  0.900  0.900  0.900  0.902  0.906 17.17580 17.14145 -6.53269 338.988
 4.90 6.75  1.132  1.132  1.132  1.133  1.137 17.42548 17.39176 -6.28237 451.625
 4.90 7.00  1.381  1.381  1.381  1.382  1.385 17.67505 17.64217 -6.03194 601.497
 4.90 7.25  1.631  1.631  1.632  1.632  1.635 17.92451 17.89278 -5.78133 800.621
 4.90 7.50  1.888  1.888  1.888  1.888  1.890 18.17377 18.14364 -5.530471064.838
 4.90 7.75  2.144  2.144  2.144  2.144  2.146 18.42250 18.39497 -5.279151414.277
 4.90 8.00  2.405  2.405  2.405  2.405  2.406 18.67080 18.64670 -5.027431876.158
 4.95-2.00 -0.455 -0.455 -0.454 -0.454 -0.452  8.62706  8.58995-15.08413   0.017
 4.95-1.50 -0.454 -0.454 -0.454 -0.454 -0.452  9.12710  9.08991-14.58419   0.030
 4.95-1.00 -0.454 -0.454 -0.454 -0.453 -0.451  9.62706  9.58995-14.08413   0.054
 4.95-0.50 -0.453 -0.453 -0.453 -0.452 -0.450 10.12711 10.08990-13.58419   0.096
 4.95 0.00 -0.452 -0.452 -0.452 -0.451 -0.449 10.62706 10.58995-13.08413   0.171
 4.95 0.50 -0.451 -0.451 -0.450 -0.449 -0.447 11.12710 11.08991-12.58419   0.303
 4.95 1.00 -0.449 -0.449 -0.449 -0.448 -0.446 11.62706 11.58995-12.08407   0.540
 4.95 1.25 -0.449 -0.448 -0.448 -0.447 -0.445 11.87708 11.83993-11.83413   0.720
 4.95 1.50 -0.448 -0.448 -0.447 -0.446 -0.444 12.12710 12.08991-11.58419   0.959
 4.95 1.75 -0.447 -0.447 -0.446 -0.445 -0.443 12.37708 12.33998-11.33413   1.279
 4.95 2.00 -0.445 -0.445 -0.445 -0.444 -0.441 12.62706 12.59006-11.08407   1.706
 4.95 2.25 -0.444 -0.444 -0.443 -0.442 -0.439 12.87708 12.83998-10.83405   2.275
 4.95 2.50 -0.442 -0.442 -0.441 -0.440 -0.437 13.12711 13.08991-10.58403   3.033
 4.95 2.75 -0.439 -0.439 -0.438 -0.437 -0.434 13.37704 13.33997-10.33400   4.045
 4.95 3.00 -0.434 -0.434 -0.434 -0.433 -0.429 13.62696 13.59006-10.08397   5.394
 4.95 3.20 -0.429 -0.429 -0.429 -0.427 -0.424 13.82689 13.79014 -9.88399   6.790
 4.95 3.40 -0.422 -0.422 -0.421 -0.420 -0.417 14.02682 13.99022 -9.68401   8.547
 4.95 3.60 -0.412 -0.412 -0.411 -0.410 -0.406 14.22680 14.19027 -9.48399  10.759
 4.95 3.80 -0.399 -0.398 -0.398 -0.397 -0.393 14.42682 14.39028 -9.28393  13.544
 4.95 4.00 -0.381 -0.381 -0.381 -0.380 -0.376 14.62685 14.59028 -9.08386  17.050
 4.95 4.20 -0.360 -0.359 -0.359 -0.358 -0.353 14.82683 14.79027 -8.88386  21.462
 4.95 4.40 -0.332 -0.332 -0.332 -0.330 -0.326 15.02680 14.99026 -8.68386  27.016
 4.95 4.60 -0.298 -0.298 -0.298 -0.296 -0.291 15.22676 15.19028 -8.48382  34.006
 4.95 4.80 -0.256 -0.256 -0.255 -0.253 -0.249 15.42671 15.39033 -8.28373  42.806
 4.95 5.00 -0.203 -0.203 -0.202 -0.201 -0.195 15.62665 15.59040 -8.08365  53.882
 4.95 5.20 -0.138 -0.138 -0.138 -0.136 -0.130 15.82658 15.79048 -7.88360  67.820
 4.95 5.40 -0.059 -0.059 -0.059 -0.057 -0.051 16.02650 15.99057 -7.68355  85.362
 4.95 5.60  0.035  0.035  0.036  0.038  0.043 16.22642 16.19066 -7.48347 107.439
 4.95 5.80  0.148  0.148  0.148  0.150  0.156 16.42633 16.39075 -7.28335 135.224
 4.95 6.00  0.278  0.278  0.279  0.281  0.286 16.62624 16.59084 -7.08323 170.191
 4.95 6.25  0.466  0.466  0.467  0.468  0.473 16.87602 16.84090 -6.83313 226.850
 4.95 6.50  0.677  0.677  0.677  0.679  0.683 17.12581 17.09096 -6.58303 302.341
 4.95 6.75  0.893  0.893  0.893  0.895  0.898 17.37566 17.34127 -6.33278 402.921
 4.95 7.00  1.133  1.133  1.133  1.134  1.137 17.62552 17.59162 -6.08244 536.877
 4.95 7.25  1.379  1.379  1.379  1.380  1.382 17.87524 17.84198 -5.83204 715.154
 4.95 7.50  1.630  1.630  1.630  1.631  1.632 18.12483 18.09237 -5.58153 952.272
 4.95 7.75  1.881  1.881  1.881  1.881  1.882 18.37415 18.34314 -5.330841267.179
 4.95 8.00  2.135  2.135  2.135  2.135  2.136 18.62325 18.59417 -5.079981685.277
 5.00-2.00 -0.454 -0.454 -0.454 -0.454 -0.452  8.57715  8.53995-15.13413   0.015
 5.00-1.50 -0.454 -0.454 -0.454 -0.454 -0.452  9.07700  9.03981-14.63414   0.027
 5.00-1.00 -0.454 -0.454 -0.454 -0.453 -0.452  9.57703  9.53995-14.13413   0.048
 5.00-0.50 -0.454 -0.454 -0.454 -0.453 -0.452 10.07700 10.03981-13.63414   0.086
 5.00 0.00 -0.453 -0.453 -0.453 -0.453 -0.451 10.57703 10.53995-13.13413   0.152
 5.00 0.50 -0.452 -0.452 -0.452 -0.451 -0.450 11.07700 11.03981-12.63414   0.270
 5.00 1.00 -0.451 -0.451 -0.451 -0.450 -0.448 11.57703 11.53995-12.13407   0.481
 5.00 1.25 -0.450 -0.450 -0.450 -0.449 -0.447 11.82702 11.78988-11.88410   0.641
 5.00 1.50 -0.449 -0.449 -0.448 -0.448 -0.445 12.07700 12.03981-11.63414   0.855
 5.00 1.75 -0.448 -0.447 -0.447 -0.446 -0.444 12.32702 12.28995-11.38410   1.140
 5.00 2.00 -0.446 -0.446 -0.446 -0.445 -0.442 12.57703 12.54008-11.13407   1.520
 5.00 2.25 -0.445 -0.445 -0.444 -0.443 -0.440 12.82703 12.79017-10.88410   2.027
 5.00 2.50 -0.443 -0.443 -0.442 -0.441 -0.438 13.07701 13.04021-10.63414   2.703
 5.00 2.75 -0.440 -0.440 -0.440 -0.439 -0.436 13.32696 13.29014-10.38407   3.605
 5.00 3.00 -0.437 -0.437 -0.437 -0.436 -0.432 13.57692 13.54008-10.13401   4.807
 5.00 3.20 -0.434 -0.434 -0.433 -0.432 -0.429 13.77695 13.74013 -9.93399   6.051
 5.00 3.40 -0.429 -0.429 -0.429 -0.427 -0.424 13.97699 13.94018 -9.73396   7.618
 5.00 3.60 -0.422 -0.422 -0.422 -0.421 -0.417 14.17700 14.14021 -9.53394   9.590
 5.00 3.80 -0.413 -0.413 -0.413 -0.412 -0.408 14.37697 14.34021 -9.33392  12.072
 5.00 4.00 -0.401 -0.401 -0.400 -0.399 -0.395 14.57692 14.54020 -9.13389  15.197
 5.00 4.20 -0.384 -0.384 -0.383 -0.382 -0.378 14.77681 14.74020 -8.93384  19.130
 5.00 4.40 -0.361 -0.361 -0.361 -0.360 -0.356 14.97670 14.94021 -8.73379  24.080
 5.00 4.60 -0.333 -0.333 -0.333 -0.331 -0.327 15.17665 15.14022 -8.53375  30.312
 5.00 4.80 -0.297 -0.297 -0.297 -0.296 -0.292 15.37667 15.34027 -8.33373  38.156
 5.00 5.00 -0.254 -0.254 -0.253 -0.252 -0.248 15.57669 15.54033 -8.13371  48.030
 5.00 5.20 -0.200 -0.200 -0.200 -0.198 -0.194 15.77668 15.74044 -7.93367  60.456
 5.00 5.40 -0.136 -0.136 -0.135 -0.134 -0.129 15.97666 15.94055 -7.73361  76.095
 5.00 5.60 -0.058 -0.058 -0.057 -0.056 -0.051 16.17659 16.14063 -7.53353  95.778
 5.00 5.80  0.035  0.035  0.035  0.037  0.041 16.37648 16.34067 -7.33345 120.552
 5.00 6.00  0.145  0.145  0.145  0.147  0.151 16.57634 16.54070 -7.13336 151.730
 5.00 6.25  0.307  0.308  0.308  0.310  0.314 16.82613 16.79083 -6.88328 202.256
 5.00 6.50  0.496  0.496  0.497  0.498  0.502 17.07591 17.04100 -6.63320 269.588
 5.00 6.75  0.704  0.704  0.705  0.706  0.709 17.32584 17.29123 -6.38298 359.319
 5.00 7.00  0.922  0.922  0.922  0.923  0.926 17.57577 17.54145 -6.13271 478.873
 5.00 7.25  1.160  1.161  1.161  1.161  1.164 17.82552 17.79162 -5.88242 638.082
 5.00 7.50  1.407  1.407  1.407  1.408  1.409 18.07518 18.04179 -5.63209 850.039
 5.00 7.75  1.654  1.654  1.654  1.655  1.656 18.32477 18.29226 -5.381651132.048
 5.00 8.00  1.905  1.905  1.905  1.906  1.907 18.57426 18.54295 -5.131121507.193
 5.05-2.00 -0.453 -0.453 -0.453 -0.453 -0.451  8.52711  8.48996-15.18416   0.014
 5.05-1.50 -0.453 -0.453 -0.453 -0.453 -0.451  9.02694  8.98994-14.68424   0.024
 5.05-1.00 -0.453 -0.453 -0.453 -0.453 -0.451  9.52711  9.48996-14.18416   0.043
 5.05-0.50 -0.453 -0.453 -0.453 -0.453 -0.451 10.02694  9.98994-13.68424   0.076
 5.05 0.00 -0.453 -0.453 -0.453 -0.452 -0.451 10.52711 10.48996-13.18409   0.136
 5.05 0.50 -0.453 -0.453 -0.453 -0.452 -0.451 11.02694 10.98994-12.68424   0.241
 5.05 1.00 -0.452 -0.452 -0.452 -0.451 -0.450 11.52711 11.48996-12.18409   0.429
 5.05 1.25 -0.452 -0.452 -0.451 -0.451 -0.449 11.77703 11.73997-11.93405   0.572
 5.05 1.50 -0.451 -0.451 -0.451 -0.450 -0.449 12.02694 11.98998-11.68403   0.762
 5.05 1.75 -0.450 -0.450 -0.450 -0.449 -0.448 12.27696 12.23997-11.43406   1.016
 5.05 2.00 -0.449 -0.449 -0.449 -0.448 -0.446 12.52699 12.48996-11.18409   1.355
 5.05 2.25 -0.448 -0.447 -0.447 -0.447 -0.444 12.77696 12.73996-10.93406   1.807
 5.05 2.50 -0.446 -0.446 -0.445 -0.445 -0.442 13.02694 12.98998-10.68403   2.410
 5.05 2.75 -0.444 -0.443 -0.443 -0.442 -0.440 13.27696 13.24004-10.43402   3.214
 5.05 3.00 -0.441 -0.441 -0.440 -0.439 -0.436 13.52699 13.49010-10.18402   4.285
 5.05 3.20 -0.438 -0.438 -0.437 -0.436 -0.433 13.72698 13.69009 -9.98403   5.394
 5.05 3.40 -0.434 -0.434 -0.434 -0.433 -0.429 13.92696 13.89008 -9.78403   6.790
 5.05 3.60 -0.430 -0.429 -0.429 -0.428 -0.425 14.12692 14.09011 -9.58400   8.547
 5.05 3.80 -0.423 -0.423 -0.423 -0.422 -0.418 14.32689 14.29017 -9.38395  10.760
 5.05 4.00 -0.415 -0.415 -0.414 -0.413 -0.409 14.52686 14.49024 -9.18389  13.546
 5.05 4.20 -0.403 -0.403 -0.402 -0.401 -0.397 14.72689 14.69023 -8.98386  17.051
 5.05 4.40 -0.387 -0.387 -0.386 -0.385 -0.381 14.92692 14.89021 -8.78383  21.464
 5.05 4.60 -0.365 -0.365 -0.364 -0.363 -0.359 15.12690 15.09024 -8.58381  27.018
 5.05 4.80 -0.336 -0.336 -0.336 -0.334 -0.331 15.32681 15.29031 -8.38378  34.011
 5.05 5.00 -0.300 -0.300 -0.299 -0.298 -0.294 15.52673 15.49038 -8.18376  42.813
 5.05 5.20 -0.254 -0.254 -0.254 -0.253 -0.249 15.72665 15.69040 -7.98371  53.890
 5.05 5.40 -0.199 -0.199 -0.199 -0.197 -0.194 15.92657 15.89042 -7.78364  67.831
 5.05 5.60 -0.133 -0.133 -0.132 -0.131 -0.127 16.12652 16.09048 -7.58358  85.379
 5.05 5.80 -0.053 -0.053 -0.053 -0.051 -0.048 16.32650 16.29057 -7.38351 107.466
 5.05 6.00  0.040  0.040  0.040  0.041  0.045 16.52647 16.49066 -7.18343 135.265
 5.05 6.25  0.181  0.181  0.182  0.183  0.186 16.77630 16.74077 -6.93332 180.316
 5.05 6.50  0.349  0.349  0.349  0.350  0.354 17.02612 16.99087 -6.68319 240.359
 5.05 6.75  0.542  0.542  0.542  0.543  0.547 17.27604 17.24104 -6.43306 320.386
 5.05 7.00  0.741  0.741  0.741  0.742  0.745 17.52595 17.49122 -6.18290 427.031
 5.05 7.25  0.970  0.970  0.970  0.971  0.973 17.77563 17.74141 -5.93264 569.088
 5.05 7.50  1.210  1.210  1.210  1.211  1.213 18.02530 17.99162 -5.68235 758.294
 5.05 7.75  1.454  1.454  1.454  1.454  1.456 18.27503 18.24195 -5.432041010.231
 5.05 8.00  1.703  1.703  1.703  1.703  1.704 18.52479 18.49234 -5.181711345.651
 5.10-2.00 -0.451 -0.451 -0.451 -0.450 -0.449  8.47712  8.43996-15.23411   0.012
 5.10-1.50 -0.451 -0.451 -0.451 -0.450 -0.449  8.97704  8.93992-14.73424   0.021
 5.10-1.00 -0.451 -0.451 -0.451 -0.450 -0.449  9.47712  9.43996-14.23411   0.038
 5.10-0.50 -0.451 -0.451 -0.451 -0.450 -0.449  9.97704  9.93992-13.73424   0.068
 5.10 0.00 -0.451 -0.451 -0.451 -0.450 -0.449 10.47712 10.43996-13.23411   0.121
 5.10 0.50 -0.451 -0.451 -0.451 -0.450 -0.449 10.97704 10.93992-12.73424   0.215
 5.10 1.00 -0.451 -0.451 -0.451 -0.450 -0.449 11.47712 11.43997-12.23411   0.382
 5.10 1.25 -0.451 -0.450 -0.450 -0.450 -0.449 11.72706 11.68997-11.98417   0.509
 5.10 1.50 -0.450 -0.450 -0.450 -0.450 -0.449 11.97699 11.93997-11.73424   0.679
 5.10 1.75 -0.450 -0.450 -0.450 -0.449 -0.448 12.22698 12.18997-11.48417   0.906
 5.10 2.00 -0.449 -0.449 -0.449 -0.449 -0.448 12.47698 12.43996-11.23411   1.208
 5.10 2.25 -0.449 -0.449 -0.449 -0.448 -0.447 12.72698 12.68998-10.98405   1.611
 5.10 2.50 -0.448 -0.448 -0.448 -0.447 -0.446 12.97699 12.94002-10.73400   2.148
 5.10 2.75 -0.447 -0.447 -0.446 -0.446 -0.444 13.22699 13.19007-10.48402   2.864
 5.10 3.00 -0.445 -0.445 -0.445 -0.444 -0.442 13.47698 13.44012-10.23403   3.819
 5.10 3.20 -0.443 -0.443 -0.443 -0.442 -0.440 13.67695 13.64010-10.03403   4.807
 5.10 3.40 -0.440 -0.440 -0.440 -0.439 -0.437 13.87692 13.84008 -9.83401   6.052
 5.10 3.60 -0.437 -0.437 -0.437 -0.436 -0.433 14.07692 14.04008 -9.63400   7.618
 5.10 3.80 -0.432 -0.432 -0.432 -0.431 -0.428 14.27695 14.24010 -9.43398   9.590
 5.10 4.00 -0.426 -0.426 -0.426 -0.425 -0.422 14.47698 14.44012 -9.23396  12.073
 5.10 4.20 -0.418 -0.418 -0.418 -0.417 -0.413 14.67691 14.64014 -9.03398  15.198
 5.10 4.40 -0.407 -0.407 -0.406 -0.405 -0.402 14.87684 14.84016 -8.83399  19.132
 5.10 4.60 -0.392 -0.391 -0.391 -0.390 -0.386 15.07681 15.04019 -8.63397  24.083
 5.10 4.80 -0.371 -0.371 -0.370 -0.369 -0.365 15.27682 15.24024 -8.43389  30.316
 5.10 5.00 -0.343 -0.342 -0.342 -0.341 -0.337 15.47683 15.44028 -8.23381  38.162
 5.10 5.20 -0.306 -0.306 -0.305 -0.304 -0.300 15.67675 15.64031 -8.03379  48.036
 5.10 5.40 -0.260 -0.259 -0.259 -0.258 -0.254 15.87667 15.84035 -7.83378  60.464
 5.10 5.60 -0.202 -0.202 -0.202 -0.200 -0.197 16.07661 16.04041 -7.63372  76.107
 5.10 5.80 -0.133 -0.133 -0.132 -0.131 -0.128 16.27658 16.24050 -7.43361  95.798
 5.10 6.00 -0.051 -0.050 -0.050 -0.049 -0.046 16.47654 16.44059 -7.23351 120.582
 5.10 6.25  0.073  0.073  0.073  0.074  0.077 16.72642 16.69068 -6.98341 160.749
 5.10 6.50  0.222  0.222  0.222  0.223  0.226 16.97631 16.94077 -6.73330 214.286
 5.10 6.75  0.398  0.398  0.398  0.399  0.401 17.22621 17.19091 -6.48316 285.649
 5.10 7.00  0.588  0.588  0.589  0.589  0.592 17.47611 17.44107 -6.23299 380.758
 5.10 7.25  0.802  0.802  0.803  0.803  0.805 17.72589 17.69123 -5.98281 507.470
 5.10 7.50  1.035  1.035  1.035  1.036  1.038 17.97566 17.94141 -5.73259 676.276
 5.10 7.75  1.274  1.274  1.275  1.275  1.276 18.22545 18.19168 -5.48233 901.136
 5.10 8.00  1.520  1.520  1.520  1.520  1.521 18.47524 18.44201 -5.232031200.630
 5.15-2.00 -0.447 -0.447 -0.447 -0.446 -0.445  8.42716  8.38987-15.28416   0.011
 5.15-1.50 -0.447 -0.447 -0.447 -0.446 -0.445  8.92706  8.88992-14.78410   0.019
 5.15-1.00 -0.447 -0.447 -0.447 -0.446 -0.445  9.42716  9.38987-14.28416   0.034
 5.15-0.50 -0.447 -0.447 -0.447 -0.446 -0.445  9.92706  9.88992-13.78410   0.061
 5.15 0.00 -0.447 -0.447 -0.447 -0.446 -0.445 10.42700 10.39005-13.28416   0.108
 5.15 0.50 -0.447 -0.447 -0.447 -0.446 -0.445 10.92701 10.88992-12.78410   0.191
 5.15 1.00 -0.447 -0.447 -0.447 -0.446 -0.445 11.42700 11.39005-12.28408   0.340
 5.15 1.25 -0.447 -0.447 -0.447 -0.446 -0.445 11.67701 11.64001-12.03409   0.454
 5.15 1.50 -0.447 -0.447 -0.447 -0.446 -0.445 11.92701 11.88997-11.78410   0.605
 5.15 1.75 -0.447 -0.447 -0.446 -0.446 -0.445 12.17701 12.14001-11.53409   0.807
 5.15 2.00 -0.446 -0.446 -0.446 -0.446 -0.445 12.42700 12.39005-11.28408   1.076
 5.15 2.25 -0.446 -0.446 -0.446 -0.446 -0.445 12.67701 12.64001-11.03409   1.435
 5.15 2.50 -0.446 -0.446 -0.446 -0.445 -0.444 12.92701 12.88997-10.78410   1.914
 5.15 2.75 -0.445 -0.445 -0.445 -0.445 -0.444 13.17701 13.14001-10.53409   2.553
 5.15 3.00 -0.444 -0.444 -0.444 -0.444 -0.443 13.42700 13.39005-10.28408   3.404
 5.15 3.20 -0.443 -0.443 -0.443 -0.443 -0.442 13.62698 13.59004-10.08409   4.285
 5.15 3.40 -0.442 -0.442 -0.442 -0.442 -0.440 13.82697 13.79003 -9.88410   5.394
 5.15 3.60 -0.440 -0.440 -0.440 -0.440 -0.438 14.02697 13.99003 -9.68408   6.790
 5.15 3.80 -0.438 -0.438 -0.438 -0.437 -0.436 14.22698 14.19004 -9.48405   8.548
 5.15 4.00 -0.435 -0.435 -0.434 -0.434 -0.432 14.42700 14.39005 -9.28400  10.761
 5.15 4.20 -0.430 -0.430 -0.429 -0.429 -0.427 14.62694 14.59009 -9.08393  13.546
 5.15 4.40 -0.423 -0.423 -0.422 -0.422 -0.419 14.82689 14.79012 -8.88387  17.052
 5.15 4.60 -0.413 -0.413 -0.413 -0.412 -0.409 15.02685 14.99016 -8.68383  21.466
 5.15 4.80 -0.399 -0.399 -0.399 -0.398 -0.395 15.22684 15.19019 -8.48383  27.022
 5.15 5.00 -0.380 -0.380 -0.379 -0.378 -0.375 15.42684 15.39023 -8.28383  34.016
 5.15 5.20 -0.353 -0.353 -0.353 -0.352 -0.348 15.62679 15.59026 -8.08383  42.817
 5.15 5.40 -0.318 -0.318 -0.318 -0.316 -0.313 15.82674 15.79029 -7.88383  53.896
 5.15 5.60 -0.272 -0.272 -0.272 -0.270 -0.267 16.02666 15.99037 -7.68378  67.841
 5.15 5.80 -0.214 -0.214 -0.214 -0.212 -0.209 16.22659 16.19047 -7.48368  85.395
 5.15 6.00 -0.143 -0.143 -0.142 -0.141 -0.137 16.42651 16.39058 -7.28358 107.491
 5.15 6.25 -0.033 -0.033 -0.033 -0.032 -0.028 16.67645 16.64062 -7.03358 143.301
 5.15 6.50  0.099  0.099  0.100  0.101  0.104 16.92639 16.89065 -6.78357 191.035
 5.15 6.75  0.258  0.258  0.258  0.259  0.262 17.17631 17.14079 -6.53337 254.666
 5.15 7.00  0.440  0.440  0.440  0.441  0.444 17.42619 17.39094 -6.28316 339.478
 5.15 7.25  0.633  0.633  0.633  0.634  0.636 17.67602 17.64109 -6.03297 452.483
 5.15 7.50  0.855  0.855  0.855  0.856  0.858 17.92583 17.89126 -5.78278 603.052
 5.15 7.75  1.088  1.088  1.088  1.088  1.090 18.17561 18.14151 -5.53256 803.664
 5.15 8.00  1.329  1.329  1.329  1.329  1.330 18.42537 18.39182 -5.282331070.926
 5.20-2.00 -0.440 -0.440 -0.440 -0.439 -0.438  8.37712  8.34005-15.33414   0.010
 5.20-1.50 -0.440 -0.440 -0.440 -0.439 -0.438  8.87703  8.83992-14.83416   0.017
 5.20-1.00 -0.440 -0.440 -0.440 -0.439 -0.438  9.37712  9.34005-14.33414   0.030
 5.20-0.50 -0.440 -0.440 -0.440 -0.440 -0.438  9.87703  9.83992-13.83416   0.054
 5.20 0.00 -0.440 -0.440 -0.440 -0.440 -0.438 10.37712 10.34005-13.33414   0.096
 5.20 0.50 -0.440 -0.440 -0.440 -0.440 -0.438 10.87703 10.83992-12.83416   0.171
 5.20 1.00 -0.440 -0.440 -0.440 -0.440 -0.438 11.37712 11.34005-12.33414   0.303
 5.20 1.25 -0.440 -0.440 -0.440 -0.440 -0.438 11.62708 11.59001-12.08415   0.404
 5.20 1.50 -0.440 -0.440 -0.440 -0.440 -0.438 11.87703 11.83998-11.83416   0.540
 5.20 1.75 -0.440 -0.440 -0.440 -0.439 -0.438 12.12708 12.09001-11.58410   0.720
 5.20 2.00 -0.440 -0.440 -0.440 -0.439 -0.438 12.37712 12.34005-11.33404   0.959
 5.20 2.25 -0.440 -0.440 -0.440 -0.439 -0.438 12.62708 12.59001-11.08410   1.279
 5.20 2.50 -0.440 -0.440 -0.440 -0.439 -0.438 12.87703 12.83998-10.83416   1.706
 5.20 2.75 -0.439 -0.439 -0.439 -0.439 -0.438 13.12698 13.09001-10.58410   2.275
 5.20 3.00 -0.439 -0.439 -0.439 -0.439 -0.438 13.37694 13.34005-10.33404   3.034
 5.20 3.20 -0.439 -0.439 -0.439 -0.438 -0.437 13.57695 13.54005-10.13409   3.819
 5.20 3.40 -0.438 -0.438 -0.438 -0.438 -0.437 13.77696 13.74004 -9.93414   4.808
 5.20 3.60 -0.437 -0.437 -0.437 -0.437 -0.436 13.97697 13.94004 -9.73412   6.052
 5.20 3.80 -0.436 -0.436 -0.436 -0.436 -0.434 14.17696 14.14005 -9.53404   7.619
 5.20 4.00 -0.434 -0.434 -0.434 -0.434 -0.433 14.37694 14.34005 -9.33395   9.591
 5.20 4.20 -0.432 -0.432 -0.432 -0.431 -0.430 14.57691 14.54006 -9.13390  12.074
 5.20 4.40 -0.428 -0.428 -0.428 -0.428 -0.426 14.77687 14.74009 -8.93388  15.199
 5.20 4.60 -0.423 -0.423 -0.423 -0.422 -0.420 14.97683 14.94014 -8.73386  19.133
 5.20 4.80 -0.415 -0.415 -0.415 -0.414 -0.412 15.17680 15.14019 -8.53386  24.086
 5.20 5.00 -0.404 -0.404 -0.403 -0.403 -0.401 15.37676 15.34025 -8.33386  30.320
 5.20 5.20 -0.387 -0.387 -0.387 -0.386 -0.384 15.57675 15.54027 -8.13386  38.166
 5.20 5.40 -0.364 -0.364 -0.364 -0.363 -0.361 15.77674 15.74028 -7.93386  48.042
 5.20 5.60 -0.332 -0.332 -0.332 -0.331 -0.328 15.97670 15.94033 -7.73383  60.473
 5.20 5.80 -0.289 -0.289 -0.289 -0.288 -0.285 16.17664 16.14038 -7.53375  76.121
 5.20 6.00 -0.234 -0.234 -0.233 -0.232 -0.229 16.37658 16.34044 -7.33367  95.818
 5.20 6.25 -0.144 -0.143 -0.143 -0.142 -0.139 16.62651 16.59050 -7.08362 127.744
 5.20 6.50 -0.028 -0.028 -0.028 -0.027 -0.023 16.87645 16.84055 -6.83357 170.302
 5.20 6.75  0.112  0.112  0.112  0.113  0.116 17.12633 17.09069 -6.58344 227.036
 5.20 7.00  0.278  0.278  0.279  0.280  0.282 17.37621 17.34084 -6.33330 302.659
 5.20 7.25  0.455  0.455  0.456  0.456  0.459 17.62610 17.59098 -6.08315 403.430
 5.20 7.50  0.665  0.665  0.665  0.666  0.668 17.87599 17.84111 -5.83298 537.714
 5.20 7.75  0.886  0.886  0.886  0.887  0.888 18.12584 18.09134 -5.58278 716.655
 5.20 8.00  1.118  1.118  1.118  1.119  1.120 18.37566 18.34163 -5.33255 955.085
 5.25-2.00 -0.429 -0.429 -0.429 -0.428 -0.427  8.32716  8.29004-15.38415   0.009
 5.25-1.50 -0.429 -0.429 -0.429 -0.428 -0.427  8.82705  8.78993-14.88406   0.015
 5.25-1.00 -0.429 -0.429 -0.429 -0.428 -0.427  9.32715  9.29004-14.38416   0.027
 5.25-0.50 -0.429 -0.429 -0.429 -0.428 -0.427  9.82705  9.78993-13.88406   0.048
 5.25 0.00 -0.429 -0.429 -0.429 -0.428 -0.427 10.32716 10.29003-13.38416   0.086
 5.25 0.50 -0.429 -0.429 -0.429 -0.428 -0.427 10.82705 10.78993-12.88406   0.152
 5.25 1.00 -0.429 -0.429 -0.429 -0.428 -0.427 11.32716 11.29004-12.38416   0.270
 5.25 1.25 -0.429 -0.429 -0.429 -0.428 -0.427 11.57710 11.53998-12.13411   0.360
 5.25 1.50 -0.429 -0.429 -0.429 -0.428 -0.427 11.82705 11.78993-11.88406   0.481
 5.25 1.75 -0.429 -0.429 -0.429 -0.428 -0.427 12.07710 12.03998-11.63405   0.641
 5.25 2.00 -0.429 -0.429 -0.429 -0.428 -0.427 12.32716 12.29004-11.38405   0.855
 5.25 2.25 -0.429 -0.429 -0.429 -0.428 -0.427 12.57707 12.54002-11.13405   1.140
 5.25 2.50 -0.429 -0.429 -0.429 -0.428 -0.427 12.82698 12.79000-10.88406   1.520
 5.25 2.75 -0.429 -0.429 -0.429 -0.428 -0.427 13.07695 13.04002-10.63405   2.027
 5.25 3.00 -0.429 -0.429 -0.429 -0.428 -0.427 13.32695 13.29003-10.38405   2.704
 5.25 3.20 -0.428 -0.428 -0.428 -0.428 -0.427 13.52696 13.49002-10.18405   3.404
 5.25 3.40 -0.428 -0.428 -0.428 -0.428 -0.427 13.72698 13.69001 -9.98406   4.285
 5.25 3.60 -0.428 -0.428 -0.428 -0.427 -0.426 13.92698 13.89001 -9.78406   5.395
 5.25 3.80 -0.427 -0.427 -0.427 -0.427 -0.426 14.12696 14.09002 -9.58405   6.791
 5.25 4.00 -0.426 -0.426 -0.426 -0.426 -0.425 14.32695 14.29004 -9.38405   8.549
 5.25 4.20 -0.425 -0.425 -0.425 -0.425 -0.424 14.52694 14.49005 -9.18405  10.762
 5.25 4.40 -0.423 -0.423 -0.423 -0.423 -0.422 14.72692 14.69007 -8.98406  13.547
 5.25 4.60 -0.420 -0.420 -0.420 -0.420 -0.419 14.92692 14.89011 -8.78404  17.053
 5.25 4.80 -0.416 -0.416 -0.416 -0.416 -0.414 15.12694 15.09018 -8.58400  21.468
 5.25 5.00 -0.410 -0.410 -0.410 -0.409 -0.408 15.32695 15.29026 -8.38395  27.025
 5.25 5.20 -0.400 -0.400 -0.400 -0.400 -0.399 15.52689 15.49024 -8.18386  34.018
 5.25 5.40 -0.387 -0.387 -0.387 -0.386 -0.385 15.72682 15.69022 -7.98377  42.822
 5.25 5.60 -0.367 -0.367 -0.367 -0.367 -0.365 15.92678 15.89027 -7.78373  53.903
 5.25 5.80 -0.340 -0.340 -0.340 -0.339 -0.337 16.12676 16.09037 -7.58373  67.853
 5.25 6.00 -0.302 -0.302 -0.302 -0.301 -0.299 16.32675 16.29048 -7.38373  85.412
 5.25 6.25 -0.237 -0.237 -0.237 -0.236 -0.234 16.57664 16.54049 -7.13373 113.872
 5.25 6.50 -0.148 -0.148 -0.148 -0.147 -0.145 16.82653 16.79050 -6.88372 151.813
 5.25 6.75 -0.033 -0.033 -0.033 -0.032 -0.029 17.07643 17.04059 -6.63352 202.394
 5.25 7.00  0.109  0.109  0.109  0.110  0.113 17.32634 17.29070 -6.38332 269.822
 5.25 7.25  0.274  0.274  0.275  0.276  0.278 17.57622 17.54083 -6.13319 359.675
 5.25 7.50  0.458  0.458  0.458  0.459  0.461 17.82607 17.79099 -5.88306 479.423
 5.25 7.75  0.664  0.664  0.664  0.665  0.667 18.07591 18.04117 -5.63289 639.011
 5.25 8.00  0.883  0.883  0.883  0.884  0.886 18.32572 18.29137 -5.38269 851.681
 5.30-2.00 -0.413 -0.413 -0.413 -0.413 -0.412  8.27715  8.24005-15.43415   0.008
 5.30-1.50 -0.413 -0.413 -0.413 -0.413 -0.412  8.77706  8.73989-14.93405   0.014
 5.30-1.00 -0.413 -0.413 -0.413 -0.413 -0.412  9.27715  9.24005-14.43415   0.024
 5.30-0.50 -0.413 -0.413 -0.413 -0.413 -0.412  9.77706  9.73989-13.93405   0.043
 5.30 0.00 -0.413 -0.413 -0.413 -0.413 -0.412 10.27715 10.24005-13.43415   0.076
 5.30 0.50 -0.413 -0.413 -0.413 -0.413 -0.412 10.77706 10.73997-12.93405   0.136
 5.30 1.00 -0.413 -0.413 -0.413 -0.413 -0.412 11.27715 11.24005-12.43415   0.241
 5.30 1.25 -0.413 -0.413 -0.413 -0.413 -0.412 11.52711 11.49001-12.18410   0.322
 5.30 1.50 -0.413 -0.413 -0.413 -0.413 -0.412 11.77706 11.73997-11.93405   0.429
 5.30 1.75 -0.413 -0.413 -0.413 -0.413 -0.412 12.02711 11.99001-11.68410   0.572
 5.30 2.00 -0.413 -0.413 -0.413 -0.413 -0.412 12.27715 12.24005-11.43415   0.762
 5.30 2.25 -0.413 -0.413 -0.413 -0.413 -0.412 12.52707 12.49001-11.18410   1.016
 5.30 2.50 -0.413 -0.413 -0.413 -0.413 -0.412 12.77699 12.73997-10.93405   1.355
 5.30 2.75 -0.413 -0.413 -0.413 -0.413 -0.412 13.02694 12.99001-10.68404   1.807
 5.30 3.00 -0.413 -0.413 -0.413 -0.413 -0.412 13.27692 13.24005-10.43403   2.410
 5.30 3.20 -0.413 -0.413 -0.413 -0.413 -0.411 13.47695 13.44002-10.23404   3.034
 5.30 3.40 -0.413 -0.413 -0.413 -0.412 -0.411 13.67698 13.63999-10.03405   3.819
 5.30 3.60 -0.413 -0.413 -0.413 -0.412 -0.411 13.87698 13.83998 -9.83405   4.808
 5.30 3.80 -0.412 -0.412 -0.412 -0.412 -0.411 14.07695 14.04002 -9.63404   6.052
 5.30 4.00 -0.412 -0.412 -0.412 -0.412 -0.411 14.27692 14.24005 -9.43403   7.619
 5.30 4.20 -0.411 -0.411 -0.411 -0.411 -0.410 14.47692 14.44005 -9.23404   9.591
 5.30 4.40 -0.410 -0.410 -0.410 -0.410 -0.409 14.67692 14.64005 -9.03405  12.074
 5.30 4.60 -0.409 -0.409 -0.409 -0.408 -0.407 14.87692 14.84005 -8.83402  15.200
 5.30 4.80 -0.406 -0.406 -0.406 -0.406 -0.405 15.07692 15.04005 -8.63397  19.135
 5.30 5.00 -0.403 -0.403 -0.403 -0.403 -0.402 15.27692 15.24005 -8.43392  24.088
 5.30 5.20 -0.398 -0.398 -0.398 -0.397 -0.396 15.47686 15.44011 -8.23397  30.322
 5.30 5.40 -0.390 -0.390 -0.390 -0.389 -0.388 15.67680 15.64017 -8.03402  38.169
 5.30 5.60 -0.378 -0.378 -0.378 -0.378 -0.377 15.87676 15.84022 -7.83400  48.047
 5.30 5.80 -0.362 -0.362 -0.362 -0.361 -0.360 16.07673 16.04026 -7.63390  60.481
 5.30 6.00 -0.338 -0.338 -0.338 -0.338 -0.336 16.27669 16.24030 -7.43380  76.134
 5.30 6.25 -0.295 -0.295 -0.295 -0.295 -0.293 16.52662 16.49037 -7.18374 101.505
 5.30 6.50 -0.234 -0.234 -0.234 -0.233 -0.231 16.77656 16.74044 -6.93368 135.329
 5.30 6.75 -0.149 -0.149 -0.149 -0.148 -0.146 17.02651 16.99050 -6.68356 180.423
 5.30 7.00 -0.038 -0.038 -0.038 -0.037 -0.035 17.27646 17.24055 -6.43345 240.540
 5.30 7.25  0.098  0.098  0.098  0.099  0.101 17.52633 17.49067 -6.18337 320.655
 5.30 7.50  0.252  0.252  0.253  0.253  0.255 17.77619 17.74084 -5.93330 427.432
 5.30 7.75  0.436  0.436  0.436  0.437  0.438 18.02609 17.99105 -5.68312 569.748
 5.30 8.00  0.635  0.635  0.635  0.636  0.638 18.27600 18.24130 -5.43286 759.419
