
 ROSSELAND MASS ABSORPTION COEFFICENTS
 logT logP  0km/s  1km/s  2km/s  4km/s  8km/s  log Ne   log Na  log rho IPloCM-1
 3.32-2.00 -6.000 -5.994 -5.983 -5.962 -5.936  3.56832 10.54033-13.13389
 3.32-1.50 -6.027 -6.021 -6.009 -5.989 -5.962  3.96619 11.04139-12.63302
 3.32-1.00 -6.037 -6.030 -6.018 -5.998 -5.971  4.40518 11.54419-12.13012
 3.32-0.50 -6.033 -6.027 -6.015 -5.993 -5.965  4.86445 12.05231-11.62178
 3.32 0.00 -6.017 -6.011 -5.999 -5.977 -5.949  5.32243 12.57380-11.10051
 3.32 0.50 -5.995 -5.989 -5.977 -5.956 -5.929  5.77327 13.11494-10.55941
 3.32 1.00 -5.970 -5.965 -5.953 -5.933 -5.908  6.21722 13.66829-10.00595
 3.32 1.25 -5.955 -5.949 -5.939 -5.920 -5.896  6.43647 13.94330 -9.73092
 3.32 1.50 -5.937 -5.931 -5.921 -5.903 -5.880  6.65495 14.21643 -9.45780
 3.32 1.75 -5.915 -5.910 -5.900 -5.883 -5.861  6.87324 14.48542 -9.18875
 3.32 2.00 -5.892 -5.886 -5.877 -5.860 -5.839  7.09061 14.75113 -8.92300
 3.32 2.25 -5.865 -5.860 -5.852 -5.836 -5.815  7.30299 15.01336 -8.66080
 3.32 2.50 -5.837 -5.833 -5.825 -5.810 -5.790  7.50947 15.27300 -8.40121
 3.32 2.75 -5.808 -5.803 -5.796 -5.783 -5.764  7.70402 15.53044 -8.14379
 3.32 3.00 -5.776 -5.773 -5.766 -5.753 -5.736  7.88880 15.78618 -7.88807
 3.32 3.20 -5.749 -5.745 -5.739 -5.728 -5.712  8.02842 15.98972 -7.68455
 3.32 3.40 -5.718 -5.716 -5.710 -5.700 -5.685  8.16355 16.19260 -7.48168
 3.32 3.60 -5.686 -5.683 -5.678 -5.670 -5.656  8.29373 16.39489 -7.27943
 3.32 3.80 -5.650 -5.648 -5.644 -5.636 -5.624  8.42146 16.59677 -7.07760
 3.32 4.00 -5.610 -5.608 -5.605 -5.598 -5.587  8.54802 16.79824 -6.87615
 3.32 4.20 -5.571 -5.569 -5.566 -5.560 -5.549  8.67371 16.99933 -6.67499
 3.32 4.40 -5.527 -5.525 -5.522 -5.516 -5.504  8.79940 17.20022 -6.47405
 3.32 4.60 -5.479 -5.477 -5.474 -5.467 -5.456  8.92604 17.40096 -6.27332
 3.32 4.80 -5.425 -5.423 -5.421 -5.414 -5.403  9.05450 17.60159 -6.07272
 3.32 5.00 -5.366 -5.364 -5.361 -5.354 -5.343  9.18412 17.80209 -5.87225
 3.32 5.20 -5.299 -5.298 -5.295 -5.288 -5.278  9.31565 18.00238 -5.67186
 3.32 5.40 -5.224 -5.223 -5.220 -5.213 -5.203  9.44719 18.20264 -5.47154
 3.32 5.60 -5.138 -5.137 -5.134 -5.128 -5.117  9.57818 18.40289 -5.27130
 3.32 5.80 -5.038 -5.037 -5.034 -5.028 -5.018  9.70746 18.60312 -5.07111
 3.32 6.00 -4.921 -4.919 -4.916 -4.910 -4.901  9.83518 18.80332 -4.87096
 3.32 6.25 -4.741 -4.739 -4.737 -4.731 -4.723  9.98928 19.05350 -4.62080
 3.32 6.50 -4.515 -4.514 -4.512 -4.507 -4.500 10.13862 19.30363 -4.37069
 3.32 6.75 -4.231 -4.230 -4.228 -4.225 -4.219 10.28270 19.55368 -4.12066
 3.32 7.00 -4.032 -4.031 -4.030 -4.026 -4.022 10.42275 19.80373 -3.87063
 3.32 7.25 -3.909 -3.908 -3.907 -3.904 -3.900 10.55931 20.05379 -3.62057
 3.32 7.50 -3.785 -3.784 -3.783 -3.780 -3.777 10.69311 20.30384 -3.37049
 3.32 7.75 -3.662 -3.661 -3.660 -3.658 -3.655 10.82487 20.55387 -3.12040
 3.32 8.00 -3.542 -3.541 -3.540 -3.538 -3.535 10.95434 20.80387 -2.87031
 3.34-2.00 -5.858 -5.852 -5.840 -5.819 -5.792  3.82053 10.51996-13.15428
 3.34-1.50 -5.912 -5.906 -5.894 -5.873 -5.845  4.15746 11.02036-12.65404
 3.34-1.00 -5.945 -5.939 -5.927 -5.905 -5.877  4.52179 11.52114-12.15311
 3.34-0.50 -5.949 -5.943 -5.930 -5.908 -5.879  4.92886 12.02366-11.65033
 3.34 0.00 -5.925 -5.918 -5.905 -5.882 -5.854  5.37328 12.53199-11.14231
 3.34 0.50 -5.882 -5.876 -5.864 -5.842 -5.814  5.83296 13.05269-10.62160
 3.34 1.00 -5.838 -5.832 -5.820 -5.800 -5.774  6.29070 13.59329-10.08092
 3.34 1.25 -5.817 -5.811 -5.799 -5.780 -5.754  6.51606 13.87002 -9.80430
 3.34 1.50 -5.795 -5.789 -5.778 -5.759 -5.734  6.73870 14.14675 -9.52768
 3.34 1.75 -5.771 -5.765 -5.754 -5.735 -5.712  6.95763 14.42190 -9.25257
 3.34 2.00 -5.744 -5.738 -5.728 -5.709 -5.686  7.17435 14.69522 -8.97922
 3.34 2.25 -5.713 -5.706 -5.697 -5.679 -5.656  7.38982 14.96434 -8.71000
 3.34 2.50 -5.678 -5.673 -5.663 -5.647 -5.624  7.60315 15.23019 -8.44406
 3.34 2.75 -5.640 -5.635 -5.627 -5.612 -5.590  7.81390 15.49267 -8.18168
 3.34 3.00 -5.601 -5.597 -5.589 -5.575 -5.556  8.02036 15.75251 -7.92191
 3.34 3.20 -5.569 -5.566 -5.559 -5.546 -5.528  8.17828 15.95863 -7.71572
 3.34 3.40 -5.537 -5.533 -5.528 -5.516 -5.499  8.33051 16.16366 -7.51063
 3.34 3.60 -5.503 -5.501 -5.495 -5.486 -5.470  8.47606 16.36765 -7.30658
 3.34 3.80 -5.469 -5.467 -5.462 -5.454 -5.439  8.61556 16.57094 -7.10328
 3.34 4.00 -5.433 -5.431 -5.427 -5.420 -5.408  8.75020 16.77357 -6.90067
 3.34 4.20 -5.400 -5.398 -5.394 -5.387 -5.376  8.87995 16.97567 -6.69864
 3.34 4.40 -5.364 -5.363 -5.359 -5.352 -5.340  9.00767 17.17737 -6.49699
 3.34 4.60 -5.326 -5.324 -5.321 -5.313 -5.302  9.13321 17.37867 -6.29571
 3.34 4.80 -5.284 -5.283 -5.279 -5.273 -5.261  9.25806 17.57972 -6.09465
 3.34 5.00 -5.239 -5.237 -5.234 -5.227 -5.216  9.38292 17.78053 -5.89381
 3.34 5.20 -5.190 -5.188 -5.186 -5.179 -5.167  9.50892 17.98119 -5.69313
 3.34 5.40 -5.137 -5.135 -5.132 -5.126 -5.115  9.63571 18.18172 -5.49257
 3.34 5.60 -5.079 -5.078 -5.075 -5.068 -5.057  9.76384 18.38215 -5.29211
 3.34 5.80 -5.017 -5.016 -5.013 -5.006 -4.996  9.89272 18.58250 -5.09173
 3.34 6.00 -4.952 -4.950 -4.947 -4.941 -4.931 10.02160 18.78276 -4.89144
 3.34 6.25 -4.866 -4.865 -4.862 -4.856 -4.846 10.18104 19.03292 -4.64122
 3.34 6.50 -4.778 -4.776 -4.774 -4.768 -4.759 10.33846 19.28308 -4.39105
 3.34 6.75 -4.688 -4.687 -4.684 -4.678 -4.670 10.49085 19.53328 -4.14089
 3.34 7.00 -4.598 -4.597 -4.594 -4.589 -4.581 10.63899 19.78348 -3.89076
 3.34 7.25 -4.508 -4.506 -4.504 -4.499 -4.492 10.78226 20.03350 -3.64074
 3.34 7.50 -4.418 -4.417 -4.415 -4.410 -4.404 10.92169 20.28353 -3.39073
 3.34 7.75 -4.330 -4.329 -4.327 -4.323 -4.317 11.05798 20.53359 -3.14061
 3.34 8.00 -4.243 -4.241 -4.240 -4.236 -4.230 11.19089 20.78369 -2.89042
 3.36-2.00 -5.696 -5.690 -5.678 -5.656 -5.629  4.08529 10.49996-13.17438
 3.36-1.50 -5.762 -5.755 -5.743 -5.721 -5.693  4.42045 10.99996-12.67428
 3.36-1.00 -5.816 -5.809 -5.797 -5.775 -5.746  4.74997 11.50024-12.17399
 3.36-0.50 -5.847 -5.840 -5.827 -5.804 -5.775  5.09237 12.00130-11.67305
 3.36 0.00 -5.839 -5.832 -5.820 -5.796 -5.767  5.46879 12.50406-11.17025
 3.36 0.50 -5.796 -5.789 -5.776 -5.753 -5.725  5.88925 13.01242-10.66194
 3.36 1.00 -5.731 -5.724 -5.712 -5.691 -5.664  6.34183 13.53339-10.14080
 3.36 1.25 -5.696 -5.689 -5.678 -5.656 -5.630  6.57247 13.80201 -9.87221
 3.36 1.50 -5.661 -5.654 -5.642 -5.622 -5.595  6.80312 14.07445 -9.59981
 3.36 1.75 -5.625 -5.619 -5.607 -5.586 -5.560  7.03067 14.35116 -9.32312
 3.36 2.00 -5.589 -5.583 -5.572 -5.552 -5.526  7.25527 14.62788 -9.04643
 3.36 2.25 -5.552 -5.546 -5.535 -5.516 -5.490  7.47479 14.90292 -8.77136
 3.36 2.50 -5.513 -5.507 -5.497 -5.479 -5.454  7.69082 15.17609 -8.49812
 3.36 2.75 -5.469 -5.465 -5.455 -5.438 -5.415  7.90397 15.44513 -8.22910
 3.36 3.00 -5.423 -5.419 -5.411 -5.396 -5.374  8.11428 15.71088 -7.96337
 3.36 3.20 -5.385 -5.381 -5.374 -5.360 -5.340  8.28121 15.92086 -7.75335
 3.36 3.40 -5.346 -5.342 -5.336 -5.324 -5.306  8.44567 16.12919 -7.54498
 3.36 3.60 -5.306 -5.303 -5.297 -5.287 -5.270  8.60661 16.33597 -7.33820
 3.36 3.80 -5.266 -5.263 -5.259 -5.250 -5.234  8.76210 16.54158 -7.13261
 3.36 4.00 -5.226 -5.224 -5.220 -5.212 -5.199  8.91259 16.74609 -6.92812
 3.36 4.20 -5.190 -5.188 -5.184 -5.176 -5.164  9.05580 16.94956 -6.72461
 3.36 4.40 -5.153 -5.151 -5.147 -5.140 -5.127  9.19402 17.15240 -6.52175
 3.36 4.60 -5.114 -5.112 -5.109 -5.101 -5.090  9.32683 17.35467 -6.31948
 3.36 4.80 -5.074 -5.072 -5.069 -5.061 -5.050  9.45613 17.55657 -6.11761
 3.36 5.00 -5.030 -5.028 -5.025 -5.018 -5.006  9.58297 17.75808 -5.91614
 3.36 5.20 -4.983 -4.982 -4.978 -4.971 -4.960  9.70738 17.95923 -5.71504
 3.36 5.40 -4.932 -4.930 -4.927 -4.920 -4.909  9.83178 18.16016 -5.51413
 3.36 5.60 -4.875 -4.873 -4.870 -4.864 -4.853  9.95629 18.36091 -5.31338
 3.36 5.80 -4.813 -4.811 -4.808 -4.802 -4.791 10.08113 18.56153 -5.11273
 3.36 6.00 -4.746 -4.744 -4.741 -4.735 -4.724 10.20629 18.76200 -4.91222
 3.36 6.25 -4.655 -4.654 -4.652 -4.645 -4.636 10.36437 19.01237 -4.66180
 3.36 6.50 -4.561 -4.559 -4.557 -4.551 -4.542 10.52244 19.26269 -4.41150
 3.36 6.75 -4.463 -4.462 -4.459 -4.454 -4.446 10.67895 19.51300 -4.16132
 3.36 7.00 -4.365 -4.364 -4.361 -4.356 -4.349 10.83359 19.76328 -3.91116
 3.36 7.25 -4.267 -4.266 -4.264 -4.260 -4.253 10.98376 20.01334 -3.66099
 3.36 7.50 -4.172 -4.170 -4.169 -4.165 -4.159 11.13001 20.26340 -3.41083
 3.36 7.75 -4.079 -4.078 -4.076 -4.072 -4.067 11.27197 20.51351 -3.16078
 3.36 8.00 -3.989 -3.988 -3.986 -3.982 -3.978 11.40976 20.76365 -2.91080
 3.38-2.00 -5.547 -5.540 -5.528 -5.505 -5.478  4.28937 10.47986-13.19443
 3.38-1.50 -5.605 -5.599 -5.586 -5.564 -5.537  4.66153 10.97987-12.69443
 3.38-1.00 -5.665 -5.658 -5.646 -5.623 -5.594  5.00732 11.48001-12.19430
 3.38-0.50 -5.713 -5.706 -5.692 -5.668 -5.639  5.33766 11.98028-11.69400
 3.38 0.00 -5.731 -5.723 -5.710 -5.686 -5.657  5.66913 12.48130-11.19301
 3.38 0.50 -5.707 -5.700 -5.687 -5.664 -5.636  6.02202 12.98430-10.68994
 3.38 1.00 -5.644 -5.637 -5.625 -5.603 -5.575  6.41614 13.49318-10.18118
 3.38 1.25 -5.601 -5.594 -5.582 -5.559 -5.532  6.63122 13.75227 -9.92208
 3.38 1.50 -5.552 -5.545 -5.533 -5.511 -5.484  6.85370 14.01536 -9.65896
 3.38 1.75 -5.500 -5.494 -5.481 -5.460 -5.432  7.08368 14.28468 -9.38962
 3.38 2.00 -5.448 -5.442 -5.429 -5.409 -5.381  7.31366 14.55763 -9.11668
 3.38 2.25 -5.396 -5.390 -5.379 -5.359 -5.332  7.54198 14.83445 -8.83994
 3.38 2.50 -5.345 -5.339 -5.329 -5.310 -5.285  7.76819 15.11126 -8.56320
 3.38 2.75 -5.295 -5.289 -5.279 -5.262 -5.238  7.98821 15.38608 -8.28832
 3.38 3.00 -5.242 -5.238 -5.229 -5.214 -5.191  8.20385 15.65877 -8.01547
 3.38 3.20 -5.198 -5.195 -5.187 -5.173 -5.152  8.37324 15.87386 -7.80042
 3.38 3.40 -5.154 -5.151 -5.144 -5.131 -5.112  8.54045 16.08685 -7.58745
 3.38 3.60 -5.108 -5.104 -5.099 -5.087 -5.070  8.70605 16.29765 -7.37661
 3.38 3.80 -5.060 -5.057 -5.052 -5.042 -5.027  8.86977 16.50660 -7.16757
 3.38 4.00 -5.012 -5.010 -5.005 -4.997 -4.983  9.03100 16.71391 -6.96019
 3.38 4.20 -4.967 -4.965 -4.961 -4.953 -4.940  9.18802 16.91977 -6.75443
 3.38 4.40 -4.922 -4.920 -4.917 -4.909 -4.896  9.34056 17.12458 -6.54969
 3.38 4.60 -4.878 -4.876 -4.873 -4.865 -4.853  9.48751 17.32842 -6.34584
 3.38 4.80 -4.833 -4.832 -4.828 -4.821 -4.809  9.62858 17.53157 -6.14262
 3.38 5.00 -4.787 -4.786 -4.782 -4.775 -4.764  9.76477 17.73408 -5.94006
 3.38 5.20 -4.740 -4.739 -4.735 -4.728 -4.717  9.89577 17.93605 -5.73818
 3.38 5.40 -4.689 -4.687 -4.685 -4.677 -4.666 10.02400 18.13764 -5.53667
 3.38 5.60 -4.634 -4.632 -4.629 -4.623 -4.612 10.14913 18.33888 -5.33547
 3.38 5.80 -4.574 -4.573 -4.570 -4.563 -4.553 10.27305 18.53988 -5.13448
 3.38 6.00 -4.509 -4.508 -4.505 -4.499 -4.490 10.39672 18.74068 -4.93367
 3.38 6.25 -4.422 -4.421 -4.418 -4.412 -4.403 10.55112 18.99146 -4.68288
 3.38 6.50 -4.327 -4.326 -4.324 -4.318 -4.310 10.70552 19.24205 -4.43227
 3.38 6.75 -4.228 -4.227 -4.225 -4.220 -4.213 10.86086 19.49247 -4.18179
 3.38 7.00 -4.127 -4.126 -4.124 -4.120 -4.113 11.01620 19.74280 -3.93144
 3.38 7.25 -4.026 -4.024 -4.022 -4.019 -4.012 11.16970 19.99308 -3.68127
 3.38 7.50 -3.926 -3.925 -3.923 -3.919 -3.914 11.32118 20.24329 -3.43109
 3.38 7.75 -3.829 -3.828 -3.826 -3.823 -3.818 11.46854 20.49343 -3.18090
 3.38 8.00 -3.736 -3.735 -3.733 -3.730 -3.725 11.61247 20.74351 -2.93070
 3.40-2.00 -5.427 -5.420 -5.408 -5.386 -5.360  4.41296 10.45984-13.21439
 3.40-1.50 -5.469 -5.462 -5.449 -5.427 -5.400  4.83078 10.95985-12.71444
 3.40-1.00 -5.518 -5.511 -5.498 -5.475 -5.447  5.21958 11.46000-12.21439
 3.40-0.50 -5.567 -5.560 -5.546 -5.522 -5.493  5.57830 11.96000-11.71422
 3.40 0.00 -5.597 -5.590 -5.576 -5.552 -5.523  5.91482 12.46045-11.21389
 3.40 0.50 -5.594 -5.587 -5.574 -5.550 -5.521  6.24279 12.96147-10.71287
 3.40 1.00 -5.549 -5.541 -5.528 -5.505 -5.477  6.58149 13.46494-10.20943
 3.40 1.25 -5.509 -5.502 -5.489 -5.466 -5.437  6.76223 13.71868 -9.95563
 3.40 1.50 -5.459 -5.452 -5.439 -5.416 -5.388  6.95260 13.97460 -9.69962
 3.40 1.75 -5.399 -5.393 -5.379 -5.357 -5.329  7.15693 14.23463 -9.43961
 3.40 2.00 -5.334 -5.327 -5.315 -5.293 -5.265  7.37125 14.49886 -9.17542
 3.40 2.25 -5.265 -5.258 -5.247 -5.226 -5.200  7.59763 14.76929 -8.90500
 3.40 2.50 -5.195 -5.190 -5.179 -5.160 -5.134  7.82439 15.04297 -8.63134
 3.40 2.75 -5.127 -5.122 -5.113 -5.095 -5.071  8.05134 15.31984 -8.35449
 3.40 3.00 -5.060 -5.056 -5.048 -5.031 -5.009  8.27830 15.59671 -8.07764
 3.40 3.20 -5.007 -5.003 -4.996 -4.981 -4.961  8.45454 15.81640 -7.85796
 3.40 3.40 -4.955 -4.951 -4.944 -4.931 -4.912  8.62776 16.03453 -7.63984
 3.40 3.60 -4.901 -4.898 -4.891 -4.880 -4.862  8.79775 16.25051 -7.42388
 3.40 3.80 -4.846 -4.843 -4.838 -4.828 -4.812  8.96484 16.46395 -7.21048
 3.40 4.00 -4.790 -4.787 -4.783 -4.774 -4.760  9.12937 16.67532 -6.99913
 3.40 4.20 -4.737 -4.734 -4.730 -4.722 -4.709  9.29224 16.88462 -6.78981
 3.40 4.40 -4.682 -4.680 -4.676 -4.668 -4.656  9.45241 17.09235 -6.58204
 3.40 4.60 -4.628 -4.626 -4.623 -4.616 -4.604  9.60970 17.29854 -6.37579
 3.40 4.80 -4.576 -4.575 -4.571 -4.564 -4.553  9.76306 17.50360 -6.17067
 3.40 5.00 -4.523 -4.522 -4.518 -4.512 -4.500  9.91233 17.70766 -5.96658
 3.40 5.20 -4.471 -4.470 -4.467 -4.460 -4.449 10.05533 17.91086 -5.76339
 3.40 5.40 -4.418 -4.416 -4.413 -4.407 -4.397 10.19363 18.11349 -5.56077
 3.40 5.60 -4.363 -4.362 -4.358 -4.352 -4.342 10.32682 18.31558 -5.35863
 3.40 5.80 -4.305 -4.304 -4.301 -4.294 -4.285 10.45623 18.51730 -5.15685
 3.40 6.00 -4.243 -4.242 -4.239 -4.233 -4.224 10.58274 18.71867 -4.95546
 3.40 6.25 -4.161 -4.160 -4.157 -4.152 -4.144 10.73739 18.96994 -4.70436
 3.40 6.50 -4.072 -4.071 -4.069 -4.064 -4.057 10.89087 19.22089 -4.45346
 3.40 6.75 -3.979 -3.978 -3.976 -3.971 -3.964 11.04356 19.47159 -4.20262
 3.40 7.00 -3.881 -3.880 -3.878 -3.875 -3.868 11.19618 19.72214 -3.95195
 3.40 7.25 -3.781 -3.780 -3.779 -3.775 -3.769 11.34879 19.97262 -3.70166
 3.40 7.50 -3.681 -3.680 -3.678 -3.675 -3.670 11.50133 20.22298 -3.45136
 3.40 7.75 -3.582 -3.581 -3.580 -3.577 -3.572 11.65144 20.47320 -3.20107
 3.40 8.00 -3.487 -3.486 -3.484 -3.481 -3.477 11.79989 20.72329 -2.95078
 3.42-2.00 -5.338 -5.332 -5.320 -5.298 -5.273  4.47159 10.43996-13.23433
 3.42-1.50 -5.362 -5.356 -5.343 -5.321 -5.294  4.92717 10.93992-12.73448
 3.42-1.00 -5.395 -5.388 -5.375 -5.352 -5.325  5.35774 11.43996-12.23433
 3.42-0.50 -5.431 -5.423 -5.410 -5.387 -5.358  5.76118 11.93997-11.73424
 3.42 0.00 -5.459 -5.452 -5.438 -5.414 -5.384  6.13354 12.44012-11.23418
 3.42 0.50 -5.463 -5.456 -5.442 -5.418 -5.388  6.47871 12.94052-10.73377
 3.42 1.00 -5.429 -5.421 -5.408 -5.383 -5.354  6.80828 13.44185-10.23240
 3.42 1.25 -5.395 -5.387 -5.374 -5.350 -5.320  6.97352 13.69333 -9.98088
 3.42 1.50 -5.350 -5.342 -5.329 -5.305 -5.276  7.13956 13.94576 -9.72839
 3.42 1.75 -5.294 -5.286 -5.274 -5.250 -5.222  7.31313 14.20019 -9.47402
 3.42 2.00 -5.227 -5.221 -5.208 -5.186 -5.158  7.49443 14.45713 -9.21717
 3.42 2.25 -5.151 -5.145 -5.134 -5.113 -5.086  7.68901 14.71841 -8.95585
 3.42 2.50 -5.069 -5.063 -5.053 -5.034 -5.008  7.89448 14.98403 -8.69016
 3.42 2.75 -4.982 -4.977 -4.967 -4.950 -4.926  8.11401 15.25601 -8.41817
 3.42 3.00 -4.895 -4.890 -4.882 -4.866 -4.843  8.33666 15.53058 -8.14363
 3.42 3.20 -4.825 -4.821 -4.813 -4.799 -4.778  8.51647 15.75204 -7.92227
 3.42 3.40 -4.757 -4.753 -4.746 -4.734 -4.715  8.69628 15.97349 -7.70092
 3.42 3.60 -4.690 -4.686 -4.681 -4.669 -4.652  8.87418 16.19399 -7.48046
 3.42 3.80 -4.624 -4.621 -4.616 -4.606 -4.590  9.04797 16.41218 -7.26221
 3.42 4.00 -4.559 -4.556 -4.552 -4.543 -4.530  9.21880 16.62859 -7.04571
 3.42 4.20 -4.497 -4.495 -4.491 -4.482 -4.470  9.38583 16.84226 -6.83207
 3.42 4.40 -4.435 -4.433 -4.429 -4.422 -4.410  9.55007 17.05390 -6.62046
 3.42 4.60 -4.373 -4.372 -4.368 -4.362 -4.350  9.71196 17.26347 -6.41091
 3.42 4.80 -4.313 -4.312 -4.309 -4.302 -4.291  9.87148 17.47137 -6.20299
 3.42 5.00 -4.253 -4.252 -4.248 -4.242 -4.232 10.02816 17.67779 -5.99654
 3.42 5.20 -4.194 -4.193 -4.191 -4.184 -4.174 10.18153 17.88294 -5.79135
 3.42 5.40 -4.136 -4.135 -4.132 -4.126 -4.117 10.33093 18.08717 -5.58710
 3.42 5.60 -4.077 -4.076 -4.074 -4.068 -4.060 10.47558 18.29051 -5.38373
 3.42 5.80 -4.019 -4.017 -4.015 -4.009 -4.001 10.61508 18.49324 -5.18098
 3.42 6.00 -3.958 -3.957 -3.955 -3.949 -3.942 10.75012 18.69539 -4.97881
 3.42 6.25 -3.880 -3.879 -3.877 -3.872 -3.865 10.91237 18.94738 -4.72677
 3.42 6.50 -3.798 -3.797 -3.795 -3.791 -3.784 11.07004 19.19893 -4.47522
 3.42 6.75 -3.712 -3.711 -3.709 -3.705 -3.699 11.22374 19.45024 -4.22398
 3.42 7.00 -3.622 -3.621 -3.619 -3.615 -3.610 11.37585 19.70122 -3.97306
 3.42 7.25 -3.528 -3.527 -3.526 -3.522 -3.517 11.52707 19.95176 -3.72243
 3.42 7.50 -3.432 -3.431 -3.430 -3.427 -3.422 11.67752 20.20222 -3.47198
 3.42 7.75 -3.336 -3.335 -3.333 -3.330 -3.326 11.82743 20.45265 -3.22164
 3.42 8.00 -3.241 -3.240 -3.239 -3.236 -3.231 11.97672 20.70303 -2.97143
 3.44-2.00 -5.280 -5.273 -5.262 -5.241 -5.216  4.47972 10.41996-13.25438
 3.44-1.50 -5.286 -5.279 -5.267 -5.246 -5.220  4.96492 10.91991-12.75449
 3.44-1.00 -5.300 -5.294 -5.281 -5.258 -5.231  5.43201 11.41996-12.25438
 3.44-0.50 -5.320 -5.313 -5.300 -5.277 -5.248  5.87419 11.91991-11.75424
 3.44 0.00 -5.336 -5.328 -5.314 -5.291 -5.262  6.28981 12.41996-11.25430
 3.44 0.50 -5.333 -5.326 -5.312 -5.287 -5.258  6.67523 12.92012-10.75424
 3.44 1.00 -5.297 -5.290 -5.276 -5.252 -5.222  7.03060 13.42062-10.25360
 3.44 1.25 -5.263 -5.256 -5.242 -5.219 -5.189  7.19862 13.67121-10.00299
 3.44 1.50 -5.219 -5.212 -5.199 -5.175 -5.146  7.36455 13.92221 -9.75203
 3.44 1.75 -5.164 -5.158 -5.145 -5.122 -5.094  7.52892 14.17402 -9.50020
 3.44 2.00 -5.100 -5.094 -5.082 -5.060 -5.032  7.69329 14.42700 -9.24718
 3.44 2.25 -5.025 -5.019 -5.008 -4.988 -4.961  7.86272 14.68229 -8.99190
 3.44 2.50 -4.940 -4.935 -4.924 -4.906 -4.881  8.03783 14.94047 -8.73377
 3.44 2.75 -4.845 -4.841 -4.832 -4.814 -4.791  8.22494 15.20357 -8.47073
 3.44 3.00 -4.744 -4.739 -4.731 -4.715 -4.694  8.42259 15.47114 -8.20322
 3.44 3.20 -4.659 -4.655 -4.648 -4.634 -4.614  8.59183 15.69014 -7.98428
 3.44 3.40 -4.575 -4.571 -4.564 -4.552 -4.534  8.76420 15.91006 -7.76436
 3.44 3.60 -4.491 -4.487 -4.482 -4.471 -4.454  8.93988 16.13089 -7.54348
 3.44 3.80 -4.409 -4.406 -4.401 -4.391 -4.377  9.11651 16.35194 -7.32235
 3.44 4.00 -4.330 -4.328 -4.323 -4.315 -4.302  9.29314 16.57299 -7.10122
 3.44 4.20 -4.256 -4.254 -4.251 -4.243 -4.231  9.46619 16.79122 -6.88303
 3.44 4.40 -4.185 -4.183 -4.180 -4.173 -4.162  9.63665 17.00752 -6.66679
 3.44 4.60 -4.116 -4.115 -4.112 -4.105 -4.095  9.80398 17.22155 -6.45280
 3.44 4.80 -4.050 -4.048 -4.045 -4.040 -4.030  9.96795 17.43328 -6.24104
 3.44 5.00 -3.984 -3.982 -3.980 -3.974 -3.966 10.12905 17.64306 -6.03124
 3.44 5.20 -3.921 -3.919 -3.916 -3.911 -3.903 10.28786 17.85092 -5.82338
 3.44 5.40 -3.857 -3.855 -3.853 -3.848 -3.840 10.44369 18.05742 -5.61688
 3.44 5.60 -3.794 -3.793 -3.790 -3.786 -3.778 10.59650 18.26266 -5.41165
 3.44 5.80 -3.732 -3.731 -3.728 -3.724 -3.717 10.74562 18.46699 -5.20733
 3.44 6.00 -3.670 -3.669 -3.667 -3.662 -3.655 10.89087 18.67043 -5.00388
 3.44 6.25 -3.592 -3.591 -3.590 -3.586 -3.579 11.06514 18.92364 -4.75060
 3.44 6.50 -3.514 -3.513 -3.511 -3.507 -3.501 11.23274 19.17609 -4.49812
 3.44 6.75 -3.433 -3.432 -3.431 -3.428 -3.422 11.39342 19.42805 -4.24626
 3.44 7.00 -3.350 -3.350 -3.348 -3.344 -3.339 11.54962 19.67952 -3.99482
 3.44 7.25 -3.264 -3.263 -3.262 -3.258 -3.254 11.70208 19.93049 -3.74368
 3.44 7.50 -3.175 -3.174 -3.173 -3.170 -3.165 11.85248 20.18127 -3.49282
 3.44 7.75 -3.084 -3.084 -3.082 -3.080 -3.076 12.00173 20.43196 -3.24220
 3.44 8.00 -2.994 -2.994 -2.992 -2.989 -2.985 12.14953 20.68251 -2.99183
 3.46-2.00 -5.241 -5.236 -5.226 -5.208 -5.185  4.47349 10.39985-13.27442
 3.46-1.50 -5.236 -5.231 -5.219 -5.199 -5.175  4.96464 10.89988-12.77443
 3.46-1.00 -5.235 -5.229 -5.216 -5.195 -5.169  5.45347 11.39985-12.27442
 3.46-0.50 -5.237 -5.230 -5.217 -5.195 -5.167  5.92916 11.89988-11.77443
 3.46 0.00 -5.236 -5.229 -5.216 -5.193 -5.165  6.38184 12.39985-11.27433
 3.46 0.50 -5.220 -5.213 -5.199 -5.176 -5.147  6.80787 12.89993-10.77443
 3.46 1.00 -5.172 -5.165 -5.151 -5.127 -5.098  7.20466 13.40019-10.27409
 3.46 1.25 -5.133 -5.126 -5.112 -5.089 -5.060  7.39092 13.65043-10.02381
 3.46 1.50 -5.083 -5.076 -5.064 -5.040 -5.012  7.57019 13.90081 -9.77340
 3.46 1.75 -5.024 -5.017 -5.005 -4.982 -4.954  7.74224 14.15160 -9.52265
 3.46 2.00 -4.954 -4.948 -4.937 -4.915 -4.889  7.91046 14.40295 -9.27140
 3.46 2.25 -4.875 -4.869 -4.859 -4.839 -4.813  8.07513 14.65521 -9.01916
 3.46 2.50 -4.787 -4.781 -4.772 -4.753 -4.729  8.23980 14.90886 -8.76548
 3.46 2.75 -4.689 -4.684 -4.675 -4.658 -4.636  8.40756 15.16536 -8.50894
 3.46 3.00 -4.583 -4.578 -4.570 -4.555 -4.535  8.57921 15.42521 -8.24903
 3.46 3.20 -4.491 -4.487 -4.481 -4.467 -4.448  8.72413 15.63709 -8.03711
 3.46 3.40 -4.398 -4.394 -4.388 -4.376 -4.359  8.87507 15.85179 -7.82240
 3.46 3.60 -4.303 -4.299 -4.294 -4.283 -4.268  9.03409 16.07050 -7.60370
 3.46 3.80 -4.208 -4.205 -4.201 -4.191 -4.178  9.19939 16.29112 -7.38312
 3.46 4.00 -4.115 -4.113 -4.109 -4.101 -4.089  9.36829 16.51175 -7.16254
 3.46 4.20 -4.029 -4.027 -4.023 -4.016 -4.006  9.54063 16.73232 -6.94197
 3.46 4.40 -3.946 -3.944 -3.941 -3.935 -3.925  9.71297 16.95277 -6.72144
 3.46 4.60 -3.867 -3.866 -3.863 -3.857 -3.848  9.88431 17.17181 -6.50237
 3.46 4.80 -3.793 -3.791 -3.789 -3.783 -3.775 10.05311 17.38796 -6.28629
 3.46 5.00 -3.721 -3.719 -3.717 -3.712 -3.704 10.21985 17.60206 -6.07227
 3.46 5.20 -3.652 -3.651 -3.648 -3.644 -3.636 10.38312 17.81359 -5.86072
 3.46 5.40 -3.584 -3.583 -3.581 -3.577 -3.570 10.54357 18.02328 -5.65100
 3.46 5.60 -3.519 -3.518 -3.516 -3.511 -3.505 10.70137 18.23113 -5.44313
 3.46 5.80 -3.453 -3.452 -3.451 -3.446 -3.440 10.85632 18.43761 -5.23665
 3.46 6.00 -3.389 -3.388 -3.386 -3.382 -3.376 11.00817 18.64286 -5.03142
 3.46 6.25 -3.309 -3.309 -3.307 -3.303 -3.297 11.19302 18.89804 -4.77635
 3.46 6.50 -3.230 -3.230 -3.228 -3.225 -3.220 11.37181 19.15198 -4.52245
 3.46 6.75 -3.152 -3.151 -3.150 -3.146 -3.142 11.54311 19.40488 -4.26946
 3.46 7.00 -3.073 -3.072 -3.071 -3.068 -3.063 11.70808 19.65706 -4.01719
 3.46 7.25 -2.992 -2.992 -2.991 -2.988 -2.983 11.86666 19.90863 -3.76553
 3.46 7.50 -2.911 -2.910 -2.909 -2.906 -2.902 12.02078 20.15987 -3.51428
 3.46 7.75 -2.828 -2.827 -2.826 -2.823 -2.819 12.17174 20.41091 -3.26329
 3.46 8.00 -2.743 -2.742 -2.741 -2.739 -2.735 12.31911 20.66172 -3.01260
 3.48-2.00 -5.198 -5.194 -5.187 -5.174 -5.156  4.52917 10.37967-13.29465
 3.48-1.50 -5.199 -5.195 -5.185 -5.169 -5.148  4.97690 10.87955-12.79480
 3.48-1.00 -5.192 -5.186 -5.176 -5.157 -5.134  5.45408 11.37967-12.29465
 3.48-0.50 -5.181 -5.175 -5.163 -5.142 -5.116  5.94062 11.87955-11.79480
 3.48 0.00 -5.164 -5.158 -5.145 -5.122 -5.095  6.42128 12.37967-11.29465
 3.48 0.50 -5.132 -5.125 -5.112 -5.089 -5.061  6.88304 12.87961-10.79480
 3.48 1.00 -5.068 -5.061 -5.048 -5.024 -4.996  7.31848 13.37967-10.29456
 3.48 1.25 -5.019 -5.013 -4.999 -4.977 -4.948  7.52570 13.62977-10.04443
 3.48 1.50 -4.959 -4.953 -4.940 -4.918 -4.890  7.72542 13.87996 -9.79426
 3.48 1.75 -4.888 -4.882 -4.870 -4.849 -4.822  7.91677 14.13033 -9.54395
 3.48 2.00 -4.807 -4.801 -4.790 -4.770 -4.744  8.10072 14.38094 -9.29345
 3.48 2.25 -4.716 -4.711 -4.700 -4.682 -4.657  8.27693 14.63189 -9.04245
 3.48 2.50 -4.617 -4.612 -4.602 -4.585 -4.563  8.44824 14.88344 -8.79075
 3.48 2.75 -4.510 -4.505 -4.496 -4.481 -4.460  8.61442 15.13643 -8.53780
 3.48 3.00 -4.396 -4.392 -4.384 -4.370 -4.351  8.78061 15.39129 -8.28308
 3.48 3.20 -4.301 -4.297 -4.290 -4.277 -4.260  8.91452 15.59749 -8.07686
 3.48 3.40 -4.203 -4.199 -4.193 -4.182 -4.167  9.04979 15.80610 -7.86820
 3.48 3.60 -4.103 -4.100 -4.095 -4.085 -4.072  9.18858 16.01801 -7.65627
 3.48 3.80 -4.003 -4.001 -3.996 -3.988 -3.976  9.33373 16.23332 -7.44099
 3.48 4.00 -3.904 -3.902 -3.898 -3.891 -3.881  9.48402 16.45117 -7.22315
 3.48 4.20 -3.810 -3.808 -3.805 -3.798 -3.789  9.64233 16.67243 -7.00189
 3.48 4.40 -3.718 -3.717 -3.714 -3.708 -3.699  9.80418 16.89369 -6.78062
 3.48 4.60 -3.631 -3.630 -3.627 -3.622 -3.614  9.97009 17.11464 -6.55967
 3.48 4.80 -3.548 -3.547 -3.545 -3.540 -3.533 10.13740 17.33452 -6.33979
 3.48 5.00 -3.469 -3.468 -3.466 -3.461 -3.454 10.30471 17.55340 -6.12090
 3.48 5.20 -3.394 -3.393 -3.391 -3.387 -3.380 10.47046 17.76916 -5.90518
 3.48 5.40 -3.322 -3.321 -3.319 -3.316 -3.309 10.63475 17.98281 -5.69155
 3.48 5.60 -3.252 -3.251 -3.249 -3.246 -3.240 10.79698 18.19422 -5.48012
 3.48 5.80 -3.185 -3.184 -3.182 -3.178 -3.173 10.95628 18.40371 -5.27058
 3.48 6.00 -3.118 -3.117 -3.116 -3.112 -3.107 11.11294 18.61151 -5.06273
 3.48 6.25 -3.036 -3.035 -3.034 -3.031 -3.026 11.30458 18.86921 -4.80506
 3.48 6.50 -2.956 -2.955 -2.954 -2.951 -2.946 11.49122 19.12516 -4.54914
 3.48 6.75 -2.877 -2.877 -2.875 -2.872 -2.868 11.67239 19.37963 -4.29463
 3.48 7.00 -2.799 -2.799 -2.798 -2.795 -2.790 11.84751 19.63307 -4.04120
 3.48 7.25 -2.722 -2.721 -2.720 -2.718 -2.714 12.01531 19.88569 -3.78865
 3.48 7.50 -2.645 -2.644 -2.643 -2.640 -2.636 12.17696 20.13767 -3.53670
 3.48 7.75 -2.566 -2.566 -2.565 -2.563 -2.559 12.33318 20.38919 -3.28515
 3.48 8.00 -2.489 -2.488 -2.487 -2.484 -2.481 12.48373 20.64018 -3.03405
 3.50-2.00 -5.094 -5.091 -5.088 -5.080 -5.070  4.77844 10.35984-13.31435
 3.50-1.50 -5.132 -5.129 -5.123 -5.112 -5.097  5.12156 10.85992-12.81446
 3.50-1.00 -5.146 -5.141 -5.133 -5.119 -5.100  5.51561 11.35984-12.31435
 3.50-0.50 -5.139 -5.135 -5.125 -5.107 -5.085  5.95895 11.85992-11.81446
 3.50 0.00 -5.115 -5.110 -5.099 -5.078 -5.054  6.43185 12.36003-11.31435
 3.50 0.50 -5.070 -5.064 -5.051 -5.030 -5.004  6.91100 12.85992-10.81446
 3.50 1.00 -4.990 -4.983 -4.970 -4.949 -4.922  7.37767 13.36003-10.31426
 3.50 1.25 -4.932 -4.925 -4.913 -4.892 -4.864  7.60208 13.61003-10.06422
 3.50 1.50 -4.860 -4.854 -4.842 -4.821 -4.794  7.81994 13.86004 -9.81418
 3.50 1.75 -4.775 -4.770 -4.758 -4.738 -4.712  8.03068 14.11016 -9.56404
 3.50 2.00 -4.678 -4.673 -4.662 -4.642 -4.618  8.23401 14.36040 -9.31381
 3.50 2.25 -4.571 -4.566 -4.555 -4.537 -4.515  8.42918 14.61087 -9.06342
 3.50 2.50 -4.454 -4.449 -4.441 -4.424 -4.403  8.61679 14.86166 -8.81276
 3.50 2.75 -4.332 -4.327 -4.319 -4.304 -4.285  8.79627 15.11304 -8.56137
 3.50 3.00 -4.204 -4.200 -4.193 -4.180 -4.163  8.97030 15.36530 -8.30901
 3.50 3.20 -4.100 -4.096 -4.090 -4.078 -4.063  9.10475 15.56834 -8.10596
 3.50 3.40 -3.994 -3.992 -3.986 -3.976 -3.962  9.23920 15.77287 -7.90142
 3.50 3.60 -3.889 -3.887 -3.882 -3.873 -3.861  9.37381 15.97944 -7.69486
 3.50 3.80 -3.784 -3.783 -3.778 -3.771 -3.760  9.50917 16.18896 -7.48531
 3.50 4.00 -3.682 -3.680 -3.677 -3.671 -3.661  9.64532 16.40123 -7.27303
 3.50 4.20 -3.583 -3.582 -3.579 -3.573 -3.565  9.78716 16.61787 -7.05643
 3.50 4.40 -3.488 -3.487 -3.484 -3.479 -3.472  9.93318 16.83642 -6.83791
 3.50 4.60 -3.397 -3.396 -3.393 -3.389 -3.382 10.08463 17.05714 -6.61717
 3.50 4.80 -3.310 -3.309 -3.307 -3.302 -3.296 10.24060 17.27862 -6.39564
 3.50 5.00 -3.226 -3.225 -3.223 -3.220 -3.214 10.39950 17.50010 -6.17412
 3.50 5.20 -3.147 -3.146 -3.144 -3.141 -3.135 10.56155 17.71959 -5.95471
 3.50 5.40 -3.071 -3.070 -3.068 -3.065 -3.060 10.72359 17.93742 -5.73698
 3.50 5.60 -2.997 -2.997 -2.995 -2.992 -2.987 10.88533 18.15301 -5.52142
 3.50 5.80 -2.926 -2.926 -2.924 -2.921 -2.916 11.04602 18.36606 -5.30830
 3.50 6.00 -2.858 -2.857 -2.856 -2.853 -2.848 11.20575 18.57703 -5.09724
 3.50 6.25 -2.775 -2.774 -2.772 -2.769 -2.765 11.40179 18.83797 -4.83631
 3.50 6.50 -2.693 -2.692 -2.691 -2.688 -2.684 11.59406 19.09656 -4.57774
 3.50 6.75 -2.613 -2.612 -2.611 -2.608 -2.604 11.78162 19.35321 -4.32111
 3.50 7.00 -2.535 -2.534 -2.533 -2.530 -2.527 11.96407 19.60831 -4.06601
 3.50 7.25 -2.458 -2.458 -2.457 -2.454 -2.450 12.14057 19.86207 -3.81217
 3.50 7.50 -2.382 -2.382 -2.381 -2.379 -2.375 12.31091 20.11494 -3.55925
 3.50 7.75 -2.308 -2.308 -2.307 -2.304 -2.301 12.47442 20.36725 -3.30697
 3.50 8.00 -2.234 -2.234 -2.232 -2.230 -2.227 12.63134 20.61889 -3.05542
 3.52-2.00 -4.895 -4.895 -4.893 -4.890 -4.887  5.17955 10.33985-13.33433
 3.52-1.50 -4.984 -4.982 -4.980 -4.974 -4.967  5.46090 10.83992-12.83446
 3.52-1.00 -5.044 -5.042 -5.038 -5.029 -5.017  5.76515 11.33985-12.33433
 3.52-0.50 -5.074 -5.070 -5.064 -5.052 -5.036  6.10619 11.83992-11.83446
 3.52 0.00 -5.069 -5.065 -5.056 -5.041 -5.022  6.49776 12.33985-11.33432
 3.52 0.50 -5.026 -5.021 -5.011 -4.993 -4.971  6.93757 12.83992-10.83446
 3.52 1.00 -4.936 -4.931 -4.920 -4.900 -4.877  7.40432 13.34005-10.33433
 3.52 1.25 -4.871 -4.865 -4.854 -4.835 -4.811  7.63762 13.59001-10.08424
 3.52 1.50 -4.789 -4.784 -4.773 -4.754 -4.730  7.87076 13.83998 -9.83416
 3.52 1.75 -4.693 -4.687 -4.677 -4.659 -4.635  8.09713 14.09009 -9.58415
 3.52 2.00 -4.581 -4.576 -4.566 -4.547 -4.525  8.31785 14.34025 -9.33414
 3.52 2.25 -4.456 -4.451 -4.441 -4.425 -4.404  8.53136 14.59042 -9.08395
 3.52 2.50 -4.321 -4.316 -4.307 -4.293 -4.273  8.73767 14.84067 -8.83357
 3.52 2.75 -4.179 -4.175 -4.167 -4.154 -4.136  8.93614 15.09131 -8.58294
 3.52 3.00 -4.033 -4.030 -4.023 -4.012 -3.996  9.12710 15.34242 -8.33189
 3.52 3.20 -3.916 -3.913 -3.907 -3.897 -3.883  9.27377 15.54387 -8.13046
 3.52 3.40 -3.799 -3.796 -3.791 -3.782 -3.770  9.41675 15.74610 -7.92823
 3.52 3.60 -3.684 -3.681 -3.677 -3.669 -3.658  9.55505 15.94940 -7.72494
 3.52 3.80 -3.571 -3.568 -3.564 -3.558 -3.548  9.69143 16.15460 -7.51975
 3.52 4.00 -3.460 -3.458 -3.455 -3.450 -3.441  9.82782 16.36173 -7.31265
 3.52 4.20 -3.354 -3.353 -3.351 -3.345 -3.338  9.96431 16.57225 -7.10211
 3.52 4.40 -3.253 -3.252 -3.250 -3.245 -3.239 10.10098 16.78562 -6.88871
 3.52 4.60 -3.158 -3.157 -3.154 -3.150 -3.144 10.23977 17.00300 -6.67133
 3.52 4.80 -3.067 -3.066 -3.064 -3.061 -3.055 10.38290 17.22278 -6.45156
 3.52 5.00 -2.981 -2.980 -2.979 -2.976 -2.970 10.52917 17.44326 -6.23107
 3.52 5.20 -2.901 -2.900 -2.898 -2.895 -2.890 10.67994 17.66423 -6.01009
 3.52 5.40 -2.823 -2.822 -2.821 -2.818 -2.813 10.83296 17.88519 -5.78910
 3.52 5.60 -2.749 -2.748 -2.747 -2.744 -2.739 10.98862 18.10493 -5.56937
 3.52 5.80 -2.677 -2.676 -2.675 -2.672 -2.668 11.14526 18.32193 -5.35239
 3.52 6.00 -2.607 -2.606 -2.605 -2.602 -2.598 11.30190 18.53694 -5.13739
 3.52 6.25 -2.522 -2.521 -2.520 -2.518 -2.514 11.49718 18.80200 -4.87227
 3.52 6.50 -2.440 -2.440 -2.439 -2.436 -2.432 11.69170 19.06409 -4.61013
 3.52 6.75 -2.360 -2.360 -2.358 -2.356 -2.352 11.88280 19.32356 -4.35065
 3.52 7.00 -2.281 -2.281 -2.280 -2.277 -2.274 12.07041 19.58092 -4.09329
 3.52 7.25 -2.205 -2.204 -2.203 -2.201 -2.198 12.25297 19.83639 -3.83777
 3.52 7.50 -2.130 -2.129 -2.128 -2.126 -2.123 12.43024 20.09061 -3.58353
 3.52 7.75 -2.057 -2.056 -2.055 -2.053 -2.050 12.60109 20.34403 -3.33016
 3.52 8.00 -1.986 -1.985 -1.984 -1.982 -1.979 12.76589 20.59649 -3.07779
 3.54-2.00 -4.627 -4.627 -4.627 -4.626 -4.625  5.62107 10.31994-13.35438
 3.54-1.50 -4.752 -4.752 -4.751 -4.749 -4.747  5.88144 10.81987-12.85449
 3.54-1.00 -4.857 -4.856 -4.854 -4.851 -4.846  6.14953 11.31994-12.35438
 3.54-0.50 -4.935 -4.933 -4.930 -4.924 -4.915  6.43152 11.81987-11.85449
 3.54 0.00 -4.975 -4.972 -4.968 -4.958 -4.945  6.73687 12.31994-11.35438
 3.54 0.50 -4.964 -4.961 -4.954 -4.942 -4.927  7.07954 12.81987-10.85449
 3.54 1.00 -4.891 -4.886 -4.878 -4.864 -4.846  7.47202 13.31994-10.35428
 3.54 1.25 -4.826 -4.822 -4.813 -4.799 -4.780  7.68732 13.56994-10.10439
 3.54 1.50 -4.742 -4.738 -4.729 -4.713 -4.693  7.90934 13.81994 -9.85449
 3.54 1.75 -4.639 -4.633 -4.625 -4.610 -4.591  8.13760 14.07004 -9.60434
 3.54 2.00 -4.516 -4.511 -4.503 -4.488 -4.468  8.36586 14.32015 -9.35419
 3.54 2.25 -4.377 -4.373 -4.365 -4.351 -4.332  8.59116 14.57021 -9.10403
 3.54 2.50 -4.226 -4.222 -4.215 -4.201 -4.184  8.81312 14.82027 -8.85387
 3.54 2.75 -4.066 -4.062 -4.056 -4.043 -4.028  9.02811 15.07060 -8.60361
 3.54 3.00 -3.902 -3.898 -3.892 -3.881 -3.867  9.23654 15.32119 -8.35320
 3.54 3.20 -3.770 -3.766 -3.761 -3.752 -3.739  9.39772 15.52186 -8.15255
 3.54 3.40 -3.639 -3.636 -3.632 -3.623 -3.612  9.55423 15.72289 -7.95147
 3.54 3.60 -3.509 -3.507 -3.503 -3.496 -3.486  9.70558 15.92447 -7.74985
 3.54 3.80 -3.384 -3.382 -3.378 -3.372 -3.363  9.85253 16.12718 -7.54715
 3.54 4.00 -3.262 -3.260 -3.257 -3.252 -3.244  9.99581 16.33102 -7.34333
 3.54 4.20 -3.145 -3.143 -3.140 -3.136 -3.129 10.13456 16.53692 -7.13744
 3.54 4.40 -3.033 -3.032 -3.029 -3.025 -3.019 10.27296 16.74516 -6.92920
 3.54 4.60 -2.927 -2.926 -2.924 -2.921 -2.915 10.41104 16.95661 -6.71772
 3.54 4.80 -2.828 -2.828 -2.826 -2.822 -2.817 10.54906 17.17149 -6.50279
 3.54 5.00 -2.736 -2.735 -2.734 -2.731 -2.726 10.68708 17.38899 -6.28525
 3.54 5.20 -2.651 -2.650 -2.649 -2.646 -2.641 10.82836 17.61014 -6.06410
 3.54 5.40 -2.572 -2.571 -2.570 -2.567 -2.563 10.97170 17.83129 -5.84294
 3.54 5.60 -2.497 -2.497 -2.495 -2.493 -2.489 11.11759 18.05220 -5.62202
 3.54 5.80 -2.427 -2.426 -2.425 -2.422 -2.419 11.26561 18.27227 -5.40197
 3.54 6.00 -2.358 -2.358 -2.357 -2.355 -2.351 11.41514 18.49150 -5.18277
 3.54 6.25 -2.276 -2.275 -2.274 -2.271 -2.268 11.60422 18.76128 -4.91307
 3.54 6.50 -2.195 -2.195 -2.194 -2.191 -2.188 11.79330 19.02776 -4.64666
 3.54 6.75 -2.116 -2.115 -2.114 -2.112 -2.108 11.98222 19.29072 -4.38363
 3.54 7.00 -2.038 -2.037 -2.036 -2.034 -2.032 12.17085 19.55096 -4.12332
 3.54 7.25 -1.962 -1.961 -1.960 -1.958 -1.956 12.35610 19.80877 -3.86549
 3.54 7.50 -1.888 -1.887 -1.886 -1.884 -1.881 12.53794 20.06483 -3.60942
 3.54 7.75 -1.816 -1.816 -1.815 -1.812 -1.809 12.71411 20.31967 -3.35459
 3.54 8.00 -1.747 -1.746 -1.745 -1.743 -1.740 12.88536 20.57310 -3.10116
 3.56-2.00 -4.323 -4.322 -4.322 -4.322 -4.321  6.06258 10.29994-13.37448
 3.56-1.50 -4.472 -4.472 -4.471 -4.471 -4.470  6.31597 10.79982-12.87452
 3.56-1.00 -4.605 -4.605 -4.604 -4.603 -4.602  6.57241 11.29994-12.37438
 3.56-0.50 -4.719 -4.718 -4.717 -4.715 -4.711  6.83334 11.79982-11.87452
 3.56 0.00 -4.802 -4.801 -4.799 -4.795 -4.789  7.10278 12.29994-11.37438
 3.56 0.50 -4.839 -4.837 -4.833 -4.827 -4.818  7.38650 12.79982-10.87452
 3.56 1.00 -4.806 -4.803 -4.798 -4.789 -4.778  7.69531 13.29994-10.37438
 3.56 1.25 -4.756 -4.754 -4.749 -4.739 -4.727  7.86361 13.54988-10.12445
 3.56 1.50 -4.684 -4.680 -4.675 -4.665 -4.651  8.04258 13.79982 -9.87452
 3.56 1.75 -4.586 -4.583 -4.577 -4.567 -4.553  8.23495 14.04988 -9.62446
 3.56 2.00 -4.465 -4.461 -4.455 -4.444 -4.431  8.43775 14.29994 -9.37438
 3.56 2.25 -4.322 -4.319 -4.313 -4.302 -4.289  8.65227 14.54999 -9.12430
 3.56 2.50 -4.163 -4.159 -4.154 -4.143 -4.129  8.86988 14.80003 -8.87420
 3.56 2.75 -3.991 -3.988 -3.982 -3.973 -3.960  9.08965 15.05015 -8.62406
 3.56 3.00 -3.812 -3.809 -3.805 -3.796 -3.784  9.30942 15.30038 -8.37387
 3.56 3.20 -3.667 -3.665 -3.661 -3.652 -3.641  9.48109 15.50072 -8.17351
 3.56 3.40 -3.523 -3.521 -3.516 -3.509 -3.499  9.64954 15.70126 -7.97294
 3.56 3.60 -3.379 -3.377 -3.374 -3.367 -3.358  9.81412 15.90206 -7.77212
 3.56 3.80 -3.239 -3.237 -3.234 -3.229 -3.220  9.97405 16.10341 -7.57078
 3.56 4.00 -3.103 -3.101 -3.099 -3.094 -3.086 10.12969 16.30535 -7.36886
 3.56 4.20 -2.972 -2.971 -2.968 -2.964 -2.957 10.28015 16.50850 -7.16576
 3.56 4.40 -2.846 -2.845 -2.843 -2.839 -2.833 10.42711 16.71319 -6.96113
 3.56 4.60 -2.727 -2.726 -2.724 -2.720 -2.715 10.57000 16.91992 -6.75441
 3.56 4.80 -2.614 -2.613 -2.612 -2.609 -2.604 10.71079 17.12960 -6.54467
 3.56 5.00 -2.510 -2.509 -2.508 -2.505 -2.500 10.85071 17.34203 -6.33217
 3.56 5.20 -2.414 -2.413 -2.412 -2.409 -2.405 10.99000 17.55895 -6.11526
 3.56 5.40 -2.327 -2.326 -2.325 -2.322 -2.318 11.12929 17.77768 -5.89653
 3.56 5.60 -2.247 -2.246 -2.245 -2.243 -2.239 11.26918 17.99846 -5.67576
 3.56 5.80 -2.174 -2.174 -2.172 -2.170 -2.167 11.41039 18.21992 -5.45430
 3.56 6.00 -2.106 -2.106 -2.105 -2.103 -2.099 11.55255 18.44138 -5.23284
 3.56 6.25 -2.027 -2.027 -2.025 -2.023 -2.019 11.73196 18.71525 -4.95900
 3.56 6.50 -1.950 -1.950 -1.949 -1.946 -1.943 11.91270 18.98646 -4.68782
 3.56 6.75 -1.875 -1.875 -1.874 -1.872 -1.869 12.09504 19.25362 -4.42067
 3.56 7.00 -1.801 -1.801 -1.799 -1.797 -1.795 12.27738 19.51759 -4.15670
 3.56 7.25 -1.728 -1.728 -1.727 -1.725 -1.721 12.45954 19.77851 -3.89584
 3.56 7.50 -1.656 -1.655 -1.654 -1.652 -1.649 12.64138 20.03703 -3.63733
 3.56 7.75 -1.586 -1.585 -1.584 -1.582 -1.579 12.81928 20.29372 -3.38059
 3.56 8.00 -1.518 -1.518 -1.516 -1.514 -1.510 12.99445 20.54839 -3.12581
 3.58-2.00 -3.998 -3.997 -3.997 -3.997 -3.996  6.48813 10.27990-13.39448
 3.58-1.50 -4.165 -4.165 -4.165 -4.165 -4.164  6.73949 10.77981-12.89449
 3.58-1.00 -4.319 -4.319 -4.318 -4.318 -4.317  6.99189 11.27989-12.39437
 3.58-0.50 -4.455 -4.455 -4.454 -4.453 -4.453  7.24576 11.77981-11.89449
 3.58 0.00 -4.566 -4.566 -4.565 -4.563 -4.561  7.50284 12.27989-11.39437
 3.58 0.50 -4.636 -4.635 -4.634 -4.631 -4.628  7.76507 12.77981-10.89449
 3.58 1.00 -4.641 -4.640 -4.638 -4.633 -4.628  8.03663 13.27990-10.39437
 3.58 1.25 -4.612 -4.611 -4.608 -4.603 -4.596  8.17802 13.52985-10.14443
 3.58 1.50 -4.558 -4.557 -4.553 -4.549 -4.541  8.32449 13.77981 -9.89449
 3.58 1.75 -4.480 -4.477 -4.474 -4.468 -4.460  8.47785 14.02985 -9.64443
 3.58 2.00 -4.374 -4.373 -4.369 -4.362 -4.354  8.63919 14.27989 -9.39437
 3.58 2.25 -4.245 -4.243 -4.239 -4.232 -4.224  8.81108 14.52993 -9.14443
 3.58 2.50 -4.094 -4.092 -4.088 -4.081 -4.072  8.99326 14.77996 -8.89449
 3.58 2.75 -3.926 -3.924 -3.920 -3.913 -3.904  9.18802 15.03002 -8.64437
 3.58 3.00 -3.745 -3.743 -3.739 -3.733 -3.724  9.39041 15.28012 -8.39416
 3.58 3.20 -3.596 -3.594 -3.590 -3.584 -3.575  9.55871 15.48029 -8.19395
 3.58 3.40 -3.443 -3.441 -3.438 -3.432 -3.423  9.72702 15.68057 -7.99365
 3.58 3.60 -3.290 -3.289 -3.285 -3.280 -3.272  9.89506 15.88097 -7.79324
 3.58 3.80 -3.139 -3.137 -3.134 -3.129 -3.122 10.06201 16.08165 -7.59256
 3.58 4.00 -2.989 -2.988 -2.985 -2.981 -2.973 10.22789 16.28262 -7.39158
 3.58 4.20 -2.845 -2.844 -2.841 -2.836 -2.830 10.38923 16.48427 -7.18992
 3.58 4.40 -2.704 -2.703 -2.701 -2.697 -2.691 10.54708 16.68683 -6.98735
 3.58 4.60 -2.570 -2.568 -2.566 -2.563 -2.557 10.70083 16.89058 -6.78362
 3.58 4.80 -2.441 -2.440 -2.438 -2.435 -2.430 10.85071 17.09640 -6.57787
 3.58 5.00 -2.321 -2.320 -2.319 -2.315 -2.311 10.99743 17.30428 -6.37008
 3.58 5.20 -2.210 -2.209 -2.207 -2.204 -2.200 11.14089 17.51577 -6.15855
 3.58 5.40 -2.107 -2.107 -2.105 -2.103 -2.099 11.28289 17.73007 -5.94419
 3.58 5.60 -2.015 -2.014 -2.013 -2.011 -2.007 11.42344 17.94839 -5.72579
 3.58 5.80 -1.933 -1.932 -1.931 -1.929 -1.926 11.56338 18.16877 -5.50538
 3.58 6.00 -1.860 -1.859 -1.858 -1.856 -1.853 11.70295 18.38935 -5.28483
 3.58 6.25 -1.777 -1.777 -1.776 -1.774 -1.771 11.87705 18.66521 -5.00907
 3.58 6.50 -1.703 -1.702 -1.701 -1.699 -1.696 12.05115 18.94107 -4.73330
 3.58 6.75 -1.633 -1.632 -1.631 -1.629 -1.625 12.22547 19.21243 -4.46186
 3.58 7.00 -1.564 -1.564 -1.563 -1.560 -1.557 12.40002 19.48058 -4.19362
 3.58 7.25 -1.497 -1.496 -1.495 -1.493 -1.490 12.57538 19.74497 -3.92924
 3.58 7.50 -1.430 -1.429 -1.428 -1.426 -1.422 12.75074 20.00647 -3.66776
 3.58 7.75 -1.363 -1.363 -1.362 -1.359 -1.356 12.92530 20.26564 -3.40860
 3.58 8.00 -1.298 -1.298 -1.296 -1.294 -1.290 13.09934 20.52231 -3.15193
 3.60-2.00 -3.660 -3.660 -3.660 -3.659 -3.659  6.89664 10.25959-13.41454
 3.60-1.50 -3.845 -3.845 -3.844 -3.844 -3.843  7.14737 10.75974-12.91435
 3.60-1.00 -4.014 -4.014 -4.014 -4.013 -4.012  7.39829 11.25983-12.41443
 3.60-0.50 -4.167 -4.167 -4.166 -4.166 -4.165  7.64982 11.75982-11.91435
 3.60 0.00 -4.294 -4.294 -4.293 -4.293 -4.291  7.90255 12.25983-11.41443
 3.60 0.50 -4.381 -4.381 -4.380 -4.379 -4.377  8.15715 12.75982-10.91435
 3.60 1.00 -4.405 -4.405 -4.404 -4.402 -4.399  8.41531 13.25983-10.41443
 3.60 1.25 -4.386 -4.385 -4.385 -4.383 -4.379  8.54644 13.50986-10.16439
 3.60 1.50 -4.345 -4.344 -4.343 -4.340 -4.336  8.67952 13.75990 -9.91435
 3.60 1.75 -4.280 -4.279 -4.277 -4.274 -4.270  8.81537 14.00986 -9.66433
 3.60 2.00 -4.193 -4.192 -4.190 -4.187 -4.182  8.95463 14.25983 -9.41431
 3.60 2.25 -4.084 -4.083 -4.081 -4.077 -4.073  9.09849 14.50985 -9.16433
 3.60 2.50 -3.956 -3.955 -3.952 -3.949 -3.943  9.24797 14.75989 -8.91435
 3.60 2.75 -3.809 -3.808 -3.805 -3.801 -3.795  9.40519 15.00997 -8.66429
 3.60 3.00 -3.647 -3.645 -3.643 -3.638 -3.633  9.57066 15.26007 -8.41420
 3.60 3.20 -3.508 -3.506 -3.504 -3.499 -3.493  9.71067 15.46016 -8.21413
 3.60 3.40 -3.362 -3.360 -3.358 -3.353 -3.347  9.85626 15.66028 -8.01405
 3.60 3.60 -3.212 -3.211 -3.208 -3.203 -3.197 10.00854 15.86045 -7.81387
 3.60 3.80 -3.060 -3.058 -3.056 -3.051 -3.044 10.16511 16.06078 -7.61346
 3.60 4.00 -2.906 -2.904 -2.902 -2.897 -2.890 10.32408 16.26126 -7.41285
 3.60 4.20 -2.753 -2.752 -2.750 -2.744 -2.739 10.48514 16.46215 -7.21196
 3.60 4.40 -2.602 -2.601 -2.599 -2.594 -2.588 10.64620 16.66357 -7.01060
 3.60 4.60 -2.455 -2.453 -2.452 -2.447 -2.442 10.80623 16.86562 -6.80860
 3.60 4.80 -2.312 -2.311 -2.310 -2.306 -2.301 10.96364 17.06889 -6.60534
 3.60 5.00 -2.176 -2.175 -2.174 -2.171 -2.165 11.11893 17.27346 -6.40077
 3.60 5.20 -2.048 -2.047 -2.046 -2.043 -2.038 11.27047 17.48062 -6.19366
 3.60 5.40 -1.929 -1.928 -1.926 -1.924 -1.919 11.41933 17.69037 -5.98395
 3.60 5.60 -1.819 -1.818 -1.817 -1.815 -1.811 11.56548 17.90362 -5.77069
 3.60 5.80 -1.721 -1.721 -1.720 -1.717 -1.714 11.70938 18.12010 -5.55415
 3.60 6.00 -1.634 -1.634 -1.633 -1.631 -1.627 11.85126 18.33885 -5.33536
 3.60 6.25 -1.542 -1.541 -1.540 -1.538 -1.534 12.02624 18.61570 -5.05854
 3.60 6.50 -1.461 -1.460 -1.459 -1.457 -1.453 12.19893 18.89254 -4.78173
 3.60 6.75 -1.390 -1.390 -1.389 -1.386 -1.383 12.36940 19.16727 -4.50698
 3.60 7.00 -1.325 -1.325 -1.324 -1.321 -1.317 12.53870 19.43981 -4.23440
 3.60 7.25 -1.263 -1.263 -1.261 -1.259 -1.256 12.70717 19.70814 -3.96603
 3.60 7.50 -1.203 -1.203 -1.201 -1.199 -1.195 12.87512 19.97322 -3.70093
 3.60 7.75 -1.144 -1.143 -1.142 -1.139 -1.136 13.04277 20.23535 -3.43887
 3.60 8.00 -1.084 -1.084 -1.082 -1.080 -1.076 13.21005 20.49443 -3.17993
 3.62-2.00 -3.316 -3.315 -3.315 -3.314 -3.313  7.28870 10.23930-13.43486
 3.62-1.50 -3.514 -3.514 -3.513 -3.513 -3.512  7.53920 10.73957-12.93479
 3.62-1.00 -3.699 -3.699 -3.699 -3.698 -3.697  7.78979 11.23980-12.43462
 3.62-0.50 -3.866 -3.866 -3.865 -3.864 -3.863  8.04060 11.73973-11.93442
 3.62 0.00 -4.005 -4.005 -4.004 -4.004 -4.002  8.29159 12.23980-11.43451
 3.62 0.50 -4.100 -4.100 -4.099 -4.098 -4.097  8.54345 12.73981-10.93442
 3.62 1.00 -4.129 -4.129 -4.128 -4.127 -4.125  8.79664 13.23980-10.43439
 3.62 1.25 -4.113 -4.112 -4.111 -4.110 -4.108  8.92409 13.48981-10.18441
 3.62 1.50 -4.074 -4.073 -4.072 -4.071 -4.069  9.05231 13.73981 -9.93442
 3.62 1.75 -4.014 -4.013 -4.012 -4.010 -4.008  9.18148 13.98981 -9.68440
 3.62 2.00 -3.935 -3.934 -3.933 -3.930 -3.927  9.31197 14.23980 -9.43439
 3.62 2.25 -3.838 -3.837 -3.836 -3.834 -3.830  9.44440 14.48980 -9.18440
 3.62 2.50 -3.727 -3.727 -3.725 -3.723 -3.719  9.57921 14.73981 -8.93442
 3.62 2.75 -3.604 -3.603 -3.601 -3.598 -3.594  9.71722 14.98993 -8.68442
 3.62 3.00 -3.467 -3.466 -3.464 -3.461 -3.457  9.85914 15.24005 -8.43439
 3.62 3.20 -3.350 -3.348 -3.346 -3.343 -3.338  9.97640 15.44005 -8.23426
 3.62 3.40 -3.224 -3.223 -3.221 -3.217 -3.212 10.09754 15.64005 -8.03412
 3.62 3.60 -3.091 -3.090 -3.088 -3.084 -3.079 10.22314 15.84009 -7.83398
 3.62 3.80 -2.953 -2.951 -2.949 -2.945 -2.939 10.35395 16.04026 -7.63383
 3.62 4.00 -2.808 -2.807 -2.805 -2.801 -2.795 10.48968 16.24055 -7.43368
 3.62 4.20 -2.661 -2.660 -2.658 -2.653 -2.647 10.63149 16.44104 -7.23318
 3.62 4.40 -2.512 -2.511 -2.508 -2.504 -2.498 10.77720 16.64183 -7.03235
 3.62 4.60 -2.362 -2.360 -2.359 -2.354 -2.348 10.92768 16.84297 -6.83120
 3.62 4.80 -2.213 -2.212 -2.210 -2.206 -2.200 11.08021 17.04484 -6.62941
 3.62 5.00 -2.067 -2.066 -2.065 -2.061 -2.055 11.23300 17.24748 -6.42690
 3.62 5.20 -1.926 -1.925 -1.924 -1.920 -1.915 11.38593 17.45167 -6.22275
 3.62 5.40 -1.791 -1.791 -1.789 -1.786 -1.782 11.53885 17.65774 -6.01668
 3.62 5.60 -1.666 -1.665 -1.664 -1.661 -1.657 11.69064 17.86638 -5.80800
 3.62 5.80 -1.550 -1.550 -1.549 -1.546 -1.542 11.83981 18.07833 -5.59600
 3.62 6.00 -1.446 -1.446 -1.444 -1.442 -1.438 11.98700 18.29314 -5.38112
 3.62 6.25 -1.334 -1.333 -1.332 -1.330 -1.326 12.16740 18.56748 -5.10672
 3.62 6.50 -1.239 -1.238 -1.237 -1.235 -1.231 12.34400 18.84298 -4.83121
 3.62 6.75 -1.159 -1.159 -1.158 -1.155 -1.151 12.51633 19.11924 -4.55499
 3.62 7.00 -1.091 -1.090 -1.089 -1.087 -1.083 12.68520 19.39550 -4.27877
 3.62 7.25 -1.030 -1.030 -1.029 -1.026 -1.022 12.85086 19.66764 -4.00661
 3.62 7.50 -0.975 -0.974 -0.973 -0.970 -0.966 13.01410 19.93666 -3.73755
 3.62 7.75 -0.922 -0.922 -0.920 -0.917 -0.913 13.17557 20.20208 -3.47212
 3.62 8.00 -0.870 -0.870 -0.868 -0.866 -0.861 13.33506 20.46404 -3.21014
 3.64-2.00 -2.967 -2.967 -2.967 -2.965 -2.964  7.66162 10.21880-13.45556
 3.64-1.50 -3.179 -3.179 -3.178 -3.177 -3.176  7.91233 10.71917-12.95507
 3.64-1.00 -3.378 -3.377 -3.377 -3.376 -3.374  8.16286 11.21958-12.45469
 3.64-0.50 -3.558 -3.558 -3.557 -3.556 -3.554  8.41330 11.71966-11.95468
 3.64 0.00 -3.709 -3.709 -3.708 -3.707 -3.705  8.66389 12.21985-11.45445
 3.64 0.50 -3.810 -3.810 -3.809 -3.808 -3.806  8.91471 12.71983-10.95429
 3.64 1.00 -3.840 -3.840 -3.839 -3.837 -3.835  9.16613 13.21985-10.45445
 3.64 1.25 -3.822 -3.822 -3.821 -3.820 -3.817  9.29208 13.46984-10.20437
 3.64 1.50 -3.783 -3.782 -3.782 -3.780 -3.777  9.41830 13.71983 -9.95429
 3.64 1.75 -3.723 -3.722 -3.722 -3.719 -3.717  9.54505 13.96983 -9.70430
 3.64 2.00 -3.645 -3.645 -3.643 -3.642 -3.639  9.67238 14.21985 -9.45432
 3.64 2.25 -3.553 -3.553 -3.552 -3.549 -3.546  9.80040 14.46988 -9.20430
 3.64 2.50 -3.450 -3.450 -3.448 -3.445 -3.442  9.92937 14.71991 -8.95429
 3.64 2.75 -3.338 -3.337 -3.336 -3.333 -3.329 10.05971 14.96988 -8.70430
 3.64 3.00 -3.218 -3.217 -3.215 -3.212 -3.208 10.19173 15.21985 -8.45432
 3.64 3.20 -3.115 -3.114 -3.113 -3.110 -3.105 10.29891 15.41988 -8.25432
 3.64 3.40 -3.008 -3.007 -3.005 -3.002 -2.997 10.40786 15.61995 -8.05430
 3.64 3.60 -2.895 -2.895 -2.892 -2.889 -2.883 10.51877 15.82005 -7.85425
 3.64 3.80 -2.777 -2.776 -2.774 -2.769 -2.764 10.63243 16.02018 -7.65413
 3.64 4.00 -2.653 -2.651 -2.649 -2.645 -2.639 10.74889 16.22037 -7.45395
 3.64 4.20 -2.523 -2.521 -2.519 -2.515 -2.508 10.86908 16.42062 -7.25372
 3.64 4.40 -2.387 -2.386 -2.384 -2.379 -2.373 10.99309 16.62100 -7.05335
 3.64 4.60 -2.248 -2.246 -2.244 -2.240 -2.233 11.12138 16.82160 -6.85277
 3.64 4.80 -2.106 -2.104 -2.102 -2.098 -2.092 11.25402 17.02269 -6.65170
 3.64 5.00 -1.962 -1.961 -1.959 -1.955 -1.949 11.39058 17.22428 -6.45014
 3.64 5.20 -1.819 -1.818 -1.817 -1.813 -1.807 11.53157 17.42668 -6.24765
 3.64 5.40 -1.678 -1.678 -1.676 -1.673 -1.667 11.67488 17.63030 -6.04391
 3.64 5.60 -1.543 -1.543 -1.541 -1.538 -1.533 11.82092 17.83563 -5.83853
 3.64 5.80 -1.415 -1.414 -1.413 -1.410 -1.405 11.96793 18.04369 -5.63057
 3.64 6.00 -1.295 -1.295 -1.293 -1.291 -1.286 12.11494 18.25431 -5.42010
 3.64 6.25 -1.162 -1.162 -1.160 -1.158 -1.153 12.29772 18.52308 -5.15133
 3.64 6.50 -1.048 -1.047 -1.046 -1.043 -1.039 12.47914 18.79560 -4.87877
 3.64 6.75 -0.953 -0.952 -0.951 -0.948 -0.944 12.65594 19.07234 -4.60195
 3.64 7.00 -0.874 -0.873 -0.871 -0.868 -0.863 12.82853 19.34908 -4.32514
 3.64 7.25 -0.808 -0.807 -0.806 -0.803 -0.798 12.99566 19.62408 -4.05010
 3.64 7.50 -0.751 -0.750 -0.749 -0.745 -0.741 13.15836 19.89713 -3.77702
 3.64 7.75 -0.701 -0.701 -0.699 -0.696 -0.691 13.31722 20.16604 -3.50816
 3.64 8.00 -0.655 -0.655 -0.653 -0.650 -0.644 13.47202 20.43152 -3.24276
 3.66-2.00 -2.620 -2.620 -2.619 -2.618 -2.616  8.01828 10.19701-13.47730
 3.66-1.50 -2.842 -2.842 -2.841 -2.839 -2.838  8.26975 10.69819-12.97593
 3.66-1.00 -3.052 -3.052 -3.051 -3.050 -3.048  8.52075 11.19893-12.47534
 3.66-0.50 -3.245 -3.245 -3.244 -3.243 -3.241  8.77129 11.69932-11.97510
 3.66 0.00 -3.409 -3.409 -3.408 -3.406 -3.404  9.02160 12.19948-11.47470
 3.66 0.50 -3.520 -3.519 -3.518 -3.517 -3.515  9.27231 12.69967-10.97469
 3.66 1.00 -3.551 -3.551 -3.550 -3.548 -3.546  9.52284 13.19976-10.47444
 3.66 1.25 -3.533 -3.533 -3.532 -3.530 -3.527  9.64827 13.44975-10.22434
 3.66 1.50 -3.493 -3.492 -3.491 -3.489 -3.486  9.77386 13.69975 -9.97428
 3.66 1.75 -3.432 -3.432 -3.430 -3.428 -3.425  9.89968 13.94975 -9.72436
 3.66 2.00 -3.355 -3.354 -3.353 -3.351 -3.346 10.02571 14.19976 -9.47444
 3.66 2.25 -3.265 -3.263 -3.262 -3.259 -3.256 10.15195 14.44979 -9.22436
 3.66 2.50 -3.164 -3.163 -3.161 -3.158 -3.154 10.27853 14.69984 -8.97429
 3.66 2.75 -3.056 -3.055 -3.053 -3.050 -3.045 10.40578 14.94993 -8.72436
 3.66 3.00 -2.942 -2.941 -2.939 -2.935 -2.931 10.53377 15.20003 -8.47444
 3.66 3.20 -2.847 -2.846 -2.843 -2.840 -2.835 10.63681 15.39999 -8.27438
 3.66 3.40 -2.749 -2.747 -2.746 -2.741 -2.736 10.74062 15.59995 -8.07432
 3.66 3.60 -2.647 -2.646 -2.644 -2.639 -2.633 10.84529 15.79992 -7.87426
 3.66 3.80 -2.542 -2.541 -2.538 -2.534 -2.527 10.95121 15.99995 -7.67422
 3.66 4.00 -2.433 -2.432 -2.430 -2.425 -2.418 11.05843 16.20003 -7.47418
 3.66 4.20 -2.320 -2.318 -2.316 -2.311 -2.304 11.16734 16.40019 -7.27398
 3.66 4.40 -2.202 -2.201 -2.198 -2.194 -2.186 11.27825 16.60045 -7.07366
 3.66 4.60 -2.080 -2.079 -2.076 -2.071 -2.064 11.39135 16.80081 -6.87327
 3.66 4.80 -1.953 -1.951 -1.949 -1.944 -1.937 11.50724 17.00139 -6.67273
 3.66 5.00 -1.822 -1.821 -1.819 -1.815 -1.808 11.62593 17.20222 -6.47198
 3.66 5.20 -1.689 -1.688 -1.686 -1.681 -1.675 11.74811 17.40366 -6.27059
 3.66 5.40 -1.554 -1.553 -1.551 -1.547 -1.542 11.87356 17.60590 -6.06838
 3.66 5.60 -1.420 -1.419 -1.418 -1.414 -1.409 12.00258 17.80915 -5.86514
 3.66 5.80 -1.290 -1.289 -1.287 -1.284 -1.278 12.13484 18.01422 -5.66005
 3.66 6.00 -1.163 -1.163 -1.161 -1.158 -1.153 12.26998 18.22116 -5.45309
 3.66 6.25 -1.018 -1.017 -1.015 -1.013 -1.007 12.44364 18.48464 -5.18974
 3.66 6.50 -0.887 -0.886 -0.884 -0.881 -0.876 12.61815 18.75259 -4.92191
 3.66 6.75 -0.774 -0.773 -0.772 -0.769 -0.764 12.79320 19.02668 -4.64761
 3.66 7.00 -0.680 -0.679 -0.678 -0.674 -0.669 12.96825 19.30211 -4.37212
 3.66 7.25 -0.603 -0.602 -0.600 -0.597 -0.592 13.13797 19.57845 -4.09586
 3.66 7.50 -0.540 -0.539 -0.537 -0.533 -0.528 13.30320 19.85479 -3.81959
 3.66 7.75 -0.488 -0.487 -0.485 -0.481 -0.476 13.46239 20.12691 -3.54743
 3.66 8.00 -0.443 -0.442 -0.440 -0.437 -0.431 13.61606 20.39620 -3.27802
 3.68-2.00 -2.277 -2.277 -2.276 -2.274 -2.273  8.35622 10.17348-13.50086
 3.68-1.50 -2.507 -2.506 -2.505 -2.504 -2.501  8.60917 10.67614-12.99827
 3.68-1.00 -2.726 -2.726 -2.725 -2.724 -2.721  8.86100 11.17783-12.49648
 3.68-0.50 -2.931 -2.930 -2.929 -2.928 -2.925  9.11193 11.67870-11.99568
 3.68 0.00 -3.107 -3.106 -3.105 -3.103 -3.100  9.36267 12.17927-11.49499
 3.68 0.50 -3.230 -3.229 -3.228 -3.225 -3.223  9.61321 12.67952-10.99482
 3.68 1.00 -3.268 -3.267 -3.266 -3.264 -3.261  9.86362 13.17984-10.49458
 3.68 1.25 -3.251 -3.250 -3.249 -3.247 -3.243  9.98895 13.42982-10.24447
 3.68 1.50 -3.211 -3.210 -3.209 -3.206 -3.202 10.11428 13.67979 -9.99439
 3.68 1.75 -3.150 -3.149 -3.148 -3.145 -3.141 10.23960 13.92982 -9.74442
 3.68 2.00 -3.073 -3.072 -3.071 -3.067 -3.063 10.36493 14.17984 -9.49444
 3.68 2.25 -2.983 -2.982 -2.980 -2.977 -2.972 10.49049 14.42986 -9.24442
 3.68 2.50 -2.883 -2.883 -2.880 -2.877 -2.872 10.61627 14.67988 -8.99439
 3.68 2.75 -2.778 -2.777 -2.774 -2.770 -2.765 10.74230 14.92986 -8.74435
 3.68 3.00 -2.666 -2.665 -2.663 -2.658 -2.652 10.86864 15.17984 -8.49431
 3.68 3.20 -2.574 -2.573 -2.570 -2.566 -2.559 10.96996 15.37984 -8.29434
 3.68 3.40 -2.480 -2.479 -2.476 -2.471 -2.464 11.07160 15.57986 -8.09437
 3.68 3.60 -2.383 -2.382 -2.379 -2.374 -2.367 11.17364 15.77993 -7.89435
 3.68 3.80 -2.284 -2.283 -2.280 -2.275 -2.267 11.27626 15.98003 -7.69426
 3.68 4.00 -2.183 -2.181 -2.179 -2.173 -2.166 11.37949 16.18013 -7.49417
 3.68 4.20 -2.079 -2.077 -2.074 -2.069 -2.061 11.48347 16.38021 -7.29409
 3.68 4.40 -1.972 -1.970 -1.968 -1.963 -1.954 11.58837 16.58029 -7.09400
 3.68 4.60 -1.862 -1.861 -1.858 -1.852 -1.845 11.69431 16.78044 -6.89385
 3.68 4.80 -1.749 -1.747 -1.745 -1.739 -1.732 11.80163 16.98077 -6.69349
 3.68 5.00 -1.632 -1.631 -1.628 -1.623 -1.616 11.91036 17.18127 -6.49295
 3.68 5.20 -1.513 -1.511 -1.509 -1.504 -1.497 12.02087 17.38212 -6.29216
 3.68 5.40 -1.390 -1.389 -1.387 -1.383 -1.376 12.13335 17.58345 -6.09092
 3.68 5.60 -1.266 -1.265 -1.263 -1.259 -1.253 12.24797 17.78543 -5.88901
 3.68 5.80 -1.142 -1.141 -1.140 -1.136 -1.130 12.36506 17.98863 -5.68578
 3.68 6.00 -1.020 -1.019 -1.017 -1.013 -1.008 12.48459 18.19312 -5.48122
 3.68 6.25 -0.873 -0.872 -0.871 -0.867 -0.862 12.63784 18.45216 -5.22210
 3.68 6.50 -0.736 -0.735 -0.734 -0.730 -0.725 12.79505 18.71517 -4.95900
 3.68 6.75 -0.613 -0.612 -0.611 -0.607 -0.601 12.95737 18.98436 -4.68983
 3.68 7.00 -0.506 -0.505 -0.503 -0.500 -0.494 13.12090 19.25720 -4.41703
 3.68 7.25 -0.417 -0.416 -0.414 -0.411 -0.405 13.28527 19.53399 -4.14031
 3.68 7.50 -0.345 -0.344 -0.342 -0.338 -0.332 13.44963 19.81077 -3.86360
 3.68 7.75 -0.286 -0.285 -0.284 -0.280 -0.273 13.60812 20.08537 -3.58899
 3.68 8.00 -0.239 -0.238 -0.236 -0.232 -0.225 13.76268 20.35851 -3.31578
 3.70-2.00 -1.942 -1.942 -1.941 -1.939 -1.937  8.67532 10.14551-13.52886
 3.70-1.50 -2.176 -2.175 -2.174 -2.173 -2.170  8.93212 10.65167-13.02264
 3.70-1.00 -2.402 -2.401 -2.400 -2.399 -2.395  9.18611 11.15534-12.51899
 3.70-0.50 -2.615 -2.614 -2.613 -2.611 -2.608  9.43823 11.65725-12.01705
 3.70 0.00 -2.802 -2.801 -2.800 -2.798 -2.795  9.68949 12.15836-11.51584
 3.70 0.50 -2.938 -2.937 -2.935 -2.933 -2.929  9.94022 12.65906-11.01525
 3.70 1.00 -2.988 -2.987 -2.985 -2.983 -2.979 10.19089 13.15927-10.51485
 3.70 1.25 -2.974 -2.973 -2.972 -2.969 -2.965 10.31606 13.40939-10.26478
 3.70 1.50 -2.936 -2.936 -2.934 -2.931 -2.926 10.44122 13.65954-10.01471
 3.70 1.75 -2.877 -2.877 -2.874 -2.871 -2.866 10.56644 13.90970 -9.76464
 3.70 2.00 -2.802 -2.800 -2.799 -2.794 -2.789 10.69170 14.15987 -9.51456
 3.70 2.25 -2.712 -2.711 -2.709 -2.705 -2.700 10.81700 14.40980 -9.26455
 3.70 2.50 -2.614 -2.613 -2.610 -2.606 -2.600 10.94236 14.65973 -9.01453
 3.70 2.75 -2.509 -2.507 -2.505 -2.501 -2.494 11.06781 14.90980 -8.76447
 3.70 3.00 -2.399 -2.397 -2.395 -2.390 -2.383 11.19340 15.15987 -8.51442
 3.70 3.20 -2.308 -2.307 -2.304 -2.299 -2.291 11.29404 15.35985 -8.31443
 3.70 3.40 -2.215 -2.214 -2.211 -2.206 -2.198 11.39483 15.55983 -8.11444
 3.70 3.60 -2.121 -2.120 -2.117 -2.111 -2.103 11.49580 15.75982 -7.91441
 3.70 3.80 -2.025 -2.023 -2.020 -2.014 -2.006 11.59699 15.95983 -7.71434
 3.70 4.00 -1.928 -1.926 -1.922 -1.917 -1.908 11.69845 16.15987 -7.51428
 3.70 4.20 -1.828 -1.826 -1.822 -1.817 -1.808 11.80027 16.35993 -7.31424
 3.70 4.40 -1.727 -1.725 -1.721 -1.716 -1.707 11.90252 16.56004 -7.11419
 3.70 4.60 -1.623 -1.621 -1.618 -1.612 -1.603 12.00525 16.76019 -6.91410
 3.70 4.80 -1.518 -1.516 -1.513 -1.507 -1.498 12.10865 16.96043 -6.71389
 3.70 5.00 -1.410 -1.409 -1.406 -1.400 -1.392 12.21272 17.16077 -6.51357
 3.70 5.20 -1.299 -1.298 -1.295 -1.290 -1.282 12.31765 17.36126 -6.31308
 3.70 5.40 -1.187 -1.186 -1.184 -1.179 -1.171 12.42353 17.56200 -6.11230
 3.70 5.60 -1.073 -1.072 -1.071 -1.066 -1.059 12.53044 17.76313 -5.91112
 3.70 5.80 -0.959 -0.959 -0.957 -0.952 -0.946 12.63858 17.96509 -5.70912
 3.70 6.00 -0.844 -0.844 -0.842 -0.838 -0.832 12.74796 18.16791 -5.50626
 3.70 6.25 -0.706 -0.705 -0.703 -0.700 -0.693 12.88668 18.42384 -5.25037
 3.70 6.50 -0.572 -0.571 -0.569 -0.565 -0.559 13.02776 18.68287 -4.99140
 3.70 6.75 -0.447 -0.446 -0.444 -0.441 -0.434 13.17151 18.94703 -4.72720
 3.70 7.00 -0.335 -0.334 -0.332 -0.328 -0.322 13.31786 19.21564 -4.45855
 3.70 7.25 -0.239 -0.238 -0.236 -0.232 -0.226 13.46810 19.49052 -4.18362
 3.70 7.50 -0.158 -0.158 -0.156 -0.152 -0.146 13.61847 19.76619 -3.90798
 3.70 7.75 -0.095 -0.095 -0.093 -0.088 -0.082 13.76887 20.04212 -3.63212
 3.70 8.00 -0.045 -0.044 -0.042 -0.037 -0.030 13.91934 20.31848 -3.35586
 3.73-2.00 -1.459 -1.459 -1.458 -1.456 -1.453  9.10585 10.08672-13.58754
 3.73-1.50 -1.693 -1.693 -1.692 -1.690 -1.686  9.37694 10.60487-13.06936
 3.73-1.00 -1.923 -1.922 -1.921 -1.919 -1.915  9.63879 11.11561-12.55862
 3.73-0.50 -2.142 -2.141 -2.140 -2.138 -2.134  9.89548 11.62180-12.05247
 3.73 0.00 -2.340 -2.339 -2.338 -2.335 -2.331 10.14922 12.12548-11.54898
 3.73 0.50 -2.492 -2.491 -2.490 -2.487 -2.483 10.40140 12.62726-11.04697
 3.73 1.00 -2.563 -2.562 -2.560 -2.557 -2.552 10.65263 13.12840-10.54577
 3.73 1.25 -2.559 -2.558 -2.557 -2.553 -2.547 10.77804 13.37881-10.29546
 3.73 1.50 -2.529 -2.528 -2.526 -2.523 -2.517 10.90342 13.62910-10.04523
 3.73 1.75 -2.476 -2.475 -2.473 -2.469 -2.463 11.02878 13.87924 -9.79502
 3.73 2.00 -2.405 -2.403 -2.401 -2.396 -2.391 11.15412 14.12937 -9.54485
 3.73 2.25 -2.319 -2.317 -2.315 -2.311 -2.304 11.27922 14.37950 -9.29473
 3.73 2.50 -2.223 -2.222 -2.219 -2.215 -2.207 11.40432 14.62961 -9.04465
 3.73 2.75 -2.121 -2.119 -2.116 -2.111 -2.104 11.52963 14.87965 -8.79460
 3.73 3.00 -2.013 -2.011 -2.009 -2.004 -1.995 11.65495 15.12969 -8.54455
 3.73 3.20 -1.924 -1.922 -1.920 -1.914 -1.906 11.75520 15.32973 -8.34451
 3.73 3.40 -1.834 -1.832 -1.829 -1.823 -1.815 11.85545 15.52979 -8.14447
 3.73 3.60 -1.742 -1.740 -1.737 -1.731 -1.722 11.95579 15.72986 -7.94445
 3.73 3.80 -1.649 -1.647 -1.643 -1.637 -1.628 12.05628 15.92993 -7.74442
 3.73 4.00 -1.554 -1.552 -1.549 -1.543 -1.533 12.15685 16.13001 -7.54439
 3.73 4.20 -1.458 -1.456 -1.453 -1.446 -1.437 12.25746 16.33002 -7.34437
 3.73 4.40 -1.361 -1.359 -1.356 -1.350 -1.340 12.35818 16.53002 -7.14433
 3.73 4.60 -1.262 -1.260 -1.258 -1.251 -1.241 12.45907 16.73005 -6.94427
 3.73 4.80 -1.162 -1.160 -1.157 -1.151 -1.142 12.56023 16.93016 -6.74413
 3.73 5.00 -1.061 -1.059 -1.056 -1.051 -1.041 12.66162 17.13033 -6.54394
 3.73 5.20 -0.958 -0.956 -0.953 -0.948 -0.939 12.76326 17.33056 -6.34369
 3.73 5.40 -0.854 -0.852 -0.850 -0.845 -0.836 12.86520 17.53092 -6.14333
 3.73 5.60 -0.749 -0.748 -0.745 -0.741 -0.733 12.96756 17.73146 -5.94280
 3.73 5.80 -0.643 -0.642 -0.640 -0.636 -0.629 13.07035 17.93244 -5.74184
 3.73 6.00 -0.537 -0.536 -0.535 -0.531 -0.524 13.17348 18.13386 -5.54046
 3.73 6.25 -0.409 -0.408 -0.406 -0.402 -0.395 13.30282 18.38690 -5.28743
 3.73 6.50 -0.283 -0.282 -0.280 -0.276 -0.269 13.43249 18.64177 -5.03255
 3.73 6.75 -0.162 -0.161 -0.160 -0.156 -0.149 13.56249 18.90010 -4.77420
 3.73 7.00 -0.050 -0.049 -0.048 -0.044 -0.038 13.69249 19.16227 -4.51201
 3.73 7.25  0.048  0.049  0.050  0.054  0.061 13.82214 19.43032 -4.24388
 3.73 7.50  0.131  0.132  0.134  0.138  0.145 13.95168 19.70234 -3.97184
 3.73 7.75  0.198  0.199  0.201  0.205  0.212 14.08117 19.97738 -3.69686
 3.73 8.00  0.251  0.252  0.254  0.258  0.266 14.21059 20.25575 -3.41862
 3.76-2.00 -1.020 -1.019 -1.018 -1.016 -1.013  9.44963  9.98994-13.68424
 3.76-1.50 -1.238 -1.237 -1.236 -1.235 -1.231  9.75899 10.53224-13.14200
 3.76-1.00 -1.460 -1.459 -1.458 -1.456 -1.452 10.04297 11.05994-12.61421
 3.76-0.50 -1.676 -1.675 -1.674 -1.672 -1.667 10.31239 11.57692-12.09740
 3.76 0.00 -1.874 -1.873 -1.872 -1.869 -1.865 10.57334 12.08672-11.58754
 3.76 0.50 -2.034 -2.033 -2.032 -2.029 -2.024 10.82943 12.59240-11.08181
 3.76 1.00 -2.122 -2.121 -2.120 -2.116 -2.111 11.08279 13.09587-10.57856
 3.76 1.25 -2.130 -2.129 -2.127 -2.124 -2.118 11.20894 13.34676-10.32755
 3.76 1.50 -2.111 -2.110 -2.108 -2.105 -2.099 11.33486 13.59748-10.07676
 3.76 1.75 -2.068 -2.068 -2.065 -2.062 -2.055 11.46058 13.84813 -9.82610
 3.76 2.00 -2.006 -2.005 -2.002 -1.998 -1.992 11.58614 14.09864 -9.57561
 3.76 2.25 -1.928 -1.926 -1.924 -1.919 -1.913 11.71150 14.34893 -9.32536
 3.76 2.50 -1.838 -1.837 -1.835 -1.830 -1.823 11.83683 14.59912 -9.07515
 3.76 2.75 -1.741 -1.739 -1.737 -1.732 -1.724 11.96214 14.84923 -8.82496
 3.76 3.00 -1.638 -1.637 -1.634 -1.629 -1.620 12.08743 15.09934 -8.57479
 3.76 3.20 -1.553 -1.552 -1.548 -1.543 -1.535 12.18760 15.29947 -8.37473
 3.76 3.40 -1.466 -1.464 -1.461 -1.456 -1.447 12.28777 15.49960 -8.17467
 3.76 3.60 -1.377 -1.376 -1.373 -1.367 -1.358 12.38798 15.69967 -7.97460
 3.76 3.80 -1.287 -1.286 -1.283 -1.276 -1.268 12.48823 15.89968 -7.77453
 3.76 4.00 -1.197 -1.195 -1.192 -1.185 -1.176 12.58850 16.09968 -7.57447
 3.76 4.20 -1.104 -1.102 -1.099 -1.093 -1.083 12.68877 16.29976 -7.37445
 3.76 4.40 -1.011 -1.009 -1.005 -0.999 -0.989 12.78907 16.49984 -7.17444
 3.76 4.60 -0.915 -0.914 -0.911 -0.904 -0.895 12.88948 16.69991 -6.97438
 3.76 4.80 -0.819 -0.817 -0.815 -0.808 -0.798 12.99002 16.89997 -6.77427
 3.76 5.00 -0.722 -0.720 -0.717 -0.711 -0.702 13.09061 17.10003 -6.57414
 3.76 5.20 -0.623 -0.622 -0.619 -0.613 -0.604 13.19121 17.30017 -6.37401
 3.76 5.40 -0.523 -0.522 -0.519 -0.514 -0.505 13.29187 17.50040 -6.17385
 3.76 5.60 -0.422 -0.421 -0.419 -0.413 -0.406 13.39273 17.70069 -5.97360
 3.76 5.80 -0.320 -0.320 -0.317 -0.313 -0.305 13.49380 17.90113 -5.77309
 3.76 6.00 -0.218 -0.217 -0.216 -0.212 -0.205 13.59494 18.10175 -5.57235
 3.76 6.25 -0.094 -0.093 -0.092 -0.088 -0.081 13.72144 18.35332 -5.32081
 3.76 6.50  0.028  0.028  0.030  0.033  0.040 13.84794 18.60595 -5.06829
 3.76 6.75  0.146  0.147  0.148  0.152  0.159 13.97407 18.86051 -4.81372
 3.76 7.00  0.260  0.260  0.262  0.265  0.272 14.09968 19.11760 -4.55658
 3.76 7.25  0.363  0.363  0.365  0.368  0.376 14.22371 19.37928 -4.29498
 3.76 7.50  0.452  0.453  0.454  0.459  0.465 14.34596 19.64532 -4.02900
 3.76 7.75  0.524  0.524  0.526  0.531  0.537 14.46533 19.91640 -3.75789
 3.76 8.00  0.579  0.579  0.581  0.585  0.593 14.58218 20.19229 -3.48188
 3.79-2.00 -0.695 -0.695 -0.694 -0.692 -0.688  9.64856  9.86303-13.81135
 3.79-1.50 -0.846 -0.845 -0.844 -0.842 -0.838 10.03623 10.41963-13.25469
 3.79-1.00 -1.032 -1.031 -1.030 -1.028 -1.024 10.37346 10.97234-12.70202
 3.79-0.50 -1.228 -1.227 -1.226 -1.224 -1.220 10.67505 11.51068-12.16361
 3.79 0.00 -1.413 -1.413 -1.412 -1.409 -1.405 10.95458 12.03543-11.63903
 3.79 0.50 -1.568 -1.567 -1.566 -1.563 -1.559 11.22115 12.54998-11.12436
 3.79 1.00 -1.664 -1.663 -1.661 -1.658 -1.654 11.48058 13.05843-10.61565
 3.79 1.25 -1.680 -1.679 -1.677 -1.675 -1.670 11.60867 13.31129-10.36293
 3.79 1.50 -1.673 -1.672 -1.671 -1.667 -1.662 11.73600 13.56348-10.11087
 3.79 1.75 -1.643 -1.642 -1.641 -1.638 -1.632 11.86270 13.81511 -9.85924
 3.79 2.00 -1.593 -1.593 -1.591 -1.587 -1.581 11.98901 14.06633 -9.60801
 3.79 2.25 -1.527 -1.526 -1.524 -1.520 -1.514 12.11501 14.31721 -9.35713
 3.79 2.50 -1.448 -1.447 -1.445 -1.441 -1.434 12.24080 14.56785 -9.10646
 3.79 2.75 -1.360 -1.358 -1.356 -1.352 -1.345 12.36643 14.81821 -8.85594
 3.79 3.00 -1.265 -1.263 -1.262 -1.256 -1.250 12.49192 15.06856 -8.60555
 3.79 3.20 -1.185 -1.184 -1.182 -1.177 -1.170 12.59218 15.26884 -8.40534
 3.79 3.40 -1.104 -1.103 -1.100 -1.095 -1.087 12.69244 15.46912 -8.20516
 3.79 3.60 -1.021 -1.020 -1.016 -1.011 -1.003 12.79270 15.66936 -8.00499
 3.79 3.80 -0.936 -0.935 -0.931 -0.926 -0.918 12.89296 15.86954 -7.80482
 3.79 4.00 -0.850 -0.848 -0.846 -0.840 -0.831 12.99322 16.06967 -7.60467
 3.79 4.20 -0.762 -0.761 -0.758 -0.752 -0.743 13.09344 16.26969 -7.40464
 3.79 4.40 -0.673 -0.672 -0.669 -0.662 -0.653 13.19367 16.46971 -7.20460
 3.79 4.60 -0.583 -0.581 -0.579 -0.572 -0.562 13.29392 16.66979 -7.00453
 3.79 4.80 -0.491 -0.490 -0.486 -0.480 -0.471 13.39423 16.86991 -6.80443
 3.79 5.00 -0.398 -0.396 -0.394 -0.388 -0.378 13.49457 17.07004 -6.60433
 3.79 5.20 -0.303 -0.302 -0.299 -0.293 -0.284 13.59493 17.27005 -6.40427
 3.79 5.40 -0.207 -0.206 -0.203 -0.198 -0.189 13.69533 17.47007 -6.20422
 3.79 5.60 -0.109 -0.108 -0.106 -0.101 -0.093 13.79578 17.67014 -6.00411
 3.79 5.80 -0.011 -0.010 -0.008 -0.004  0.004 13.89629 17.87039 -5.80385
 3.79 6.00  0.087  0.088  0.090  0.094  0.101 13.99682 18.07078 -5.60345
 3.79 6.25  0.209  0.209  0.211  0.215  0.222 14.12252 18.32161 -5.35265
 3.79 6.50  0.330  0.330  0.332  0.336  0.342 14.24822 18.57299 -5.10133
 3.79 6.75  0.449  0.450  0.451  0.454  0.461 14.37361 18.82536 -4.84892
 3.79 7.00  0.565  0.565  0.567  0.571  0.577 14.49859 19.07918 -4.59500
 3.79 7.25  0.674  0.674  0.676  0.680  0.686 14.62232 19.33600 -4.33820
 3.79 7.50  0.774  0.774  0.776  0.780  0.786 14.74445 19.59627 -4.07800
 3.79 7.75  0.859  0.860  0.861  0.864  0.871 14.86321 19.86190 -3.81242
 3.79 8.00  0.925  0.926  0.928  0.931  0.938 14.97918 20.13226 -3.54212
 3.82-2.00 -0.562 -0.561 -0.560 -0.558 -0.553  9.69810  9.77612-13.89825
 3.82-1.50 -0.606 -0.605 -0.604 -0.602 -0.597 10.16227 10.30406-13.37029
 3.82-1.00 -0.697 -0.696 -0.695 -0.693 -0.688 10.58365 10.85297-12.82131
 3.82-0.50 -0.830 -0.829 -0.828 -0.826 -0.821 10.95168 11.41027-12.26408
 3.82 0.00 -0.977 -0.976 -0.975 -0.973 -0.969 11.27416 11.95818-11.71602
 3.82 0.50 -1.107 -1.107 -1.106 -1.104 -1.100 11.56620 12.49108-11.18323
 3.82 1.00 -1.195 -1.194 -1.193 -1.190 -1.187 11.84023 13.01157-10.66274
 3.82 1.25 -1.215 -1.214 -1.212 -1.210 -1.206 11.97295 13.26838-10.40590
 3.82 1.50 -1.216 -1.215 -1.213 -1.211 -1.207 12.10380 13.52362-10.15064
 3.82 1.75 -1.198 -1.197 -1.195 -1.192 -1.188 12.23321 13.77757 -9.89664
 3.82 2.00 -1.161 -1.160 -1.159 -1.156 -1.151 12.36154 14.03060 -9.64359
 3.82 2.25 -1.109 -1.108 -1.106 -1.103 -1.098 12.48898 14.28290 -9.39132
 3.82 2.50 -1.044 -1.043 -1.041 -1.038 -1.032 12.61585 14.53466 -9.13960
 3.82 2.75 -0.968 -0.967 -0.966 -0.962 -0.956 12.74229 14.78602 -8.88831
 3.82 3.00 -0.885 -0.884 -0.882 -0.879 -0.873 12.86841 15.03703 -8.63733
 3.82 3.20 -0.814 -0.814 -0.811 -0.807 -0.801 12.96908 15.23756 -8.43676
 3.82 3.40 -0.741 -0.740 -0.738 -0.733 -0.727 13.06966 15.43801 -8.23628
 3.82 3.60 -0.665 -0.663 -0.662 -0.657 -0.650 13.17018 15.63839 -8.03588
 3.82 3.80 -0.587 -0.586 -0.583 -0.578 -0.571 13.27065 15.83874 -7.83553
 3.82 4.00 -0.507 -0.506 -0.503 -0.499 -0.491 13.37107 16.03902 -7.63526
 3.82 4.20 -0.426 -0.425 -0.422 -0.417 -0.409 13.47136 16.23914 -7.43513
 3.82 4.40 -0.343 -0.342 -0.339 -0.334 -0.326 13.57165 16.43927 -7.23501
 3.82 4.60 -0.258 -0.257 -0.255 -0.249 -0.241 13.67196 16.63943 -7.03490
 3.82 4.80 -0.172 -0.171 -0.169 -0.163 -0.155 13.77228 16.83962 -6.83480
 3.82 5.00 -0.085 -0.083 -0.081 -0.075 -0.067 13.87262 17.03981 -6.63470
 3.82 5.20  0.004  0.006  0.008  0.013  0.022 13.97297 17.23982 -6.43459
 3.82 5.40  0.095  0.097  0.099  0.104  0.112 14.07334 17.43983 -6.23448
 3.82 5.60  0.189  0.189  0.191  0.196  0.204 14.17373 17.63987 -6.03435
 3.82 5.80  0.283  0.284  0.285  0.290  0.297 14.27415 17.84000 -5.83417
 3.82 6.00  0.378  0.379  0.381  0.385  0.391 14.37457 18.04021 -5.63395
 3.82 6.25  0.497  0.498  0.500  0.503  0.510 14.50009 18.29063 -5.38356
 3.82 6.50  0.617  0.617  0.618  0.622  0.628 14.62562 18.54133 -5.13295
 3.82 6.75  0.735  0.735  0.737  0.740  0.746 14.75104 18.79254 -4.88172
 3.82 7.00  0.852  0.853  0.854  0.858  0.863 14.87628 19.04454 -4.62967
 3.82 7.25  0.966  0.967  0.968  0.971  0.977 15.00074 19.29824 -4.37600
 3.82 7.50  1.075  1.075  1.077  1.079  1.085 15.12418 19.55413 -4.12016
 3.82 7.75  1.172  1.173  1.175  1.178  1.183 15.24502 19.81418 -3.86011
 3.82 8.00  1.257  1.258  1.259  1.262  1.267 15.36380 20.07773 -3.59654
 3.85-2.00 -0.534 -0.534 -0.532 -0.530 -0.525  9.68458  9.73199-13.94233
 3.85-1.50 -0.532 -0.532 -0.531 -0.527 -0.522 10.17696 10.23855-13.43569
 3.85-1.00 -0.536 -0.535 -0.534 -0.530 -0.525 10.65533 10.75656-12.91757
 3.85-0.50 -0.559 -0.559 -0.558 -0.555 -0.550 11.10209 11.29469-12.37966
 3.85 0.00 -0.615 -0.614 -0.613 -0.611 -0.607 11.49859 11.84997-11.82420
 3.85 0.50 -0.685 -0.684 -0.684 -0.682 -0.678 11.84354 12.40449-11.26986
 3.85 1.00 -0.738 -0.738 -0.737 -0.735 -0.731 12.15014 12.94537-10.72886
 3.85 1.25 -0.751 -0.750 -0.750 -0.747 -0.744 12.29352 13.21013-10.46408
 3.85 1.50 -0.751 -0.750 -0.749 -0.747 -0.743 12.43249 13.47188-10.20232
 3.85 1.75 -0.738 -0.737 -0.736 -0.733 -0.730 12.56800 13.73100 -9.94319
 3.85 2.00 -0.711 -0.710 -0.709 -0.706 -0.703 12.70096 13.98807 -9.68613
 3.85 2.25 -0.672 -0.671 -0.670 -0.667 -0.663 12.83187 14.24339 -9.43087
 3.85 2.50 -0.621 -0.620 -0.619 -0.616 -0.612 12.96137 14.49748 -9.17685
 3.85 2.75 -0.560 -0.560 -0.558 -0.556 -0.551 13.08985 14.75066 -8.92376
 3.85 3.00 -0.492 -0.491 -0.489 -0.486 -0.482 13.21748 15.00303 -8.67142
 3.85 3.20 -0.432 -0.431 -0.429 -0.426 -0.421 13.31903 15.20431 -8.47001
 3.85 3.40 -0.368 -0.367 -0.366 -0.363 -0.357 13.42031 15.40537 -8.26886
 3.85 3.60 -0.301 -0.301 -0.299 -0.296 -0.290 13.52136 15.60629 -8.06794
 3.85 3.80 -0.233 -0.232 -0.230 -0.226 -0.220 13.62228 15.80709 -7.86716
 3.85 4.00 -0.162 -0.161 -0.159 -0.154 -0.148 13.72305 16.00775 -7.66655
 3.85 4.20 -0.088 -0.087 -0.085 -0.080 -0.075 13.82366 16.20820 -7.46612
 3.85 4.40 -0.013 -0.012 -0.010 -0.005  0.001 13.92424 16.40854 -7.26578
 3.85 4.60  0.063  0.064  0.066  0.071  0.078 14.02479 16.60874 -7.06553
 3.85 4.80  0.142  0.143  0.145  0.150  0.157 14.12533 16.80888 -6.86532
 3.85 5.00  0.223  0.224  0.226  0.230  0.238 14.22583 17.00903 -6.66514
 3.85 5.20  0.306  0.307  0.309  0.314  0.321 14.32623 17.20926 -6.46499
 3.85 5.40  0.391  0.392  0.393  0.398  0.405 14.42663 17.40949 -6.26483
 3.85 5.60  0.478  0.478  0.480  0.485  0.492 14.52708 17.60966 -6.06467
 3.85 5.80  0.567  0.568  0.570  0.573  0.580 14.62759 17.80977 -5.86451
 3.85 6.00  0.658  0.659  0.660  0.663  0.669 14.72811 18.00988 -5.66434
 3.85 6.25  0.772  0.772  0.774  0.777  0.783 14.85378 18.26015 -5.41410
 3.85 6.50  0.887  0.888  0.890  0.892  0.898 14.97946 18.51055 -5.16380
 3.85 6.75  1.004  1.004  1.006  1.008  1.014 15.10510 18.76111 -4.91318
 3.85 7.00  1.120  1.121  1.122  1.125  1.130 15.23070 19.01199 -4.66214
 3.85 7.25  1.237  1.237  1.238  1.241  1.246 15.35591 19.26385 -4.41034
 3.85 7.50  1.351  1.351  1.352  1.355  1.360 15.48058 19.51693 -4.15739
 3.85 7.75  1.458  1.458  1.460  1.463  1.467 15.60360 19.77252 -3.90177
 3.85 8.00  1.558  1.559  1.560  1.562  1.566 15.72534 20.03020 -3.64397
 3.88-2.00 -0.533 -0.532 -0.531 -0.529 -0.524  9.65744  9.69932-13.97511
 3.88-1.50 -0.523 -0.522 -0.521 -0.517 -0.512 10.15594 10.20058-13.47366
 3.88-1.00 -0.502 -0.501 -0.499 -0.495 -0.489 10.65138 10.70475-12.96940
 3.88-0.50 -0.463 -0.462 -0.460 -0.456 -0.451 11.13767 11.21643-12.45780
 3.88 0.00 -0.413 -0.412 -0.411 -0.407 -0.403 11.60097 11.74492-11.92922
 3.88 0.50 -0.370 -0.370 -0.369 -0.367 -0.362 12.02119 12.29425-11.38007
 3.88 1.00 -0.342 -0.341 -0.340 -0.339 -0.335 12.38810 12.85150-10.82275
 3.88 1.25 -0.328 -0.327 -0.327 -0.325 -0.321 12.55346 13.12671-10.54752
 3.88 1.50 -0.310 -0.310 -0.309 -0.307 -0.304 12.70978 13.39898-10.27523
 3.88 1.75 -0.288 -0.288 -0.288 -0.285 -0.282 12.85831 13.66702-10.00720
 3.88 2.00 -0.261 -0.260 -0.260 -0.257 -0.254 13.00130 13.93166 -9.74256
 3.88 2.25 -0.226 -0.226 -0.225 -0.223 -0.220 13.13995 14.19295 -9.48126
 3.88 2.50 -0.185 -0.185 -0.184 -0.181 -0.178 13.27531 14.45179 -9.22243
 3.88 2.75 -0.137 -0.137 -0.136 -0.133 -0.129 13.40799 14.70860 -8.96563
 3.88 3.00 -0.083 -0.082 -0.081 -0.078 -0.074 13.53883 14.96383 -8.71041
 3.88 3.20 -0.034 -0.034 -0.032 -0.030 -0.026 13.64246 15.16702 -8.50723
 3.88 3.40  0.017  0.018  0.019  0.021  0.026 13.74542 15.36962 -8.30464
 3.88 3.60  0.072  0.073  0.075  0.077  0.082 13.84770 15.57169 -8.10261
 3.88 3.80  0.131  0.132  0.133  0.136  0.141 13.94958 15.77339 -7.90094
 3.88 4.00  0.192  0.193  0.194  0.197  0.203 14.05115 15.97474 -7.69962
 3.88 4.20  0.256  0.256  0.258  0.261  0.267 14.15255 16.17579 -7.49858
 3.88 4.40  0.321  0.322  0.324  0.327  0.333 14.25375 16.37663 -7.29773
 3.88 4.60  0.390  0.391  0.392  0.396  0.402 14.35472 16.57728 -7.09701
 3.88 4.80  0.460  0.461  0.462  0.467  0.472 14.45555 16.77781 -6.89641
 3.88 5.00  0.532  0.533  0.535  0.539  0.545 14.55630 16.97823 -6.69594
 3.88 5.20  0.607  0.608  0.610  0.614  0.620 14.65698 17.17858 -6.49566
 3.88 5.40  0.684  0.685  0.687  0.690  0.697 14.75767 17.37888 -6.29542
 3.88 5.60  0.764  0.765  0.766  0.769  0.775 14.85839 17.57910 -6.09522
 3.88 5.80  0.846  0.846  0.848  0.851  0.857 14.95917 17.77929 -5.89504
 3.88 6.00  0.930  0.931  0.932  0.935  0.940 15.05994 17.97946 -5.69486
 3.88 6.25  1.037  1.038  1.039  1.042  1.047 15.18574 18.22966 -5.44465
 3.88 6.50  1.147  1.148  1.149  1.152  1.156 15.31154 18.47986 -5.19443
 3.88 6.75  1.259  1.260  1.261  1.264  1.268 15.43763 18.73020 -4.94408
 3.88 7.00  1.373  1.374  1.375  1.378  1.382 15.56372 18.98069 -4.69357
 3.88 7.25  1.489  1.489  1.490  1.493  1.497 15.68957 19.23147 -4.44278
 3.88 7.50  1.604  1.604  1.605  1.608  1.612 15.81511 19.48273 -4.19152
 3.88 7.75  1.718  1.718  1.719  1.721  1.725 15.93976 19.73532 -3.93893
 3.88 8.00  1.828  1.828  1.829  1.831  1.834 16.06371 19.98896 -3.68529
 3.91-2.00 -0.535 -0.535 -0.534 -0.532 -0.529  9.62808  9.66876-14.00551
 3.91-1.50 -0.526 -0.526 -0.525 -0.522 -0.518 10.12775 10.16909-13.50529
 3.91-1.00 -0.506 -0.505 -0.503 -0.499 -0.494 10.62675 10.66997-13.00428
 3.91-0.50 -0.458 -0.457 -0.455 -0.451 -0.444 11.12353 11.17290-12.50155
 3.91 0.00 -0.368 -0.367 -0.365 -0.361 -0.355 11.61426 11.68106-11.99311
 3.91 0.50 -0.235 -0.234 -0.233 -0.229 -0.224 12.08778 12.20249-11.47186
 3.91 1.00 -0.085 -0.084 -0.083 -0.081 -0.077 12.52556 12.74484-10.92959
 3.91 1.25 -0.016 -0.015 -0.015 -0.013 -0.009 12.72476 13.02315-10.65117
 3.91 1.50  0.045  0.046  0.046  0.048  0.052 12.91126 13.30146-10.37274
 3.91 1.75  0.099  0.100  0.100  0.102  0.106 13.08455 13.57849-10.09573
 3.91 2.00  0.149  0.149  0.150  0.151  0.155 13.24748 13.85388 -9.82045
 3.91 2.25  0.194  0.194  0.195  0.197  0.200 13.40115 14.12452 -9.54975
 3.91 2.50  0.238  0.239  0.239  0.241  0.245 13.54814 14.39164 -9.28258
 3.91 2.75  0.283  0.283  0.284  0.286  0.289 13.68977 14.65518 -9.01910
 3.91 3.00  0.330  0.330  0.331  0.334  0.337 13.82743 14.91587 -8.75845
 3.91 3.20  0.370  0.370  0.371  0.374  0.377 13.93518 15.12250 -8.55178
 3.91 3.40  0.412  0.413  0.414  0.417  0.420 14.04150 15.32795 -8.34628
 3.91 3.60  0.457  0.458  0.459  0.462  0.465 14.14648 15.53231 -8.14189
 3.91 3.80  0.505  0.506  0.507  0.510  0.513 14.25060 15.73590 -7.93828
 3.91 4.00  0.556  0.557  0.558  0.560  0.564 14.35392 15.93877 -7.73542
 3.91 4.20  0.609  0.610  0.611  0.614  0.618 14.45660 16.14101 -7.53322
 3.91 4.40  0.665  0.666  0.667  0.670  0.674 14.55885 16.34282 -7.33143
 3.91 4.60  0.723  0.724  0.725  0.728  0.733 14.66067 16.54425 -7.13002
 3.91 4.80  0.784  0.784  0.786  0.788  0.794 14.76224 16.74543 -6.92885
 3.91 5.00  0.847  0.847  0.849  0.852  0.857 14.86362 16.94636 -6.72793
 3.91 5.20  0.912  0.913  0.914  0.917  0.923 14.96490 17.14709 -6.52725
 3.91 5.40  0.980  0.981  0.982  0.986  0.990 15.06606 17.34769 -6.32668
 3.91 5.60  1.051  1.051  1.053  1.056  1.060 15.16709 17.54815 -6.12618
 3.91 5.80  1.125  1.125  1.127  1.129  1.134 15.26806 17.74851 -5.92574
 3.91 6.00  1.201  1.202  1.203  1.205  1.210 15.36903 17.94880 -5.72538
 3.91 6.25  1.300  1.300  1.301  1.303  1.308 15.49533 18.19907 -5.47518
 3.91 6.50  1.402  1.402  1.403  1.405  1.410 15.62170 18.44933 -5.22497
 3.91 6.75  1.508  1.508  1.509  1.511  1.515 15.74818 18.69959 -4.97474
 3.91 7.00  1.616  1.617  1.617  1.619  1.623 15.87466 18.94988 -4.72446
 3.91 7.25  1.728  1.728  1.729  1.731  1.734 16.00108 19.20024 -4.47410
 3.91 7.50  1.841  1.842  1.843  1.844  1.847 16.12743 19.45071 -4.22359
 3.91 7.75  1.956  1.956  1.957  1.958  1.961 16.25328 19.70167 -3.97260
 3.91 8.00  2.070  2.071  2.072  2.073  2.076 16.37876 19.95299 -3.72125
 3.94-2.00 -0.536 -0.536 -0.536 -0.535 -0.533  9.59835  9.63839-14.03583
 3.94-1.50 -0.531 -0.531 -0.530 -0.528 -0.525 10.09795 10.13862-13.53566
 3.94-1.00 -0.515 -0.514 -0.514 -0.511 -0.507 10.59781 10.63889-13.03536
 3.94-0.50 -0.476 -0.475 -0.473 -0.470 -0.463 11.09691 11.13956-12.53477
 3.94 0.00 -0.389 -0.388 -0.386 -0.382 -0.374 11.59484 11.64167-12.03264
 3.94 0.50 -0.235 -0.234 -0.231 -0.227 -0.220 12.08778 12.14768-11.52651
 3.94 1.00 -0.011 -0.010 -0.008 -0.005  0.000 12.56785 12.66455-11.00971
 3.94 1.25  0.114  0.115  0.116  0.120  0.124 12.79733 12.93034-10.74392
 3.94 1.50  0.240  0.241  0.242  0.245  0.249 13.01745 13.20085-10.47340
 3.94 1.75  0.354  0.355  0.355  0.358  0.362 13.22426 13.47809-10.19607
 3.94 2.00  0.454  0.455  0.455  0.458  0.461 13.41847 13.75549 -9.91865
 3.94 2.25  0.537  0.537  0.538  0.540  0.544 13.59844 14.03299 -9.64118
 3.94 2.50  0.607  0.607  0.608  0.610  0.614 13.76716 14.31048 -9.36371
 3.94 2.75  0.666  0.666  0.667  0.669  0.673 13.92551 14.58328 -9.09095
 3.94 3.00  0.720  0.720  0.721  0.723  0.726 14.07628 14.85266 -8.82160
 3.94 3.20  0.760  0.760  0.761  0.763  0.766 14.19228 15.06517 -8.60914
 3.94 3.40  0.799  0.799  0.800  0.803  0.806 14.30535 15.27570 -8.39864
 3.94 3.60  0.839  0.839  0.840  0.843  0.846 14.41560 15.48424 -8.19009
 3.94 3.80  0.879  0.880  0.881  0.884  0.887 14.52396 15.69129 -7.98301
 3.94 4.00  0.922  0.922  0.924  0.926  0.930 14.63063 15.89697 -7.77728
 3.94 4.20  0.966  0.967  0.968  0.970  0.974 14.73597 16.10148 -7.57275
 3.94 4.40  1.012  1.013  1.014  1.016  1.020 14.84039 16.30517 -7.36906
 3.94 4.60  1.061  1.062  1.063  1.065  1.069 14.94396 16.50810 -7.16617
 3.94 4.80  1.112  1.113  1.114  1.116  1.120 15.04698 16.71052 -6.96383
 3.94 5.00  1.166  1.166  1.167  1.170  1.174 15.14953 16.91243 -6.76195
 3.94 5.20  1.222  1.222  1.223  1.226  1.230 15.25167 17.11393 -6.56045
 3.94 5.40  1.280  1.280  1.282  1.284  1.289 15.35360 17.31514 -6.35921
 3.94 5.60  1.341  1.342  1.343  1.345  1.350 15.45535 17.51610 -6.15820
 3.94 5.80  1.406  1.406  1.407  1.409  1.413 15.55700 17.71689 -5.95737
 3.94 6.00  1.473  1.473  1.474  1.477  1.480 15.65858 17.91751 -5.75671
 3.94 6.25  1.561  1.561  1.562  1.565  1.568 15.78548 18.16804 -5.50622
 3.94 6.50  1.654  1.654  1.655  1.657  1.660 15.91238 18.41847 -5.25579
 3.94 6.75  1.751  1.751  1.752  1.754  1.757 16.03937 18.66886 -5.00536
 3.94 7.00  1.852  1.852  1.853  1.855  1.858 16.16643 18.91918 -4.75498
 3.94 7.25  1.958  1.958  1.959  1.960  1.963 16.29361 19.16940 -4.50480
 3.94 7.50  2.067  2.067  2.068  2.069  2.072 16.42078 19.41963 -4.25461
 3.94 7.75  2.179  2.179  2.180  2.181  2.184 16.54772 19.66997 -4.00433
 3.94 8.00  2.293  2.293  2.294  2.295  2.297 16.67449 19.92039 -3.75399
 3.97-2.00 -0.533 -0.533 -0.533 -0.532 -0.531  9.57019  9.60681-14.06748
 3.97-1.50 -0.533 -0.532 -0.532 -0.531 -0.529 10.06893 10.10789-13.56639
 3.97-1.00 -0.523 -0.522 -0.522 -0.520 -0.517 10.56820 10.60863-13.06570
 3.97-0.50 -0.495 -0.494 -0.493 -0.490 -0.485 11.06781 11.10890-12.56527
 3.97 0.00 -0.425 -0.424 -0.422 -0.418 -0.412 11.56714 11.60959-12.06469
 3.97 0.50 -0.283 -0.282 -0.281 -0.276 -0.269 12.06521 12.11126-11.56304
 3.97 1.00 -0.052 -0.050 -0.049 -0.045 -0.037 12.55955 12.61637-11.05789
 3.97 1.25  0.096  0.097  0.098  0.102  0.109 12.80318 12.87187-10.80239
 3.97 1.50  0.259  0.260  0.262  0.265  0.271 13.04297 13.13033-10.54394
 3.97 1.75  0.427  0.428  0.430  0.432  0.438 13.27594 13.39390-10.28036
 3.97 2.00  0.589  0.590  0.591  0.594  0.599 13.50065 13.66219-10.01207
 3.97 2.25  0.733  0.734  0.735  0.738  0.742 13.71264 13.93721 -9.73714
 3.97 2.50  0.858  0.858  0.859  0.862  0.865 13.91233 14.21405 -9.46030
 3.97 2.75  0.958  0.958  0.959  0.962  0.965 14.09762 14.49219 -9.18204
 3.97 3.00  1.041  1.041  1.042  1.044  1.047 14.27114 14.77034 -8.90379
 3.97 3.20  1.096  1.096  1.097  1.099  1.102 14.40169 14.98987 -8.68429
 3.97 3.40  1.145  1.145  1.146  1.148  1.151 14.52689 15.20736 -8.46686
 3.97 3.60  1.189  1.189  1.190  1.193  1.195 14.64689 15.42243 -8.25180
 3.97 3.80  1.230  1.231  1.232  1.234  1.237 14.76325 15.63506 -8.03914
 3.97 4.00  1.271  1.271  1.272  1.275  1.278 14.87633 15.84559 -7.82857
 3.97 4.20  1.311  1.311  1.312  1.315  1.318 14.98674 16.05413 -7.62011
 3.97 4.40  1.351  1.352  1.353  1.355  1.358 15.09531 16.26120 -7.41311
 3.97 4.60  1.393  1.394  1.395  1.397  1.400 15.20216 16.46684 -7.20750
 3.97 4.80  1.437  1.437  1.438  1.441  1.444 15.30790 16.67147 -7.00286
 3.97 5.00  1.482  1.483  1.484  1.486  1.489 15.41263 16.87518 -6.79915
 3.97 5.20  1.530  1.531  1.532  1.533  1.537 15.51654 17.07811 -6.59623
 3.97 5.40  1.580  1.581  1.582  1.583  1.587 15.61994 17.28049 -6.39385
 3.97 5.60  1.633  1.634  1.634  1.636  1.639 15.72285 17.48235 -6.19195
 3.97 5.80  1.688  1.689  1.689  1.691  1.694 15.82549 17.68386 -5.99038
 3.97 6.00  1.746  1.747  1.747  1.749  1.752 15.92794 17.88508 -5.78915
 3.97 6.25  1.823  1.824  1.824  1.826  1.829 16.05575 18.13630 -5.53804
 3.97 6.50  1.906  1.906  1.907  1.908  1.911 16.18356 18.38721 -5.28718
 3.97 6.75  1.993  1.993  1.994  1.995  1.998 16.31137 18.63786 -5.03649
 3.97 7.00  2.086  2.086  2.086  2.088  2.090 16.43918 18.88835 -4.78595
 3.97 7.25  2.183  2.183  2.184  2.185  2.187 16.56717 19.13870 -4.53555
 3.97 7.50  2.286  2.286  2.286  2.288  2.289 16.69522 19.38899 -4.28525
 3.97 7.75  2.393  2.393  2.393  2.394  2.396 16.82331 19.63925 -4.03503
 3.97 8.00  2.503  2.504  2.504  2.504  2.506 16.95144 19.88947 -3.78489
 4.00-2.00 -0.517 -0.517 -0.517 -0.516 -0.516  9.54937  9.56820-14.10607
 4.00-1.50 -0.525 -0.525 -0.525 -0.524 -0.523 10.04376 10.07335-13.60085
 4.00-1.00 -0.525 -0.524 -0.524 -0.522 -0.521 10.54033 10.57680-13.09751
 4.00-0.50 -0.507 -0.507 -0.506 -0.505 -0.501 11.03862 11.07809-12.59602
 4.00 0.00 -0.457 -0.457 -0.455 -0.452 -0.448 11.53795 11.57887-12.09539
 4.00 0.50 -0.342 -0.341 -0.339 -0.336 -0.329 12.03703 12.07954-11.59482
 4.00 1.00 -0.132 -0.131 -0.129 -0.124 -0.117 12.53555 12.58115-11.09318
 4.00 1.25  0.012  0.012  0.015  0.019  0.027 12.78371 12.83287-10.84147
 4.00 1.50  0.180  0.181  0.183  0.188  0.195 13.03060 13.08565-10.58872
 4.00 1.75  0.367  0.367  0.369  0.373  0.381 13.27506 13.34046-10.33389
 4.00 2.00  0.563  0.564  0.565  0.569  0.575 13.51614 13.59791-10.07639
 4.00 2.25  0.757  0.758  0.759  0.762  0.768 13.75095 13.86003 -9.81417
 4.00 2.50  0.940  0.941  0.942  0.945  0.950 13.97814 14.12678 -9.54729
 4.00 2.75  1.101  1.102  1.103  1.105  1.109 14.19340 14.40044 -9.27361
 4.00 3.00  1.238  1.239  1.240  1.243  1.246 14.39672 14.67669 -8.99740
 4.00 3.20  1.328  1.329  1.330  1.333  1.336 14.54875 14.89942 -8.77477
 4.00 3.40  1.405  1.406  1.407  1.409  1.412 14.69305 15.12214 -8.55213
 4.00 3.60  1.470  1.470  1.471  1.474  1.477 14.82937 15.34385 -8.33047
 4.00 3.80  1.525  1.525  1.527  1.529  1.531 14.95927 15.56311 -8.11120
 4.00 4.00  1.574  1.575  1.576  1.578  1.580 15.08350 15.78046 -7.89381
 4.00 4.20  1.618  1.618  1.619  1.621  1.624 15.20281 15.99483 -7.67945
 4.00 4.40  1.659  1.659  1.660  1.662  1.665 15.31867 16.20707 -7.46722
 4.00 4.60  1.699  1.699  1.700  1.702  1.704 15.43124 16.41716 -7.25714
 4.00 4.80  1.738  1.738  1.739  1.741  1.744 15.54163 16.62552 -7.04876
 4.00 5.00  1.778  1.778  1.779  1.781  1.784 15.65002 16.83232 -6.84194
 4.00 5.20  1.819  1.820  1.820  1.822  1.825 15.75676 17.03772 -6.63652
 4.00 5.40  1.862  1.862  1.863  1.865  1.867 15.86244 17.24215 -6.43208
 4.00 5.60  1.907  1.908  1.908  1.910  1.912 15.96709 17.44568 -6.22854
 4.00 5.80  1.955  1.955  1.956  1.957  1.959 16.07113 17.64859 -6.02564
 4.00 6.00  2.005  2.005  2.006  2.007  2.009 16.17464 17.85089 -5.82333
 4.00 6.25  2.072  2.072  2.073  2.074  2.076 16.30347 18.10303 -5.57114
 4.00 6.50  2.144  2.144  2.145  2.146  2.147 16.43201 18.35468 -5.31948
 4.00 6.75  2.222  2.222  2.222  2.223  2.225 16.56030 18.60601 -5.06824
 4.00 7.00  2.305  2.305  2.306  2.306  2.308 16.68860 18.85703 -4.81730
 4.00 7.25  2.394  2.395  2.395  2.395  2.397 16.81701 19.10777 -4.56660
 4.00 7.50  2.489  2.490  2.490  2.491  2.492 16.94557 19.35832 -4.31605
 4.00 7.75  2.590  2.590  2.590  2.591  2.592 17.07465 19.60874 -4.06562
 4.00 8.00  2.695  2.695  2.695  2.696  2.697 17.20412 19.85902 -3.81531
 4.05-2.00 -0.499 -0.499 -0.499 -0.498 -0.497  9.50826  9.50961-14.16475
 4.05-1.50 -0.500 -0.500 -0.499 -0.499 -0.497 10.00732 10.01072-13.66354
 4.05-1.00 -0.502 -0.502 -0.501 -0.500 -0.499 10.50420 10.51362-13.16071
 4.05-0.50 -0.502 -0.501 -0.501 -0.500 -0.498 10.99900 11.01870-12.65561
 4.05 0.00 -0.485 -0.485 -0.484 -0.482 -0.480 11.49346 11.52388-12.15040
 4.05 0.50 -0.423 -0.422 -0.421 -0.419 -0.415 11.98994 12.02694-11.64724
 4.05 1.00 -0.276 -0.275 -0.274 -0.271 -0.265 12.48827 12.52866-11.14563
 4.05 1.25 -0.161 -0.160 -0.158 -0.154 -0.149 12.73761 12.77923-10.89509
 4.05 1.50 -0.016 -0.015 -0.014 -0.009 -0.003 12.98695 13.02979-10.64455
 4.05 1.75  0.156  0.157  0.159  0.164  0.172 13.23598 13.28068-10.39363
 4.05 2.00  0.353  0.354  0.357  0.361  0.369 13.48458 13.53199-10.14225
 4.05 2.25  0.567  0.568  0.570  0.574  0.582 13.73202 13.78424 -9.88997
 4.05 2.50  0.788  0.789  0.791  0.796  0.803 13.97786 14.03783 -9.63639
 4.05 2.75  1.012  1.013  1.014  1.018  1.024 14.22059 14.29411 -9.38013
 4.05 3.00  1.229  1.230  1.231  1.235  1.240 14.45909 14.55364 -9.12062
 4.05 3.20  1.393  1.393  1.395  1.397  1.402 14.64444 14.76519 -8.90903
 4.05 3.40  1.544  1.545  1.546  1.548  1.552 14.82410 14.97974 -8.69444
 4.05 3.60  1.679  1.680  1.681  1.682  1.686 14.99684 15.19853 -8.47569
 4.05 3.80  1.796  1.797  1.798  1.799  1.802 15.16099 15.41972 -8.25456
 4.05 4.00  1.897  1.898  1.899  1.900  1.903 15.31723 15.64147 -8.03283
 4.05 4.20  1.980  1.981  1.981  1.983  1.985 15.46410 15.86358 -7.81072
 4.05 4.40  2.052  2.052  2.052  2.054  2.056 15.60371 16.08568 -7.58861
 4.05 4.60  2.112  2.112  2.113  2.114  2.116 15.73596 16.30640 -7.36786
 4.05 4.80  2.165  2.165  2.165  2.167  2.169 15.86253 16.52413 -7.15008
 4.05 5.00  2.212  2.212  2.213  2.214  2.216 15.98412 16.73973 -6.93442
 4.05 5.20  2.256  2.256  2.256  2.258  2.260 16.10153 16.95257 -6.72156
 4.05 5.40  2.298  2.298  2.298  2.300  2.302 16.21597 17.16343 -6.51071
 4.05 5.60  2.340  2.340  2.340  2.341  2.343 16.32755 17.37232 -6.30191
 4.05 5.80  2.382  2.382  2.382  2.383  2.385 16.43730 17.57970 -6.09465
 4.05 6.00  2.425  2.425  2.425  2.426  2.428 16.54543 17.78569 -5.88874
 4.05 6.25  2.481  2.481  2.482  2.483  2.484 16.67886 18.04153 -5.63285
 4.05 6.50  2.541  2.542  2.542  2.543  2.544 16.81104 18.29601 -5.37830
 4.05 6.75  2.606  2.606  2.606  2.607  2.608 16.94212 18.54938 -5.12485
 4.05 7.00  2.676  2.676  2.676  2.677  2.678 17.07298 18.80195 -4.87225
 4.05 7.25  2.751  2.751  2.751  2.752  2.753 17.20372 19.05389 -4.62037
 4.05 7.50  2.833  2.833  2.833  2.834  2.835 17.33445 19.30535 -4.36896
 4.05 7.75  2.922  2.922  2.922  2.922  2.923 17.46548 19.55649 -4.11785
 4.05 8.00  3.017  3.017  3.017  3.017  3.017 17.59671 19.80726 -3.86710
 4.10-2.00 -0.496 -0.496 -0.495 -0.494 -0.493  9.45894  9.45894-14.21531
 4.10-1.50 -0.494 -0.494 -0.493 -0.493 -0.491  9.95876  9.95904-13.71534
 4.10-1.00 -0.492 -0.492 -0.492 -0.491 -0.488 10.45864 10.45924-13.21503
 4.10-0.50 -0.488 -0.488 -0.487 -0.486 -0.483 10.95794 10.95985-12.71444
 4.10 0.00 -0.476 -0.476 -0.475 -0.473 -0.471 11.45637 11.46150-12.21275
 4.10 0.50 -0.443 -0.442 -0.441 -0.439 -0.436 11.95250 11.96520-11.70908
 4.10 1.00 -0.358 -0.358 -0.357 -0.355 -0.350 12.44685 12.47071-11.20350
 4.10 1.25 -0.285 -0.285 -0.283 -0.281 -0.276 12.69414 12.72322-10.95098
 4.10 1.50 -0.185 -0.184 -0.183 -0.180 -0.175 12.94161 12.97548-10.69875
 4.10 1.75 -0.054 -0.054 -0.052 -0.049 -0.042 13.18993 13.22701-10.44719
 4.10 2.00  0.105  0.106  0.108  0.112  0.118 13.43854 13.47828-10.19593
 4.10 2.25  0.295  0.296  0.298  0.301  0.309 13.68743 13.72932 -9.94497
 4.10 2.50  0.507  0.508  0.509  0.513  0.520 13.93631 13.98037 -9.69401
 4.10 2.75  0.735  0.736  0.737  0.741  0.748 14.18467 14.23184 -9.44249
 4.10 3.00  0.972  0.973  0.975  0.978  0.985 14.43233 14.48387 -9.19031
 4.10 3.20  1.163  1.164  1.166  1.169  1.175 14.62926 14.68658 -8.98763
 4.10 3.40  1.353  1.353  1.355  1.358  1.363 14.82466 14.89057 -8.78372
 4.10 3.60  1.539  1.540  1.540  1.543  1.548 15.01806 15.09628 -8.57807
 4.10 3.80  1.718  1.718  1.720  1.721  1.725 15.20772 15.30471 -8.36961
 4.10 4.00  1.888  1.888  1.889  1.891  1.893 15.39357 15.51574 -8.15851
 4.10 4.20  2.042  2.042  2.043  2.044  2.046 15.57276 15.73105 -7.94312
 4.10 4.40  2.180  2.181  2.181  2.183  2.184 15.74511 15.94892 -7.72519
 4.10 4.60  2.300  2.301  2.301  2.303  2.304 15.90946 16.17005 -7.50408
 4.10 4.80  2.403  2.403  2.403  2.404  2.406 16.06502 16.39252 -7.28166
 4.10 5.00  2.491  2.492  2.492  2.492  2.494 16.21272 16.61500 -7.05923
 4.10 5.20  2.564  2.564  2.565  2.565  2.566 16.35208 16.83627 -6.83797
 4.10 5.40  2.628  2.628  2.629  2.629  2.630 16.48517 17.05629 -6.61792
 4.10 5.60  2.685  2.685  2.685  2.685  2.686 16.61200 17.27430 -6.39996
 4.10 5.80  2.736  2.736  2.736  2.736  2.737 16.73431 17.48955 -6.18481
 4.10 6.00  2.785  2.785  2.785  2.785  2.786 16.85266 17.70260 -5.97184
 4.10 6.25  2.843  2.843  2.844  2.844  2.844 16.99623 17.96556 -5.70872
 4.10 6.50  2.902  2.903  2.903  2.903  2.903 17.13640 18.22583 -5.44831
 4.10 6.75  2.963  2.963  2.963  2.963  2.964 17.27387 18.48387 -5.19026
 4.10 7.00  3.026  3.026  3.027  3.027  3.027 17.40977 18.74013 -4.93405
 4.10 7.25  3.094  3.094  3.094  3.095  3.095 17.54429 18.99486 -4.67939
 4.10 7.50  3.167  3.167  3.167  3.168  3.168 17.67861 19.24846 -4.42585
 4.10 7.75  3.246  3.246  3.246  3.246  3.247 17.81286 19.50128 -4.17308
 4.10 8.00  3.331  3.331  3.331  3.331  3.332 17.94699 19.75320 -3.92118
 4.15-2.00 -0.496 -0.496 -0.496 -0.495 -0.494  9.40892  9.40892-14.26536
 4.15-1.50 -0.493 -0.493 -0.492 -0.492 -0.489  9.90886  9.90891-13.76523
 4.15-1.00 -0.490 -0.489 -0.489 -0.487 -0.484 10.40892 10.40909-13.26528
 4.15-0.50 -0.485 -0.484 -0.483 -0.481 -0.478 10.90875 10.90902-12.76523
 4.15 0.00 -0.476 -0.476 -0.474 -0.473 -0.469 11.40858 11.40926-12.26504
 4.15 0.50 -0.454 -0.453 -0.452 -0.450 -0.446 11.90816 11.90961-11.76472
 4.15 1.00 -0.397 -0.397 -0.396 -0.393 -0.388 12.40705 12.41078-11.26344
 4.15 1.25 -0.346 -0.345 -0.344 -0.341 -0.337 12.65584 12.66197-11.01230
 4.15 1.50 -0.275 -0.274 -0.273 -0.270 -0.265 12.90412 12.91366-10.76070
 4.15 1.75 -0.181 -0.181 -0.179 -0.176 -0.170 13.15159 13.16614-10.50818
 4.15 2.00 -0.064 -0.063 -0.061 -0.058 -0.052 13.39881 13.41880-10.25547
 4.15 2.25  0.080  0.080  0.082  0.085  0.091 13.64584 13.67157-10.00265
 4.15 2.50  0.249  0.250  0.251  0.254  0.261 13.89287 13.92433 -9.74982
 4.15 2.75  0.446  0.446  0.448  0.451  0.457 14.14069 14.17652 -9.49774
 4.15 3.00  0.664  0.664  0.666  0.669  0.675 14.38863 14.42846 -9.24588
 4.15 3.20  0.852  0.852  0.853  0.856  0.862 14.58705 14.62980 -9.04455
 4.15 3.40  1.047  1.047  1.048  1.051  1.056 14.78547 14.83114 -8.84323
 4.15 3.60  1.246  1.246  1.248  1.250  1.255 14.98365 15.03273 -8.64164
 4.15 3.80  1.446  1.447  1.448  1.451  1.454 15.18097 15.23511 -8.43922
 4.15 4.00  1.645  1.645  1.645  1.648  1.651 15.37749 15.43823 -8.23605
 4.15 4.20  1.839  1.840  1.841  1.842  1.846 15.57195 15.64300 -8.03130
 4.15 4.40  2.030  2.030  2.030  2.031  2.033 15.76382 15.84972 -7.82462
 4.15 4.60  2.210  2.210  2.211  2.212  2.213 15.95232 16.05911 -7.61525
 4.15 4.80  2.378  2.378  2.378  2.379  2.381 16.13530 16.27188 -7.40243
 4.15 5.00  2.532  2.532  2.532  2.533  2.535 16.31281 16.48756 -7.18669
 4.15 5.20  2.666  2.667  2.667  2.667  2.668 16.48190 16.70770 -6.96643
 4.15 5.40  2.785  2.785  2.785  2.785  2.786 16.64332 16.92864 -6.74546
 4.15 5.60  2.885  2.885  2.885  2.886  2.886 16.79625 17.15037 -6.52379
 4.15 5.80  2.971  2.971  2.971  2.971  2.972 16.94121 17.37227 -6.30196
 4.15 6.00  3.046  3.047  3.047  3.047  3.047 17.07918 17.59417 -6.08014
 4.15 6.25  3.127  3.127  3.127  3.127  3.128 17.24260 17.86721 -5.80705
 4.15 6.50  3.201  3.201  3.201  3.201  3.202 17.39863 18.13704 -5.53715
 4.15 6.75  3.270  3.270  3.270  3.270  3.270 17.54847 18.40304 -5.27119
 4.15 7.00  3.338  3.338  3.338  3.338  3.338 17.69417 18.66596 -5.00833
 4.15 7.25  3.406  3.406  3.406  3.406  3.407 17.83645 18.92600 -4.74837
 4.15 7.50  3.478  3.478  3.478  3.478  3.478 17.97708 19.18384 -4.49053
 4.15 7.75  3.553  3.553  3.553  3.553  3.553 18.11686 19.44005 -4.23422
 4.15 8.00  3.632  3.632  3.633  3.633  3.633 18.25551 19.69443 -3.97964
 4.20-2.00 -0.498 -0.497 -0.497 -0.497 -0.496  9.35889  9.35889-14.31534
 4.20-1.50 -0.496 -0.495 -0.495 -0.494 -0.493  9.85884  9.85890-13.81531
 4.20-1.00 -0.491 -0.491 -0.491 -0.490 -0.488 10.35889 10.35889-13.31533
 4.20-0.50 -0.485 -0.484 -0.484 -0.482 -0.480 10.85878 10.85896-12.81531
 4.20 0.00 -0.475 -0.474 -0.473 -0.472 -0.468 11.35870 11.35908-12.31524
 4.20 0.50 -0.459 -0.459 -0.457 -0.455 -0.450 11.85866 11.85908-11.81531
 4.20 1.00 -0.424 -0.424 -0.423 -0.419 -0.414 12.35851 12.35927-11.31498
 4.20 1.25 -0.392 -0.392 -0.390 -0.386 -0.380 12.60836 12.60943-11.06486
 4.20 1.50 -0.344 -0.343 -0.341 -0.338 -0.331 12.85812 12.85968-10.81474
 4.20 1.75 -0.276 -0.275 -0.273 -0.270 -0.263 13.10767 13.11012-10.56428
 4.20 2.00 -0.185 -0.184 -0.182 -0.179 -0.172 13.35698 13.36078-10.31354
 4.20 2.25 -0.068 -0.067 -0.066 -0.062 -0.055 13.60594 13.61183-10.06252
 4.20 2.50  0.072  0.073  0.074  0.078  0.085 13.85443 13.86332 -9.81107
 4.20 2.75  0.238  0.238  0.240  0.244  0.250 14.10206 14.11562 -9.55872
 4.20 3.00  0.425  0.425  0.426  0.429  0.435 14.34928 14.36829 -9.30601
 4.20 3.20  0.589  0.589  0.590  0.593  0.599 14.54674 14.57070 -9.10359
 4.20 3.40  0.764  0.765  0.765  0.768  0.774 14.74419 14.77310 -8.90118
 4.20 3.60  0.949  0.950  0.951  0.953  0.957 14.94179 14.97534 -8.69892
 4.20 3.80  1.143  1.143  1.144  1.147  1.150 15.13953 15.17742 -8.49683
 4.20 4.00  1.343  1.343  1.344  1.346  1.349 15.33726 15.37949 -8.29473
 4.20 4.20  1.548  1.548  1.549  1.550  1.553 15.53479 15.58171 -8.09253
 4.20 4.40  1.754  1.754  1.755  1.756  1.759 15.73202 15.78416 -7.89014
 4.20 4.60  1.959  1.959  1.960  1.961  1.963 15.92858 15.98722 -7.68713
 4.20 4.80  2.160  2.161  2.161  2.162  2.164 16.12336 16.19179 -7.48256
 4.20 5.00  2.357  2.357  2.358  2.358  2.360 16.31639 16.39777 -7.27654
 4.20 5.20  2.545  2.545  2.545  2.546  2.547 16.50553 16.60659 -7.06769
 4.20 5.40  2.723  2.723  2.723  2.723  2.724 16.69026 16.81812 -6.85613
 4.20 5.60  2.885  2.885  2.885  2.885  2.886 16.86952 17.03331 -6.64092
 4.20 5.80  3.029  3.029  3.029  3.029  3.030 17.04140 17.25152 -6.42271
 4.20 6.00  3.158  3.158  3.159  3.159  3.159 17.20629 17.47159 -6.20266
 4.20 6.25  3.292  3.292  3.292  3.292  3.292 17.39997 17.74906 -5.92524
 4.20 6.50  3.408  3.408  3.408  3.408  3.408 17.58241 18.02653 -5.64782
 4.20 6.75  3.504  3.504  3.504  3.504  3.504 17.75381 18.30122 -5.37311
 4.20 7.00  3.592  3.592  3.592  3.592  3.592 17.91709 18.57334 -5.10095
 4.20 7.25  3.672  3.672  3.672  3.672  3.672 18.07325 18.84136 -4.83286
 4.20 7.50  3.751  3.751  3.751  3.751  3.752 18.22505 19.10619 -4.56799
 4.20 7.75  3.830  3.830  3.830  3.830  3.830 18.37419 19.36820 -4.30601
 4.20 8.00  3.911  3.911  3.911  3.911  3.911 18.52009 19.62726 -4.04701
 4.25-2.00 -0.497 -0.497 -0.497 -0.496 -0.495  9.30899  9.30899-14.36532
 4.25-1.50 -0.496 -0.496 -0.495 -0.495 -0.494  9.80889  9.80889-13.86550
 4.25-1.00 -0.493 -0.493 -0.493 -0.492 -0.491 10.30878 10.30899-13.36532
 4.25-0.50 -0.487 -0.487 -0.487 -0.486 -0.485 10.80882 10.80895-12.86519
 4.25 0.00 -0.477 -0.477 -0.477 -0.475 -0.473 11.30878 11.30899-12.36522
 4.25 0.50 -0.462 -0.461 -0.461 -0.460 -0.457 11.80875 11.80902-11.86519
 4.25 1.00 -0.436 -0.436 -0.435 -0.432 -0.427 12.30878 12.30921-11.36512
 4.25 1.25 -0.415 -0.414 -0.413 -0.409 -0.404 12.55866 12.55921-11.11515
 4.25 1.50 -0.382 -0.381 -0.380 -0.376 -0.370 12.80855 12.80922-10.86519
 4.25 1.75 -0.336 -0.336 -0.334 -0.330 -0.323 13.05845 13.05929-10.61504
 4.25 2.00 -0.272 -0.271 -0.270 -0.265 -0.257 13.30835 13.30942-10.36482
 4.25 2.25 -0.187 -0.186 -0.185 -0.180 -0.171 13.55816 13.55961-10.11456
 4.25 2.50 -0.077 -0.077 -0.075 -0.070 -0.062 13.80787 13.80990 -9.86423
 4.25 2.75  0.059  0.060  0.061  0.066  0.074 14.05738 14.06038 -9.61377
 4.25 3.00  0.223  0.224  0.225  0.230  0.237 14.30664 14.31112 -9.36311
 4.25 3.20  0.374  0.375  0.376  0.380  0.387 14.50575 14.51200 -9.16228
 4.25 3.40  0.539  0.539  0.541  0.544  0.550 14.70453 14.71320 -8.96113
 4.25 3.60  0.715  0.715  0.716  0.719  0.725 14.90284 14.91486 -8.75947
 4.25 3.80  0.898  0.899  0.900  0.902  0.907 15.10068 15.11695 -8.55736
 4.25 4.00  1.087  1.087  1.088  1.091  1.094 15.29820 15.31931 -8.35497
 4.25 4.20  1.283  1.283  1.284  1.285  1.289 15.49547 15.52190 -8.15241
 4.25 4.40  1.482  1.482  1.483  1.484  1.487 15.69257 15.72461 -7.94972
 4.25 4.60  1.686  1.686  1.686  1.688  1.689 15.88958 15.92738 -7.74696
 4.25 4.80  1.894  1.894  1.894  1.895  1.897 16.08644 16.13024 -7.54408
 4.25 5.00  2.103  2.103  2.103  2.104  2.105 16.28308 16.33325 -7.34104
 4.25 5.20  2.312  2.312  2.312  2.313  2.314 16.47881 16.53699 -7.13724
 4.25 5.40  2.517  2.517  2.518  2.518  2.519 16.67332 16.74170 -6.93248
 4.25 5.60  2.718  2.718  2.718  2.718  2.719 16.86596 16.94795 -6.72621
 4.25 5.80  2.910  2.911  2.911  2.911  2.911 17.05494 17.15683 -6.51738
 4.25 6.00  3.093  3.093  3.093  3.093  3.094 17.24030 17.36810 -6.30619
 4.25 6.25  3.296  3.296  3.296  3.296  3.296 17.46316 17.63751 -6.03684
 4.25 6.50  3.478  3.478  3.478  3.478  3.478 17.67615 17.91041 -5.76397
 4.25 6.75  3.627  3.627  3.628  3.628  3.628 17.87631 18.18715 -5.48719
 4.25 7.00  3.759  3.759  3.759  3.759  3.759 18.06558 18.46390 -5.21042
 4.25 7.25  3.870  3.870  3.870  3.870  3.870 18.24382 18.73906 -4.93527
 4.25 7.50  3.971  3.971  3.971  3.971  3.971 18.41397 19.01241 -4.66194
 4.25 7.75  4.064  4.064  4.064  4.064  4.064 18.57816 19.28169 -4.39264
 4.25 8.00  4.155  4.155  4.155  4.155  4.155 18.73568 19.54765 -4.12662
 4.30-2.00 -0.493 -0.493 -0.492 -0.492 -0.491  9.26007  9.25768-14.41657
 4.30-1.50 -0.493 -0.493 -0.493 -0.492 -0.491  9.75929  9.75846-13.91578
 4.30-1.00 -0.492 -0.492 -0.492 -0.491 -0.490 10.25912 10.25888-13.41544
 4.30-0.50 -0.489 -0.489 -0.488 -0.488 -0.486 10.75884 10.75891-12.91542
 4.30 0.00 -0.481 -0.480 -0.480 -0.479 -0.477 11.25888 11.25888-12.41533
 4.30 0.50 -0.465 -0.465 -0.464 -0.463 -0.461 11.75876 11.75899-11.91542
 4.30 1.00 -0.441 -0.441 -0.440 -0.439 -0.436 12.25864 12.25912-11.41522
 4.30 1.25 -0.424 -0.424 -0.424 -0.422 -0.419 12.50861 12.50913-11.16513
 4.30 1.50 -0.402 -0.401 -0.401 -0.399 -0.395 12.75861 12.75914-10.91507
 4.30 1.75 -0.370 -0.369 -0.368 -0.366 -0.361 13.00862 13.00925-10.66503
 4.30 2.00 -0.324 -0.323 -0.322 -0.319 -0.313 13.25864 13.25935-10.41499
 4.30 2.25 -0.262 -0.261 -0.260 -0.255 -0.249 13.50851 13.50936-10.16485
 4.30 2.50 -0.179 -0.178 -0.176 -0.172 -0.164 13.75838 13.75937 -9.91471
 4.30 2.75 -0.072 -0.071 -0.069 -0.065 -0.056 14.00827 14.00957 -9.66463
 4.30 3.00  0.060  0.061  0.063  0.067  0.076 14.25816 14.25983 -9.41454
 4.30 3.20  0.187  0.188  0.190  0.194  0.203 14.45790 14.46004 -9.21439
 4.30 3.40  0.332  0.332  0.334  0.338  0.347 14.65754 14.66029 -9.01415
 4.30 3.60  0.494  0.494  0.496  0.500  0.506 14.85709 14.86063 -8.81377
 4.30 3.80  0.670  0.670  0.672  0.675  0.681 15.05651 15.06120 -8.61314
 4.30 4.00  0.857  0.857  0.858  0.861  0.865 15.25576 15.26198 -8.41229
 4.30 4.20  1.052  1.052  1.053  1.056  1.060 15.45455 15.46317 -8.21113
 4.30 4.40  1.252  1.253  1.253  1.255  1.259 15.65293 15.66474 -8.00959
 4.30 4.60  1.455  1.455  1.456  1.457  1.460 15.85085 15.86676 -7.80756
 4.30 4.80  1.661  1.661  1.661  1.662  1.664 16.04828 16.06922 -7.60501
 4.30 5.00  1.866  1.866  1.867  1.868  1.869 16.24527 16.27207 -7.40209
 4.30 5.20  2.075  2.075  2.075  2.076  2.078 16.44192 16.47519 -7.19894
 4.30 5.40  2.285  2.285  2.285  2.286  2.287 16.63805 16.67874 -6.99539
 4.30 5.60  2.497  2.497  2.497  2.498  2.499 16.83374 16.88267 -6.79150
 4.30 5.80  2.709  2.709  2.709  2.710  2.710 17.02861 17.08728 -6.58696
 4.30 6.00  2.917  2.917  2.917  2.917  2.918 17.22246 17.29270 -6.38164
 4.30 6.25  3.167  3.167  3.167  3.167  3.167 17.46094 17.55219 -6.12219
 4.30 6.50  3.405  3.405  3.405  3.405  3.405 17.69452 17.81491 -5.85949
 4.30 6.75  3.616  3.616  3.616  3.616  3.616 17.91976 18.08306 -5.59133
 4.30 7.00  3.808  3.808  3.808  3.808  3.808 18.13609 18.35468 -5.31966
 4.30 7.25  3.969  3.969  3.969  3.969  3.969 18.34049 18.63032 -5.04397
 4.30 7.50  4.113  4.113  4.113  4.113  4.113 18.53479 18.90596 -4.76828
 4.30 7.75  4.235  4.235  4.235  4.235  4.235 18.71980 19.18042 -4.49385
 4.30 8.00  4.350  4.350  4.350  4.350  4.350 18.89526 19.45408 -4.22026
 4.35-2.00 -0.467 -0.467 -0.467 -0.466 -0.465  9.22246  9.19507-14.47925
 4.35-1.50 -0.476 -0.476 -0.475 -0.475 -0.473  9.71767  9.69992-13.97429
 4.35-1.00 -0.483 -0.483 -0.483 -0.482 -0.480 10.21299 10.20466-13.46954
 4.35-0.50 -0.485 -0.485 -0.485 -0.483 -0.481 10.71037 10.70731-12.96698
 4.35 0.00 -0.481 -0.481 -0.480 -0.479 -0.477 11.20925 11.20844-12.46585
 4.35 0.50 -0.468 -0.468 -0.468 -0.466 -0.464 11.70893 11.70885-11.96537
 4.35 1.00 -0.444 -0.444 -0.444 -0.443 -0.440 12.20871 12.20898-11.46521
 4.35 1.25 -0.428 -0.427 -0.427 -0.426 -0.423 12.45868 12.45904-11.21529
 4.35 1.50 -0.408 -0.408 -0.407 -0.406 -0.403 12.70868 12.70910-10.96537
 4.35 1.75 -0.383 -0.382 -0.382 -0.380 -0.377 12.95869 12.95917-10.71523
 4.35 2.00 -0.349 -0.349 -0.348 -0.346 -0.343 13.20871 13.20925-10.46509
 4.35 2.25 -0.304 -0.303 -0.302 -0.300 -0.296 13.45861 13.45926-10.21503
 4.35 2.50 -0.242 -0.241 -0.241 -0.238 -0.233 13.70851 13.70927 -9.96497
 4.35 2.75 -0.160 -0.159 -0.158 -0.155 -0.149 13.95847 13.95939 -9.71484
 4.35 3.00 -0.054 -0.054 -0.052 -0.049 -0.042 14.20844 14.20951 -9.46471
 4.35 3.20  0.049  0.050  0.052  0.055  0.063 14.40826 14.40962 -9.26465
 4.35 3.40  0.172  0.173  0.175  0.179  0.187 14.60809 14.60972 -9.06460
 4.35 3.60  0.314  0.315  0.317  0.320  0.328 14.80792 14.80986 -8.86448
 4.35 3.80  0.474  0.474  0.475  0.479  0.486 15.00778 15.01006 -8.66425
 4.35 4.00  0.647  0.648  0.649  0.652  0.659 15.20763 15.21032 -8.46395
 4.35 4.20  0.834  0.835  0.835  0.838  0.844 15.40726 15.41065 -8.26363
 4.35 4.40  1.030  1.030  1.031  1.033  1.038 15.60671 15.61111 -8.06321
 4.35 4.60  1.233  1.233  1.233  1.235  1.239 15.80602 15.81176 -7.86260
 4.35 4.80  1.441  1.441  1.442  1.443  1.446 16.00508 16.01275 -7.66161
 4.35 5.00  1.652  1.652  1.652  1.653  1.655 16.20385 16.21405 -7.46030
 4.35 5.20  1.865  1.865  1.865  1.866  1.867 16.40204 16.41577 -7.25857
 4.35 5.40  2.078  2.078  2.078  2.079  2.081 16.59967 16.61797 -7.05636
 4.35 5.60  2.291  2.291  2.291  2.292  2.293 16.79672 16.82071 -6.85357
 4.35 5.80  2.506  2.506  2.506  2.506  2.507 16.99305 17.02410 -6.65010
 4.35 6.00  2.721  2.721  2.721  2.721  2.722 17.18865 17.22814 -6.44600
 4.35 6.25  2.989  2.989  2.989  2.989  2.990 17.43211 17.48405 -6.19018
 4.35 6.50  3.253  3.253  3.253  3.253  3.253 17.67367 17.74147 -5.93293
 4.35 6.75  3.504  3.504  3.504  3.505  3.505 17.91184 18.00143 -5.67294
 4.35 7.00  3.744  3.744  3.744  3.744  3.744 18.14551 18.26435 -5.40994
 4.35 7.25  3.958  3.958  3.958  3.958  3.958 18.37130 18.53197 -5.14237
 4.35 7.50  4.155  4.155  4.155  4.155  4.155 18.58894 18.80277 -4.87160
 4.35 7.75  4.322  4.322  4.322  4.322  4.322 18.79634 19.07603 -4.59832
 4.35 8.00  4.475  4.475  4.475  4.475  4.475 18.99419 19.35199 -4.32230
 4.40-2.00 -0.458 -0.458 -0.458 -0.458 -0.456  9.17696  9.14019-14.53402
 4.40-1.50 -0.458 -0.458 -0.458 -0.458 -0.456  9.67633  9.64068-14.03362
 4.40-1.00 -0.460 -0.460 -0.459 -0.459 -0.457 10.17522 10.14208-13.53210
 4.40-0.50 -0.463 -0.463 -0.462 -0.461 -0.459 10.67201 10.64532-13.02896
 4.40 0.00 -0.467 -0.467 -0.466 -0.465 -0.463 11.16732 11.15045-12.52375
 4.40 0.50 -0.465 -0.465 -0.465 -0.463 -0.460 11.66266 11.65504-12.01923
 4.40 1.00 -0.449 -0.449 -0.448 -0.446 -0.443 12.16017 12.15776-11.51670
 4.40 1.25 -0.434 -0.434 -0.433 -0.431 -0.428 12.40957 12.40826-11.26609
 4.40 1.50 -0.414 -0.413 -0.413 -0.411 -0.407 12.65916 12.65858-11.01570
 4.40 1.75 -0.388 -0.388 -0.387 -0.386 -0.382 12.90885 12.90881-10.76545
 4.40 2.00 -0.357 -0.357 -0.357 -0.355 -0.351 13.15866 13.15897-10.51527
 4.40 2.25 -0.319 -0.319 -0.319 -0.317 -0.313 13.40862 13.40907-10.26517
 4.40 2.50 -0.271 -0.271 -0.270 -0.268 -0.264 13.65858 13.65915-10.01507
 4.40 2.75 -0.207 -0.207 -0.206 -0.204 -0.201 13.90847 13.90921 -9.76496
 4.40 3.00 -0.124 -0.124 -0.124 -0.121 -0.117 14.15836 14.15927 -9.51485
 4.40 3.20 -0.041 -0.040 -0.039 -0.037 -0.032 14.35830 14.35936 -9.31479
 4.40 3.40  0.060  0.060  0.061  0.064  0.069 14.55823 14.55948 -9.11474
 4.40 3.60  0.181  0.181  0.182  0.185  0.190 14.75817 14.75960 -8.91466
 4.40 3.80  0.321  0.321  0.323  0.325  0.331 14.95812 14.95973 -8.71456
 4.40 4.00  0.479  0.479  0.480  0.482  0.488 15.15806 15.15987 -8.51442
 4.40 4.20  0.653  0.653  0.654  0.657  0.662 15.35785 15.36002 -8.31426
 4.40 4.40  0.839  0.840  0.841  0.843  0.847 15.55759 15.56020 -8.11406
 4.40 4.60  1.035  1.036  1.036  1.038  1.043 15.75730 15.76045 -7.91381
 4.40 4.80  1.239  1.239  1.239  1.241  1.245 15.95696 15.96085 -7.71346
 4.40 5.00  1.447  1.448  1.448  1.449  1.452 16.15655 16.16137 -7.51300
 4.40 5.20  1.661  1.661  1.661  1.663  1.665 16.35591 16.36199 -7.31238
 4.40 5.40  1.878  1.878  1.878  1.878  1.880 16.55501 16.56283 -7.11152
 4.40 5.60  2.096  2.096  2.096  2.097  2.098 16.75381 16.76398 -6.91033
 4.40 5.80  2.315  2.315  2.315  2.316  2.317 16.95209 16.96569 -6.70862
 4.40 6.00  2.535  2.535  2.535  2.535  2.536 17.14983 17.16791 -6.50640
 4.40 6.25  2.811  2.811  2.811  2.811  2.811 17.39582 17.42168 -6.25273
 4.40 6.50  3.086  3.086  3.086  3.086  3.086 17.64038 17.67669 -5.99783
 4.40 6.75  3.358  3.358  3.358  3.358  3.358 17.88329 17.93316 -5.74133
 4.40 7.00  3.622  3.622  3.622  3.622  3.622 18.12385 18.19145 -5.48294
 4.40 7.25  3.871  3.871  3.871  3.871  3.871 18.36099 18.45210 -5.22218
 4.40 7.50  4.108  4.108  4.108  4.108  4.108 18.59362 18.71559 -4.95861
 4.40 7.75  4.320  4.320  4.320  4.320  4.320 18.81862 18.98303 -4.69121
 4.40 8.00  4.517  4.517  4.517  4.517  4.517 19.03703 19.25406 -4.42033
 4.45-2.00 -0.457 -0.457 -0.457 -0.457 -0.456  9.12710  9.08991-14.58436
 4.45-1.50 -0.457 -0.457 -0.457 -0.456 -0.455  9.62696  9.58995-14.08428
 4.45-1.00 -0.456 -0.456 -0.456 -0.455 -0.453 10.12711 10.09026-13.58419
 4.45-0.50 -0.455 -0.455 -0.455 -0.454 -0.451 10.62665 10.59028-13.08397
 4.45 0.00 -0.453 -0.453 -0.452 -0.451 -0.449 11.12613 11.09096-12.58319
 4.45 0.50 -0.449 -0.448 -0.448 -0.447 -0.444 11.62418 11.59306-12.08118
 4.45 1.00 -0.440 -0.439 -0.439 -0.437 -0.434 12.12024 12.09726-11.57708
 4.45 1.25 -0.430 -0.429 -0.429 -0.427 -0.423 12.36773 12.34988-11.32445
 4.45 1.50 -0.414 -0.414 -0.413 -0.411 -0.407 12.61521 12.60249-11.07181
 4.45 1.75 -0.393 -0.392 -0.392 -0.389 -0.385 12.86306 12.85471-10.81962
 4.45 2.00 -0.364 -0.363 -0.362 -0.360 -0.356 13.11126 13.10653-10.56783
 4.45 2.25 -0.327 -0.327 -0.326 -0.323 -0.319 13.36018 13.35754-10.31677
 4.45 2.50 -0.282 -0.282 -0.281 -0.279 -0.275 13.60949 13.60821-10.06606
 4.45 2.75 -0.227 -0.226 -0.226 -0.224 -0.220 13.85917 13.85860 -9.81559
 4.45 3.00 -0.158 -0.158 -0.158 -0.155 -0.151 14.10890 14.10890 -9.56527
 4.45 3.20 -0.090 -0.090 -0.089 -0.087 -0.082 14.30869 14.30912 -9.36510
 4.45 3.40 -0.007 -0.007 -0.006 -0.004  0.000 14.50850 14.50931 -9.16496
 4.45 3.60  0.093  0.093  0.094  0.096  0.101 14.70838 14.70942 -8.96484
 4.45 3.80  0.214  0.214  0.214  0.216  0.221 14.90830 14.90950 -8.76474
 4.45 4.00  0.353  0.353  0.353  0.355  0.359 15.10823 15.10958 -8.56463
 4.45 4.20  0.511  0.512  0.512  0.514  0.518 15.30807 15.30974 -8.36451
 4.45 4.40  0.685  0.685  0.686  0.687  0.691 15.50788 15.50992 -8.16437
 4.45 4.60  0.871  0.871  0.872  0.874  0.877 15.70768 15.71012 -7.96419
 4.45 4.80  1.068  1.068  1.069  1.070  1.074 15.90746 15.91034 -7.76395
 4.45 5.00  1.272  1.272  1.273  1.274  1.277 16.10721 16.11059 -7.56368
 4.45 5.20  1.482  1.482  1.483  1.484  1.486 16.30693 16.31087 -7.36340
 4.45 5.40  1.696  1.696  1.696  1.697  1.699 16.50658 16.51121 -7.16307
 4.45 5.60  1.913  1.913  1.914  1.914  1.915 16.70612 16.71166 -6.96262
 4.45 5.80  2.133  2.133  2.133  2.134  2.135 16.90543 16.91235 -6.76192
 4.45 6.00  2.354  2.354  2.354  2.355  2.356 17.10449 17.11328 -6.56098
 4.45 6.25  2.634  2.634  2.635  2.635  2.635 17.35271 17.36501 -6.30926
 4.45 6.50  2.916  2.916  2.916  2.916  2.917 17.60010 17.61753 -6.05675
 4.45 6.75  3.198  3.198  3.198  3.198  3.199 17.84615 17.87129 -5.80303
 4.45 7.00  3.479  3.479  3.479  3.479  3.479 18.09061 18.12646 -5.54791
 4.45 7.25  3.752  3.752  3.752  3.752  3.752 18.33299 18.38336 -5.29098
 4.45 7.50  4.013  4.013  4.013  4.014  4.014 18.57264 18.64237 -5.03194
 4.45 7.75  4.256  4.256  4.256  4.256  4.256 18.80793 18.90426 -4.77005
 4.45 8.00  4.487  4.487  4.487  4.487  4.487 19.03941 19.16879 -4.50557
 4.50-2.00 -0.457 -0.457 -0.457 -0.457 -0.455  9.07700  9.03981-14.63433
 4.50-1.50 -0.457 -0.456 -0.456 -0.456 -0.454  9.57703  9.53995-14.13430
 4.50-1.00 -0.456 -0.456 -0.455 -0.454 -0.453 10.07700 10.03981-13.63433
 4.50-0.50 -0.454 -0.454 -0.454 -0.453 -0.451 10.57692 10.53995-13.13431
 4.50 0.00 -0.452 -0.452 -0.452 -0.451 -0.448 11.07700 11.04021-12.63414
 4.50 0.50 -0.448 -0.448 -0.447 -0.446 -0.444 11.57669 11.54020-12.13401
 4.50 1.00 -0.439 -0.439 -0.438 -0.437 -0.434 12.07628 12.04100-11.63339
 4.50 1.25 -0.430 -0.430 -0.429 -0.428 -0.425 12.32577 12.29151-11.38286
 4.50 1.50 -0.417 -0.416 -0.416 -0.415 -0.410 12.57496 12.54220-11.13206
 4.50 1.75 -0.396 -0.396 -0.396 -0.394 -0.390 12.82365 12.79373-10.88065
 4.50 2.00 -0.368 -0.368 -0.367 -0.364 -0.360 13.07188 13.04571-10.62875
 4.50 2.25 -0.330 -0.330 -0.329 -0.327 -0.323 13.31940 13.29822-10.37615
 4.50 2.50 -0.284 -0.284 -0.283 -0.281 -0.277 13.56691 13.55072-10.12355
 4.50 2.75 -0.230 -0.230 -0.230 -0.228 -0.223 13.81450 13.80312 -9.87111
 4.50 3.00 -0.168 -0.167 -0.166 -0.165 -0.160 14.06221 14.05538 -9.61889
 4.50 3.20 -0.108 -0.107 -0.106 -0.105 -0.100 14.26103 14.25662 -9.41767
 4.50 3.40 -0.036 -0.036 -0.036 -0.034 -0.029 14.46013 14.45760 -9.21672
 4.50 3.60  0.048  0.048  0.048  0.051  0.055 14.65955 14.65830 -9.01602
 4.50 3.80  0.150  0.150  0.150  0.152  0.156 14.85914 14.85882 -8.81549
 4.50 4.00  0.270  0.270  0.271  0.272  0.276 15.05881 15.05918 -8.61511
 4.50 4.20  0.410  0.411  0.411  0.413  0.416 15.25849 15.25938 -8.41490
 4.50 4.40  0.569  0.569  0.569  0.570  0.573 15.45823 15.45957 -8.21469
 4.50 4.60  0.742  0.743  0.743  0.745  0.747 15.65802 15.65980 -8.01447
 4.50 4.80  0.929  0.929  0.930  0.931  0.934 15.85784 15.86006 -7.81425
 4.50 5.00  1.126  1.126  1.126  1.127  1.129 16.05767 16.06032 -7.61404
 4.50 5.20  1.330  1.330  1.331  1.331  1.333 16.25744 16.26049 -7.41383
 4.50 5.40  1.540  1.540  1.540  1.541  1.543 16.45717 16.46066 -7.21361
 4.50 5.60  1.754  1.754  1.754  1.755  1.756 16.65688 16.66090 -7.01335
 4.50 5.80  1.972  1.972  1.972  1.972  1.973 16.85655 16.86131 -6.81294
 4.50 6.00  2.191  2.191  2.191  2.192  2.193 17.05614 17.06183 -6.61243
 4.50 6.25  2.469  2.469  2.469  2.469  2.470 17.30527 17.31262 -6.36164
 4.50 6.50  2.749  2.749  2.749  2.749  2.749 17.55400 17.56372 -6.11053
 4.50 6.75  3.034  3.034  3.034  3.034  3.035 17.80221 17.81554 -5.85872
 4.50 7.00  3.321  3.321  3.321  3.321  3.321 18.04961 18.06819 -5.60607
 4.50 7.25  3.606  3.606  3.606  3.606  3.607 18.29544 18.32203 -5.35222
 4.50 7.50  3.887  3.887  3.887  3.888  3.888 18.53945 18.57738 -5.09686
 4.50 7.75  4.155  4.155  4.155  4.155  4.155 18.78071 18.83507 -4.83915
 4.50 8.00  4.408  4.408  4.408  4.408  4.408 19.01953 19.09482 -4.57938
 4.55-2.00 -0.457 -0.457 -0.457 -0.457 -0.455  9.02694  8.98998-14.68424
 4.55-1.50 -0.457 -0.457 -0.457 -0.456 -0.455  9.52699  9.48996-14.18436
 4.55-1.00 -0.456 -0.456 -0.456 -0.455 -0.454 10.02694  9.98998-13.68424
 4.55-0.50 -0.455 -0.455 -0.454 -0.454 -0.451 10.52699 10.48996-13.18429
 4.55 0.00 -0.453 -0.452 -0.452 -0.451 -0.449 11.02694 10.99003-12.68424
 4.55 0.50 -0.449 -0.449 -0.449 -0.448 -0.445 11.52699 11.49010-12.18422
 4.55 1.00 -0.444 -0.444 -0.443 -0.442 -0.439 12.02694 11.99016-11.68403
 4.55 1.25 -0.438 -0.438 -0.438 -0.436 -0.433 12.27686 12.24020-11.43399
 4.55 1.50 -0.430 -0.429 -0.429 -0.428 -0.424 12.52673 12.49024-11.18396
 4.55 1.75 -0.416 -0.416 -0.416 -0.414 -0.410 12.77648 12.74046-10.93375
 4.55 2.00 -0.396 -0.395 -0.395 -0.393 -0.389 13.02612 12.99083-10.68340
 4.55 2.25 -0.364 -0.364 -0.363 -0.361 -0.357 13.27568 13.24133-10.43293
 4.55 2.50 -0.320 -0.319 -0.318 -0.317 -0.312 13.52505 13.49206-10.18224
 4.55 2.75 -0.260 -0.260 -0.259 -0.257 -0.252 13.77397 13.74337 -9.93098
 4.55 3.00 -0.186 -0.186 -0.185 -0.183 -0.178 14.02243 13.99515 -9.67923
 4.55 3.20 -0.118 -0.117 -0.117 -0.115 -0.110 14.22044 14.19710 -9.47719
 4.55 3.40 -0.043 -0.042 -0.042 -0.040 -0.035 14.41845 14.39909 -9.27514
 4.55 3.60  0.039  0.039  0.040  0.041  0.045 14.61649 14.60112 -9.07311
 4.55 3.80  0.131  0.132  0.132  0.134  0.137 14.81462 14.80315 -8.87112
 4.55 4.00  0.236  0.237  0.237  0.239  0.242 15.01284 15.00518 -8.66918
 4.55 4.20  0.358  0.358  0.359  0.360  0.364 15.21142 15.20658 -8.46779
 4.55 4.40  0.497  0.497  0.498  0.499  0.502 15.41024 15.40768 -8.26667
 4.55 4.60  0.653  0.653  0.654  0.655  0.658 15.60934 15.60845 -8.06584
 4.55 4.80  0.826  0.826  0.826  0.827  0.829 15.80867 15.80901 -7.86521
 4.55 5.00  1.009  1.009  1.009  1.010  1.013 16.00817 16.00945 -7.66474
 4.55 5.20  1.205  1.205  1.205  1.206  1.208 16.20785 16.20978 -7.46444
 4.55 5.40  1.407  1.407  1.408  1.408  1.409 16.40757 16.41011 -7.26414
 4.55 5.60  1.616  1.616  1.616  1.616  1.618 16.60734 16.61045 -7.06383
 4.55 5.80  1.829  1.829  1.829  1.829  1.830 16.80712 16.81079 -6.86350
 4.55 6.00  2.044  2.044  2.045  2.045  2.046 17.00690 17.01115 -6.66314
 4.55 6.25  2.318  2.318  2.319  2.319  2.320 17.25627 17.26166 -6.41262
 4.55 6.50  2.595  2.595  2.595  2.595  2.596 17.50542 17.51229 -6.16197
 4.55 6.75  2.874  2.874  2.874  2.874  2.875 17.75440 17.76321 -5.91105
 4.55 7.00  3.159  3.159  3.159  3.159  3.159 18.00303 18.01452 -5.65976
 4.55 7.25  3.446  3.446  3.446  3.446  3.446 18.25099 18.26653 -5.40775
 4.55 7.50  3.733  3.733  3.733  3.733  3.733 18.49804 18.51944 -5.15484
 4.55 7.75  4.013  4.013  4.013  4.013  4.013 18.74324 18.77393 -4.90030
 4.55 8.00  4.285  4.285  4.285  4.285  4.285 18.98691 19.02979 -4.64436
 4.60-2.00 -0.457 -0.456 -0.456 -0.456 -0.454  8.97708  8.93997-14.73424
 4.60-1.50 -0.456 -0.456 -0.456 -0.456 -0.454  9.47698  9.43996-14.23433
 4.60-1.00 -0.456 -0.456 -0.456 -0.455 -0.453  9.97704  9.93997-13.73424
 4.60-0.50 -0.455 -0.455 -0.455 -0.455 -0.452 10.47698 10.43996-13.23433
 4.60 0.00 -0.454 -0.454 -0.454 -0.453 -0.451 10.97704 10.94002-12.73424
 4.60 0.50 -0.452 -0.451 -0.451 -0.450 -0.448 11.47698 11.43996-12.23426
 4.60 1.00 -0.447 -0.447 -0.447 -0.446 -0.443 11.97699 11.94007-11.73424
 4.60 1.25 -0.444 -0.444 -0.443 -0.442 -0.439 12.22691 12.19009-11.48422
 4.60 1.50 -0.438 -0.438 -0.438 -0.436 -0.433 12.47683 12.44012-11.23418
 4.60 1.75 -0.430 -0.430 -0.430 -0.428 -0.424 12.72684 12.69016-10.98409
 4.60 2.00 -0.418 -0.418 -0.417 -0.415 -0.411 12.97685 12.94022-10.73400
 4.60 2.25 -0.398 -0.398 -0.397 -0.395 -0.391 13.22671 13.19031-10.48394
 4.60 2.50 -0.367 -0.367 -0.366 -0.365 -0.360 13.47654 13.44044-10.23388
 4.60 2.75 -0.323 -0.323 -0.323 -0.320 -0.315 13.72637 13.69065 -9.98366
 4.60 3.00 -0.262 -0.262 -0.261 -0.259 -0.253 13.97617 13.94097 -9.73330
 4.60 3.20 -0.198 -0.198 -0.198 -0.195 -0.189 14.17577 14.14137 -9.53289
 4.60 3.40 -0.121 -0.121 -0.120 -0.117 -0.112 14.37517 14.34196 -9.33231
 4.60 3.60 -0.029 -0.029 -0.028 -0.025 -0.020 14.57435 14.54283 -9.13144
 4.60 3.80  0.077  0.077  0.077  0.080  0.084 14.77323 14.74407 -8.93019
 4.60 4.00  0.195  0.196  0.196  0.197  0.202 14.97183 14.94562 -8.72862
 4.60 4.20  0.324  0.325  0.325  0.326  0.330 15.16985 15.14772 -8.52655
 4.60 4.40  0.462  0.463  0.463  0.465  0.467 15.36786 15.34982 -8.32448
 4.60 4.60  0.610  0.610  0.610  0.612  0.614 15.56588 15.55189 -8.12242
 4.60 4.80  0.767  0.767  0.768  0.768  0.771 15.76394 15.75389 -7.92043
 4.60 5.00  0.934  0.934  0.935  0.936  0.937 15.96204 15.95578 -7.71851
 4.60 5.20  1.113  1.113  1.113  1.114  1.116 16.16067 16.15711 -7.51716
 4.60 5.40  1.301  1.301  1.301  1.301  1.303 16.35955 16.35819 -7.31605
 4.60 5.60  1.497  1.497  1.497  1.498  1.499 16.55874 16.55902 -7.11522
 4.60 5.80  1.701  1.701  1.701  1.701  1.703 16.75811 16.75970 -6.91456
 4.60 6.00  1.909  1.909  1.909  1.910  1.910 16.95756 16.96028 -6.71399
 4.60 6.25  2.176  2.176  2.176  2.176  2.177 17.20696 17.21089 -6.46341
 4.60 6.50  2.446  2.446  2.446  2.446  2.446 17.45637 17.46150 -6.21282
 4.60 6.75  2.714  2.714  2.714  2.715  2.715 17.70566 17.71219 -5.96213
 4.60 7.00  2.993  2.993  2.993  2.993  2.993 17.95482 17.96299 -5.71130
 4.60 7.25  3.273  3.273  3.273  3.274  3.274 18.20362 18.21411 -5.46014
 4.60 7.50  3.556  3.556  3.556  3.557  3.557 18.45194 18.46568 -5.20852
 4.60 7.75  3.837  3.837  3.837  3.837  3.837 18.69930 18.71824 -4.95598
 4.60 8.00  4.113  4.113  4.113  4.113  4.114 18.94586 18.97160 -4.70268
 4.65-2.00 -0.456 -0.456 -0.456 -0.455 -0.453  8.92706  8.88997-14.78436
 4.65-1.50 -0.456 -0.456 -0.456 -0.455 -0.453  9.42700  9.38987-14.28433
 4.65-1.00 -0.455 -0.455 -0.455 -0.454 -0.452  9.92706  9.88997-13.78436
 4.65-0.50 -0.455 -0.455 -0.454 -0.454 -0.451 10.42700 10.39005-13.28433
 4.65 0.00 -0.454 -0.454 -0.454 -0.453 -0.450 10.92706 10.89003-12.78436
 4.65 0.50 -0.453 -0.453 -0.452 -0.451 -0.449 11.42700 11.39005-12.28425
 4.65 1.00 -0.450 -0.450 -0.450 -0.449 -0.446 11.92701 11.89009-11.78410
 4.65 1.25 -0.448 -0.448 -0.447 -0.446 -0.444 12.17701 12.14007-11.53417
 4.65 1.50 -0.445 -0.445 -0.444 -0.444 -0.440 12.42700 12.39005-11.28425
 4.65 1.75 -0.440 -0.440 -0.440 -0.438 -0.436 12.67695 12.64010-11.03417
 4.65 2.00 -0.432 -0.432 -0.432 -0.431 -0.427 12.92691 12.89014-10.78410
 4.65 2.25 -0.421 -0.420 -0.420 -0.418 -0.414 13.17687 13.14019-10.53409
 4.65 2.50 -0.402 -0.401 -0.401 -0.399 -0.395 13.42684 13.39023-10.28408
 4.65 2.75 -0.372 -0.372 -0.372 -0.370 -0.365 13.67678 13.64029-10.03396
 4.65 3.00 -0.330 -0.330 -0.329 -0.327 -0.321 13.92670 13.89037 -9.78383
 4.65 3.20 -0.284 -0.283 -0.283 -0.280 -0.274 14.12659 14.09044 -9.58377
 4.65 3.40 -0.224 -0.223 -0.222 -0.220 -0.214 14.32644 14.29053 -9.38370
 4.65 3.60 -0.148 -0.148 -0.147 -0.145 -0.138 14.52626 14.49069 -9.18355
 4.65 3.80 -0.057 -0.057 -0.056 -0.053 -0.047 14.72605 14.69100 -8.98322
 4.65 4.00  0.050  0.051  0.052  0.054  0.061 14.92578 14.89143 -8.78278
 4.65 4.20  0.178  0.178  0.179  0.181  0.188 15.12526 15.09199 -8.58224
 4.65 4.40  0.323  0.323  0.324  0.326  0.332 15.32452 15.29276 -8.38152
 4.65 4.60  0.485  0.485  0.485  0.487  0.491 15.52348 15.49385 -8.18048
 4.65 4.80  0.657  0.657  0.658  0.659  0.663 15.72210 15.69532 -7.97903
 4.65 5.00  0.837  0.837  0.837  0.838  0.841 15.92044 15.89708 -7.77728
 4.65 5.20  1.021  1.021  1.021  1.022  1.024 16.11832 16.09929 -7.57506
 4.65 5.40  1.206  1.206  1.206  1.207  1.209 16.31620 16.30150 -7.37284
 4.65 5.60  1.393  1.393  1.393  1.394  1.396 16.51414 16.50363 -7.17069
 4.65 5.80  1.585  1.585  1.585  1.585  1.586 16.71228 16.70554 -6.96875
 4.65 6.00  1.780  1.780  1.780  1.780  1.781 16.91057 16.90725 -6.76700
 4.65 6.25  2.032  2.032  2.032  2.032  2.033 17.15898 17.15874 -6.51552
 4.65 6.50  2.289  2.289  2.290  2.290  2.290 17.40773 17.40993 -6.26432
 4.65 6.75  2.547  2.547  2.547  2.547  2.548 17.65687 17.66087 -6.01339
 4.65 7.00  2.811  2.811  2.811  2.811  2.811 17.90601 17.91180 -5.76246
 4.65 7.25  3.082  3.082  3.082  3.082  3.082 18.15500 18.16277 -5.51148
 4.65 7.50  3.354  3.354  3.354  3.354  3.355 18.40381 18.41380 -5.26043
 4.65 7.75  3.627  3.627  3.627  3.627  3.628 18.65220 18.66542 -5.00888
 4.65 8.00  3.899  3.899  3.899  3.899  3.899 18.90026 18.91745 -4.75696
 4.70-2.00 -0.456 -0.455 -0.455 -0.454 -0.452  8.87708  8.83998-14.83416
 4.70-1.50 -0.455 -0.455 -0.455 -0.454 -0.452  9.37694  9.33985-14.33433
 4.70-1.00 -0.455 -0.455 -0.454 -0.453 -0.451  9.87708  9.83998-13.83416
 4.70-0.50 -0.454 -0.454 -0.454 -0.453 -0.450 10.37694 10.34005-13.33433
 4.70 0.00 -0.453 -0.453 -0.453 -0.452 -0.449 10.87703 10.83998-12.83416
 4.70 0.50 -0.452 -0.452 -0.451 -0.450 -0.448 11.37694 11.34005-12.33433
 4.70 1.00 -0.450 -0.450 -0.449 -0.448 -0.446 11.87703 11.84004-11.83416
 4.70 1.25 -0.449 -0.448 -0.448 -0.447 -0.444 12.12698 12.09004-11.58420
 4.70 1.50 -0.447 -0.447 -0.446 -0.445 -0.443 12.37694 12.34005-11.33423
 4.70 1.75 -0.444 -0.444 -0.443 -0.443 -0.440 12.62696 12.59008-11.08420
 4.70 2.00 -0.440 -0.440 -0.440 -0.439 -0.435 12.87697 12.84011-10.83416
 4.70 2.25 -0.433 -0.433 -0.433 -0.432 -0.429 13.12696 13.09008-10.58414
 4.70 2.50 -0.423 -0.422 -0.422 -0.421 -0.417 13.37694 13.34005-10.33414
 4.70 2.75 -0.406 -0.406 -0.405 -0.404 -0.400 13.62688 13.59014-10.08415
 4.70 3.00 -0.379 -0.379 -0.378 -0.377 -0.372 13.87680 13.84023 -9.83416
 4.70 3.20 -0.348 -0.348 -0.348 -0.346 -0.341 14.07671 14.04024 -9.63410
 4.70 3.40 -0.307 -0.306 -0.306 -0.304 -0.298 14.27662 14.24024 -9.43401
 4.70 3.60 -0.252 -0.252 -0.251 -0.248 -0.243 14.47656 14.44031 -9.23387
 4.70 3.80 -0.182 -0.182 -0.182 -0.179 -0.172 14.67653 14.64045 -9.03372
 4.70 4.00 -0.097 -0.096 -0.096 -0.093 -0.085 14.87651 14.84061 -8.83357
 4.70 4.20  0.006  0.006  0.007  0.011  0.018 15.07637 15.04076 -8.63342
 4.70 4.40  0.128  0.128  0.129  0.132  0.140 15.27616 15.24094 -8.43328
 4.70 4.60  0.267  0.268  0.269  0.271  0.279 15.47589 15.44120 -8.23306
 4.70 4.80  0.425  0.425  0.427  0.429  0.436 15.67551 15.64164 -8.03266
 4.70 5.00  0.598  0.598  0.599  0.601  0.608 15.87500 15.84223 -7.83209
 4.70 5.20  0.785  0.786  0.786  0.788  0.793 16.07423 16.04305 -7.63127
 4.70 5.40  0.982  0.982  0.982  0.984  0.988 16.27317 16.24414 -7.43015
 4.70 5.60  1.185  1.185  1.185  1.187  1.189 16.47172 16.44570 -7.22854
 4.70 5.80  1.390  1.391  1.391  1.392  1.395 16.66993 16.64764 -7.02658
 4.70 6.00  1.596  1.596  1.596  1.597  1.599 16.86794 16.84973 -6.82449
 4.70 6.25  1.851  1.851  1.851  1.851  1.853 17.11521 17.10249 -6.57176
 4.70 6.50  2.104  2.104  2.105  2.105  2.106 17.36248 17.35526 -6.31903
 4.70 6.75  2.358  2.358  2.358  2.358  2.359 17.61028 17.60753 -6.06672
 4.70 7.00  2.597  2.597  2.597  2.597  2.598 17.85842 17.85944 -5.81474
 4.70 7.25  2.856  2.856  2.856  2.856  2.856 18.10703 18.11077 -5.56343
 4.70 7.50  3.118  3.118  3.118  3.118  3.118 18.35564 18.36211 -5.31211
 4.70 7.75  3.379  3.379  3.379  3.380  3.380 18.60423 18.61352 -5.06076
 4.70 8.00  3.642  3.642  3.642  3.642  3.642 18.85279 18.86498 -4.80939
 4.75-2.00 -0.456 -0.456 -0.455 -0.455 -0.452  8.82711  8.79000-14.88439
 4.75-1.50 -0.455 -0.455 -0.455 -0.454 -0.452  9.32695  9.29004-14.38437
 4.75-1.00 -0.455 -0.455 -0.454 -0.453 -0.451  9.82705  9.79000-13.88439
 4.75-0.50 -0.454 -0.454 -0.453 -0.452 -0.450 10.32695 10.29003-13.38437
 4.75 0.00 -0.453 -0.453 -0.452 -0.451 -0.448 10.82705 10.79000-12.88439
 4.75 0.50 -0.451 -0.451 -0.451 -0.450 -0.447 11.32695 11.29004-12.38426
 4.75 1.00 -0.449 -0.449 -0.449 -0.448 -0.445 11.82705 11.79000-11.88439
 4.75 1.25 -0.448 -0.448 -0.447 -0.447 -0.444 12.07700 12.04002-11.63434
 4.75 1.50 -0.446 -0.446 -0.446 -0.445 -0.442 12.32695 12.29004-11.38426
 4.75 1.75 -0.444 -0.444 -0.444 -0.443 -0.440 12.57697 12.54006-11.13416
 4.75 2.00 -0.441 -0.441 -0.441 -0.440 -0.437 12.82698 12.79007-10.88406
 4.75 2.25 -0.437 -0.437 -0.437 -0.436 -0.433 13.07697 13.04005-10.63411
 4.75 2.50 -0.432 -0.432 -0.431 -0.430 -0.427 13.32695 13.29003-10.38416
 4.75 2.75 -0.422 -0.422 -0.421 -0.420 -0.417 13.57690 13.54012-10.13411
 4.75 3.00 -0.407 -0.407 -0.406 -0.405 -0.401 13.82685 13.79022 -9.88406
 4.75 3.20 -0.389 -0.388 -0.388 -0.386 -0.382 14.02681 13.99023 -9.68405
 4.75 3.40 -0.363 -0.362 -0.362 -0.360 -0.356 14.22677 14.19025 -9.48405
 4.75 3.60 -0.327 -0.327 -0.326 -0.325 -0.320 14.42673 14.39028 -9.28399
 4.75 3.80 -0.279 -0.279 -0.278 -0.277 -0.271 14.62669 14.59035 -9.08386
 4.75 4.00 -0.218 -0.218 -0.217 -0.214 -0.209 14.82666 14.79043 -8.88373
 4.75 4.20 -0.140 -0.139 -0.139 -0.136 -0.129 15.02653 14.99053 -8.68369
 4.75 4.40 -0.045 -0.045 -0.044 -0.040 -0.034 15.22640 15.19065 -8.48365
 4.75 4.60  0.068  0.068  0.069  0.072  0.080 15.42630 15.39076 -8.28360
 4.75 4.80  0.199  0.199  0.200  0.203  0.211 15.62622 15.59087 -8.08352
 4.75 5.00  0.346  0.347  0.348  0.351  0.359 15.82614 15.79099 -7.88339
 4.75 5.20  0.510  0.511  0.511  0.514  0.521 16.02590 15.99123 -7.68313
 4.75 5.40  0.687  0.687  0.688  0.690  0.697 16.22554 16.19159 -7.48273
 4.75 5.60  0.875  0.876  0.876  0.878  0.884 16.42506 16.39209 -7.28218
 4.75 5.80  1.073  1.073  1.074  1.076  1.080 16.62440 16.59282 -7.08141
 4.75 6.00  1.279  1.279  1.279  1.280  1.284 16.82354 16.79379 -6.88042
 4.75 6.25  1.543  1.543  1.544  1.545  1.548 17.07187 17.04554 -6.62872
 4.75 6.50  1.814  1.814  1.814  1.815  1.816 17.31973 17.29776 -6.37654
 4.75 6.75  2.082  2.082  2.082  2.083  2.084 17.56699 17.55064 -6.12359
 4.75 7.00  2.334  2.334  2.334  2.335  2.336 17.81425 17.80353 -5.87063
 4.75 7.25  2.594  2.594  2.594  2.594  2.595 18.06157 18.05625 -5.61796
 4.75 7.50  2.852  2.852  2.852  2.852  2.853 18.30899 18.30878 -5.36552
 4.75 7.75  3.107  3.107  3.107  3.107  3.108 18.55692 18.56086 -5.11345
 4.75 8.00  3.362  3.362  3.362  3.362  3.362 18.80523 18.81258 -4.86170
 4.80-2.00 -0.456 -0.456 -0.456 -0.455 -0.453  8.77706  8.73997-14.93442
 4.80-1.50 -0.455 -0.455 -0.455 -0.454 -0.452  9.27692  9.24005-14.43439
 4.80-1.00 -0.455 -0.455 -0.455 -0.454 -0.451  9.77706  9.73997-13.93442
 4.80-0.50 -0.454 -0.454 -0.454 -0.453 -0.450 10.27692 10.24005-13.43439
 4.80 0.00 -0.453 -0.453 -0.453 -0.452 -0.449 10.77706 10.73997-12.93442
 4.80 0.50 -0.452 -0.452 -0.451 -0.450 -0.447 11.27692 11.24005-12.43427
 4.80 1.00 -0.450 -0.450 -0.449 -0.448 -0.446 11.77699 11.74005-11.93442
 4.80 1.25 -0.449 -0.448 -0.448 -0.447 -0.444 12.02696 11.99005-11.68436
 4.80 1.50 -0.447 -0.447 -0.446 -0.446 -0.443 12.27692 12.24005-11.43427
 4.80 1.75 -0.445 -0.445 -0.445 -0.444 -0.440 12.52696 12.49005-11.18416
 4.80 2.00 -0.442 -0.442 -0.442 -0.441 -0.437 12.77699 12.74005-10.93405
 4.80 2.25 -0.439 -0.438 -0.438 -0.437 -0.434 13.02696 12.99005-10.68410
 4.80 2.50 -0.434 -0.433 -0.433 -0.432 -0.429 13.27692 13.24005-10.43415
 4.80 2.75 -0.427 -0.427 -0.426 -0.425 -0.422 13.52692 13.49013-10.18410
 4.80 3.00 -0.417 -0.417 -0.417 -0.416 -0.412 13.77692 13.74020 -9.93405
 4.80 3.20 -0.406 -0.406 -0.406 -0.405 -0.400 13.97683 13.94025 -9.73404
 4.80 3.40 -0.391 -0.391 -0.391 -0.389 -0.384 14.17674 14.14028 -9.53403
 4.80 3.60 -0.369 -0.369 -0.369 -0.367 -0.363 14.37669 14.34031 -9.33404
 4.80 3.80 -0.339 -0.339 -0.338 -0.336 -0.332 14.57670 14.54034 -9.13404
 4.80 4.00 -0.298 -0.298 -0.298 -0.296 -0.292 14.77670 14.74036 -8.93405
 4.80 4.20 -0.245 -0.244 -0.244 -0.242 -0.237 14.97661 14.94044 -8.73395
 4.80 4.40 -0.177 -0.176 -0.176 -0.173 -0.168 15.17651 15.14051 -8.53385
 4.80 4.60 -0.091 -0.091 -0.090 -0.088 -0.082 15.37645 15.34058 -8.33377
 4.80 4.80  0.010  0.011  0.011  0.014  0.020 15.57643 15.54063 -8.13372
 4.80 5.00  0.130  0.131  0.131  0.134  0.141 15.77641 15.74068 -7.93368
 4.80 5.20  0.268  0.268  0.269  0.272  0.279 15.97628 15.94079 -7.73352
 4.80 5.40  0.422  0.422  0.423  0.425  0.433 16.17611 16.14095 -7.53332
 4.80 5.60  0.590  0.590  0.591  0.593  0.600 16.37591 16.34116 -7.33310
 4.80 5.80  0.769  0.770  0.770  0.772  0.778 16.57568 16.54143 -7.13286
 4.80 6.00  0.959  0.959  0.960  0.961  0.966 16.77539 16.74178 -6.93256
 4.80 6.25  1.206  1.206  1.207  1.208  1.212 17.02480 16.99240 -6.68193
 4.80 6.50  1.461  1.461  1.461  1.463  1.466 17.27393 17.24329 -6.43098
 4.80 6.75  1.727  1.727  1.727  1.728  1.730 17.52256 17.49478 -6.17941
 4.80 7.00  1.996  1.996  1.996  1.997  1.998 17.77071 17.74679 -5.92738
 4.80 7.25  2.262  2.262  2.262  2.262  2.264 18.01808 17.99950 -5.67483
 4.80 7.50  2.533  2.533  2.533  2.534  2.534 18.26529 18.25237 -5.42205
 4.80 7.75  2.797  2.797  2.797  2.797  2.797 18.51245 18.50529 -5.16917
 4.80 8.00  3.056  3.056  3.056  3.056  3.056 18.75952 18.75831 -4.91614
 4.85-2.00 -0.456 -0.456 -0.456 -0.455 -0.453  8.72705  8.68993-14.98422
 4.85-1.50 -0.455 -0.455 -0.455 -0.454 -0.452  9.22712  9.19005-14.48439
 4.85-1.00 -0.455 -0.455 -0.455 -0.454 -0.452  9.72705  9.69002-13.98422
 4.85-0.50 -0.454 -0.454 -0.454 -0.453 -0.451 10.22712 10.19005-13.48439
 4.85 0.00 -0.454 -0.453 -0.453 -0.452 -0.450 10.72705 10.69002-12.98422
 4.85 0.50 -0.453 -0.453 -0.452 -0.451 -0.449 11.22711 11.19005-12.48426
 4.85 1.00 -0.451 -0.451 -0.451 -0.450 -0.447 11.72705 11.69002-11.98422
 4.85 1.25 -0.450 -0.450 -0.450 -0.449 -0.446 11.97696 11.94003-11.73424
 4.85 1.50 -0.449 -0.449 -0.448 -0.447 -0.445 12.22686 12.19005-11.48426
 4.85 1.75 -0.447 -0.447 -0.447 -0.446 -0.443 12.47691 12.44008-11.23424
 4.85 2.00 -0.445 -0.445 -0.444 -0.444 -0.440 12.72697 12.69011-10.98422
 4.85 2.25 -0.442 -0.442 -0.441 -0.440 -0.437 12.97692 12.94008-10.73424
 4.85 2.50 -0.437 -0.437 -0.437 -0.435 -0.432 13.22686 13.19005-10.48426
 4.85 2.75 -0.431 -0.431 -0.430 -0.429 -0.426 13.47687 13.44008-10.23425
 4.85 3.00 -0.422 -0.422 -0.422 -0.421 -0.417 13.72689 13.69011 -9.98422
 4.85 3.20 -0.414 -0.414 -0.413 -0.412 -0.408 13.92689 13.89009 -9.78419
 4.85 3.40 -0.403 -0.403 -0.402 -0.401 -0.396 14.12687 14.09006 -9.58415
 4.85 3.60 -0.388 -0.388 -0.388 -0.386 -0.382 14.32683 14.29010 -9.38406
 4.85 3.80 -0.368 -0.368 -0.368 -0.366 -0.362 14.52678 14.49019 -9.18393
 4.85 4.00 -0.342 -0.342 -0.341 -0.339 -0.335 14.72673 14.69028 -8.98380
 4.85 4.20 -0.306 -0.306 -0.305 -0.304 -0.299 14.92668 14.89030 -8.78383
 4.85 4.40 -0.260 -0.259 -0.259 -0.257 -0.252 15.12663 15.09032 -8.58385
 4.85 4.60 -0.199 -0.199 -0.199 -0.197 -0.191 15.32658 15.29036 -8.38386
 4.85 4.80 -0.125 -0.124 -0.124 -0.121 -0.116 15.52653 15.49045 -8.18385
 4.85 5.00 -0.033 -0.032 -0.032 -0.030 -0.024 15.72648 15.69055 -7.98380
 4.85 5.20  0.076  0.076  0.077  0.079  0.085 15.92643 15.89068 -7.78369
 4.85 5.40  0.203  0.203  0.204  0.207  0.212 16.12637 16.09082 -7.58355
 4.85 5.60  0.347  0.348  0.348  0.351  0.357 16.32627 16.29096 -7.38337
 4.85 5.80  0.508  0.508  0.508  0.511  0.516 16.52611 16.49111 -7.18318
 4.85 6.00  0.681  0.681  0.682  0.684  0.688 16.72591 16.69126 -6.98297
 4.85 6.25  0.912  0.912  0.913  0.914  0.918 16.97565 16.94157 -6.73270
 4.85 6.50  1.152  1.152  1.152  1.153  1.157 17.22531 17.19201 -6.48241
 4.85 6.75  1.400  1.400  1.401  1.402  1.405 17.47476 17.44258 -6.23179
 4.85 7.00  1.659  1.659  1.659  1.660  1.662 17.72395 17.69337 -5.98088
 4.85 7.25  1.917  1.917  1.917  1.918  1.920 17.97264 17.94467 -5.72957
 4.85 7.50  2.185  2.185  2.185  2.185  2.186 18.22089 18.19645 -5.47782
 4.85 7.75  2.451  2.451  2.451  2.452  2.452 18.46865 18.44885 -5.22550
 4.85 8.00  2.719  2.719  2.719  2.719  2.720 18.71592 18.70183 -4.97265
 4.90-2.00 -0.456 -0.456 -0.456 -0.455 -0.453  8.67706  8.63998-15.03433
 4.90-1.50 -0.455 -0.455 -0.455 -0.455 -0.453  9.17696  9.13988-14.53432
 4.90-1.00 -0.455 -0.455 -0.455 -0.454 -0.452  9.67706  9.63998-14.03428
 4.90-0.50 -0.454 -0.454 -0.454 -0.453 -0.451 10.17696 10.13988-13.53432
 4.90 0.00 -0.453 -0.453 -0.453 -0.452 -0.450 10.67706 10.63999-13.03428
 4.90 0.50 -0.452 -0.452 -0.452 -0.451 -0.449 11.17696 11.13988-12.53432
 4.90 1.00 -0.451 -0.451 -0.451 -0.450 -0.448 11.67706 11.63998-12.03428
 4.90 1.25 -0.451 -0.450 -0.450 -0.449 -0.447 11.92701 11.88993-11.78430
 4.90 1.50 -0.450 -0.450 -0.449 -0.448 -0.446 12.17696 12.13988-11.53432
 4.90 1.75 -0.449 -0.449 -0.448 -0.448 -0.445 12.42696 12.38998-11.28428
 4.90 2.00 -0.447 -0.447 -0.447 -0.446 -0.444 12.67697 12.64008-11.03423
 4.90 2.25 -0.445 -0.445 -0.445 -0.444 -0.441 12.92696 12.89016-10.78420
 4.90 2.50 -0.442 -0.442 -0.442 -0.441 -0.438 13.17696 13.14019-10.53417
 4.90 2.75 -0.438 -0.437 -0.437 -0.436 -0.433 13.42696 13.39014-10.28415
 4.90 3.00 -0.431 -0.430 -0.430 -0.429 -0.426 13.67697 13.64008-10.03414
 4.90 3.20 -0.423 -0.423 -0.422 -0.421 -0.418 13.87697 13.84013 -9.83415
 4.90 3.40 -0.413 -0.413 -0.413 -0.412 -0.408 14.07696 14.04017 -9.63417
 4.90 3.60 -0.401 -0.401 -0.400 -0.399 -0.395 14.27692 14.24021 -9.43414
 4.90 3.80 -0.385 -0.385 -0.384 -0.383 -0.379 14.47686 14.44025 -9.23407
 4.90 4.00 -0.365 -0.364 -0.364 -0.362 -0.359 14.67679 14.64028 -9.03400
 4.90 4.20 -0.339 -0.338 -0.338 -0.337 -0.332 14.87673 14.84025 -8.83395
 4.90 4.40 -0.305 -0.305 -0.305 -0.303 -0.299 15.07669 15.04021 -8.63390
 4.90 4.60 -0.263 -0.263 -0.262 -0.260 -0.256 15.27666 15.24024 -8.43385
 4.90 4.80 -0.208 -0.208 -0.208 -0.206 -0.201 15.47663 15.44036 -8.23381
 4.90 5.00 -0.141 -0.141 -0.140 -0.138 -0.133 15.67660 15.64048 -8.03376
 4.90 5.20 -0.057 -0.057 -0.056 -0.054 -0.049 15.87652 15.84062 -7.83370
 4.90 5.40  0.043  0.043  0.043  0.045  0.050 16.07643 16.04075 -7.63362
 4.90 5.60  0.161  0.161  0.161  0.163  0.169 16.27634 16.24085 -7.43353
 4.90 5.80  0.297  0.297  0.298  0.300  0.305 16.47624 16.44092 -7.23342
 4.90 6.00  0.450  0.450  0.451  0.453  0.457 16.67615 16.64098 -7.03330
 4.90 6.25  0.662  0.662  0.662  0.664  0.668 16.92599 16.89118 -6.78309
 4.90 6.50  0.891  0.891  0.891  0.892  0.896 17.17580 17.14145 -6.53284
 4.90 6.75  1.123  1.123  1.123  1.124  1.127 17.42548 17.39176 -6.28253
 4.90 7.00  1.372  1.372  1.372  1.373  1.375 17.67505 17.64217 -6.03212
 4.90 7.25  1.623  1.623  1.624  1.624  1.626 17.92451 17.89278 -5.78150
 4.90 7.50  1.880  1.880  1.880  1.880  1.882 18.17377 18.14364 -5.53062
 4.90 7.75  2.138  2.138  2.138  2.138  2.139 18.42250 18.39497 -5.27930
 4.90 8.00  2.400  2.400  2.400  2.400  2.400 18.67080 18.64670 -5.02761
 4.95-2.00 -0.456 -0.456 -0.456 -0.455 -0.454  8.62706  8.58995-15.08434
 4.95-1.50 -0.456 -0.456 -0.456 -0.455 -0.454  9.12710  9.08991-14.58436
 4.95-1.00 -0.456 -0.455 -0.455 -0.455 -0.453  9.62706  9.58995-14.08428
 4.95-0.50 -0.455 -0.455 -0.455 -0.454 -0.452 10.12711 10.08990-13.58436
 4.95 0.00 -0.454 -0.454 -0.454 -0.453 -0.451 10.62706 10.58995-13.08428
 4.95 0.50 -0.453 -0.453 -0.452 -0.451 -0.449 11.12710 11.08991-12.58436
 4.95 1.00 -0.451 -0.451 -0.451 -0.450 -0.448 11.62706 11.59006-12.08428
 4.95 1.25 -0.451 -0.450 -0.450 -0.449 -0.448 11.87708 11.83998-11.83432
 4.95 1.50 -0.450 -0.450 -0.450 -0.449 -0.447 12.12710 12.08991-11.58436
 4.95 1.75 -0.449 -0.449 -0.449 -0.448 -0.446 12.37708 12.33998-11.33430
 4.95 2.00 -0.448 -0.448 -0.448 -0.447 -0.444 12.62706 12.59006-11.08423
 4.95 2.25 -0.447 -0.447 -0.446 -0.445 -0.443 12.87708 12.83998-10.83421
 4.95 2.50 -0.445 -0.445 -0.444 -0.443 -0.441 13.12711 13.08991-10.58419
 4.95 2.75 -0.442 -0.442 -0.441 -0.440 -0.438 13.37704 13.33997-10.33418
 4.95 3.00 -0.437 -0.437 -0.437 -0.436 -0.433 13.62696 13.59006-10.08418
 4.95 3.20 -0.432 -0.432 -0.432 -0.431 -0.428 13.82689 13.79014 -9.88418
 4.95 3.40 -0.425 -0.425 -0.425 -0.424 -0.421 14.02682 13.99022 -9.68419
 4.95 3.60 -0.415 -0.415 -0.415 -0.414 -0.410 14.22680 14.19027 -9.48416
 4.95 3.80 -0.402 -0.402 -0.402 -0.401 -0.397 14.42682 14.39028 -9.28409
 4.95 4.00 -0.385 -0.385 -0.385 -0.384 -0.380 14.62685 14.59028 -9.08402
 4.95 4.20 -0.364 -0.363 -0.363 -0.362 -0.358 14.82683 14.79027 -8.88402
 4.95 4.40 -0.336 -0.336 -0.336 -0.334 -0.331 15.02680 14.99026 -8.68403
 4.95 4.60 -0.302 -0.302 -0.302 -0.301 -0.297 15.22676 15.19031 -8.48398
 4.95 4.80 -0.261 -0.261 -0.260 -0.258 -0.255 15.42671 15.39041 -8.28390
 4.95 5.00 -0.208 -0.208 -0.208 -0.206 -0.201 15.62665 15.59051 -8.08381
 4.95 5.20 -0.144 -0.144 -0.144 -0.142 -0.137 15.82658 15.79055 -7.88376
 4.95 5.40 -0.065 -0.065 -0.065 -0.063 -0.058 16.02650 15.99059 -7.68372
 4.95 5.60  0.029  0.029  0.030  0.031  0.035 16.22642 16.19066 -7.48364
 4.95 5.80  0.141  0.141  0.142  0.143  0.148 16.42633 16.39075 -7.28354
 4.95 6.00  0.271  0.271  0.272  0.273  0.278 16.62624 16.59084 -7.08344
 4.95 6.25  0.459  0.459  0.459  0.460  0.465 16.87602 16.84090 -6.83332
 4.95 6.50  0.669  0.669  0.669  0.671  0.674 17.12581 17.09096 -6.58319
 4.95 6.75  0.885  0.885  0.885  0.887  0.889 17.37566 17.34127 -6.33292
 4.95 7.00  1.125  1.125  1.125  1.126  1.129 17.62552 17.59162 -6.08260
 4.95 7.25  1.371  1.371  1.371  1.372  1.374 17.87524 17.84198 -5.83226
 4.95 7.50  1.623  1.623  1.623  1.624  1.624 18.12483 18.09237 -5.58186
 4.95 7.75  1.874  1.874  1.874  1.875  1.875 18.37415 18.34314 -5.33113
 4.95 8.00  2.129  2.129  2.129  2.129  2.130 18.62325 18.59417 -5.08014
 5.00-2.00 -0.456 -0.456 -0.456 -0.455 -0.454  8.57703  8.53995-15.13430
 5.00-1.50 -0.456 -0.456 -0.455 -0.455 -0.454  9.07700  9.03981-14.63433
 5.00-1.00 -0.456 -0.456 -0.455 -0.455 -0.454  9.57703  9.53995-14.13430
 5.00-0.50 -0.455 -0.455 -0.455 -0.455 -0.454 10.07700 10.03981-13.63433
 5.00 0.00 -0.455 -0.455 -0.455 -0.455 -0.453 10.57703 10.53995-13.13431
 5.00 0.50 -0.454 -0.454 -0.454 -0.453 -0.452 11.07700 11.03981-12.63433
 5.00 1.00 -0.453 -0.453 -0.453 -0.452 -0.450 11.57703 11.53995-12.13430
 5.00 1.25 -0.452 -0.452 -0.452 -0.451 -0.449 11.82702 11.78988-11.88431
 5.00 1.50 -0.451 -0.451 -0.450 -0.450 -0.448 12.07700 12.03981-11.63433
 5.00 1.75 -0.450 -0.450 -0.449 -0.449 -0.447 12.32702 12.28995-11.38428
 5.00 2.00 -0.449 -0.449 -0.448 -0.448 -0.445 12.57703 12.54008-11.13424
 5.00 2.25 -0.448 -0.448 -0.447 -0.446 -0.444 12.82703 12.79017-10.88428
 5.00 2.50 -0.446 -0.446 -0.445 -0.444 -0.442 13.07701 13.04021-10.63433
 5.00 2.75 -0.444 -0.443 -0.443 -0.443 -0.440 13.32696 13.29014-10.38426
 5.00 3.00 -0.441 -0.441 -0.441 -0.440 -0.436 13.57692 13.54008-10.13419
 5.00 3.20 -0.438 -0.438 -0.437 -0.436 -0.433 13.77695 13.74013 -9.93417
 5.00 3.40 -0.433 -0.433 -0.433 -0.431 -0.428 13.97699 13.94018 -9.73415
 5.00 3.60 -0.426 -0.426 -0.426 -0.425 -0.422 14.17700 14.14021 -9.53413
 5.00 3.80 -0.417 -0.417 -0.417 -0.416 -0.413 14.37697 14.34021 -9.33410
 5.00 4.00 -0.405 -0.405 -0.404 -0.403 -0.400 14.57692 14.54020 -9.13407
 5.00 4.20 -0.388 -0.388 -0.387 -0.386 -0.383 14.77681 14.74020 -8.93402
 5.00 4.40 -0.365 -0.365 -0.365 -0.364 -0.361 14.97670 14.94021 -8.73397
 5.00 4.60 -0.337 -0.337 -0.337 -0.336 -0.332 15.17665 15.14026 -8.53394
 5.00 4.80 -0.301 -0.301 -0.301 -0.300 -0.297 15.37667 15.34036 -8.33391
 5.00 5.00 -0.258 -0.258 -0.258 -0.257 -0.254 15.57669 15.54045 -8.13389
 5.00 5.20 -0.205 -0.205 -0.205 -0.203 -0.200 15.77668 15.74052 -7.93385
 5.00 5.40 -0.141 -0.141 -0.140 -0.139 -0.135 15.97666 15.94058 -7.73380
 5.00 5.60 -0.064 -0.064 -0.063 -0.062 -0.058 16.17659 16.14062 -7.53372
 5.00 5.80  0.029  0.029  0.029  0.031  0.034 16.37648 16.34066 -7.33363
 5.00 6.00  0.139  0.139  0.139  0.140  0.144 16.57634 16.54070 -7.13354
 5.00 6.25  0.301  0.301  0.301  0.303  0.306 16.82613 16.79083 -6.88346
 5.00 6.50  0.489  0.489  0.490  0.491  0.494 17.07591 17.04100 -6.63339
 5.00 6.75  0.697  0.697  0.698  0.699  0.701 17.32584 17.29123 -6.38316
 5.00 7.00  0.915  0.915  0.915  0.916  0.918 17.57577 17.54145 -6.13289
 5.00 7.25  1.154  1.154  1.154  1.154  1.156 17.82552 17.79162 -5.88260
 5.00 7.50  1.401  1.401  1.401  1.401  1.402 18.07518 18.04179 -5.63227
 5.00 7.75  1.648  1.648  1.648  1.649  1.650 18.32477 18.29226 -5.38183
 5.00 8.00  1.900  1.900  1.900  1.900  1.901 18.57426 18.54295 -5.13130
 5.05-2.00 -0.455 -0.455 -0.455 -0.454 -0.453  8.52711  8.48996-15.18429
 5.05-1.50 -0.455 -0.455 -0.455 -0.454 -0.453  9.02694  8.98994-14.68445
 5.05-1.00 -0.455 -0.455 -0.455 -0.454 -0.453  9.52711  9.48996-14.18429
 5.05-0.50 -0.455 -0.455 -0.455 -0.454 -0.453 10.02694  9.98994-13.68424
 5.05 0.00 -0.455 -0.455 -0.455 -0.454 -0.453 10.52711 10.48996-13.18429
 5.05 0.50 -0.455 -0.455 -0.455 -0.454 -0.453 11.02694 10.98994-12.68424
 5.05 1.00 -0.454 -0.454 -0.454 -0.453 -0.452 11.52711 11.48996-12.18429
 5.05 1.25 -0.454 -0.454 -0.453 -0.453 -0.451 11.77703 11.73997-11.93427
 5.05 1.50 -0.453 -0.453 -0.453 -0.452 -0.451 12.02694 11.98998-11.68424
 5.05 1.75 -0.452 -0.452 -0.452 -0.451 -0.450 12.27696 12.23997-11.43423
 5.05 2.00 -0.451 -0.451 -0.451 -0.450 -0.448 12.52699 12.48996-11.18422
 5.05 2.25 -0.450 -0.449 -0.449 -0.449 -0.447 12.77696 12.73999-10.93423
 5.05 2.50 -0.448 -0.448 -0.448 -0.447 -0.445 13.02694 12.99003-10.68424
 5.05 2.75 -0.447 -0.446 -0.446 -0.445 -0.443 13.27696 13.24006-10.43423
 5.05 3.00 -0.444 -0.444 -0.443 -0.443 -0.440 13.52699 13.49010-10.18422
 5.05 3.20 -0.441 -0.441 -0.441 -0.440 -0.437 13.72698 13.69009 -9.98423
 5.05 3.40 -0.438 -0.438 -0.438 -0.437 -0.433 13.92696 13.89008 -9.78424
 5.05 3.60 -0.434 -0.433 -0.433 -0.432 -0.429 14.12692 14.09011 -9.58421
 5.05 3.80 -0.427 -0.427 -0.427 -0.426 -0.423 14.32689 14.29017 -9.38415
 5.05 4.00 -0.419 -0.419 -0.419 -0.418 -0.414 14.52686 14.49024 -9.18409
 5.05 4.20 -0.408 -0.407 -0.407 -0.406 -0.403 14.72689 14.69023 -8.98407
 5.05 4.40 -0.392 -0.392 -0.391 -0.390 -0.387 14.92692 14.89021 -8.78404
 5.05 4.60 -0.370 -0.370 -0.369 -0.368 -0.365 15.12690 15.09024 -8.58402
 5.05 4.80 -0.341 -0.341 -0.341 -0.340 -0.337 15.32681 15.29031 -8.38399
 5.05 5.00 -0.305 -0.305 -0.304 -0.303 -0.300 15.52673 15.49038 -8.18396
 5.05 5.20 -0.259 -0.259 -0.259 -0.258 -0.255 15.72665 15.69040 -7.98391
 5.05 5.40 -0.204 -0.204 -0.204 -0.203 -0.200 15.92657 15.89042 -7.78385
 5.05 5.60 -0.138 -0.138 -0.138 -0.137 -0.133 16.12652 16.09048 -7.58379
 5.05 5.80 -0.059 -0.059 -0.059 -0.057 -0.054 16.32650 16.29057 -7.38371
 5.05 6.00  0.034  0.034  0.034  0.035  0.039 16.52647 16.49066 -7.18363
 5.05 6.25  0.175  0.175  0.176  0.177  0.179 16.77630 16.74077 -6.93352
 5.05 6.50  0.343  0.343  0.343  0.344  0.347 17.02612 16.99087 -6.68340
 5.05 6.75  0.536  0.536  0.536  0.537  0.539 17.27604 17.24104 -6.43323
 5.05 7.00  0.735  0.735  0.735  0.735  0.738 17.52595 17.49122 -6.18303
 5.05 7.25  0.964  0.964  0.964  0.965  0.966 17.77563 17.74141 -5.93281
 5.05 7.50  1.204  1.204  1.204  1.205  1.207 18.02530 17.99162 -5.68256
 5.05 7.75  1.448  1.448  1.448  1.448  1.450 18.27503 18.24195 -5.43226
 5.05 8.00  1.698  1.698  1.698  1.698  1.699 18.52479 18.49234 -5.18191
 5.10-2.00 -0.453 -0.453 -0.453 -0.452 -0.451  8.47712  8.43996-15.23433
 5.10-1.50 -0.453 -0.453 -0.453 -0.452 -0.451  8.97704  8.93992-14.73424
 5.10-1.00 -0.453 -0.453 -0.453 -0.452 -0.451  9.47712  9.43996-14.23433
 5.10-0.50 -0.453 -0.453 -0.453 -0.452 -0.451  9.97704  9.93992-13.73424
 5.10 0.00 -0.453 -0.453 -0.453 -0.452 -0.451 10.47712 10.43996-13.23433
 5.10 0.50 -0.453 -0.453 -0.453 -0.452 -0.451 10.97704 10.93997-12.73424
 5.10 1.00 -0.453 -0.453 -0.453 -0.452 -0.451 11.47712 11.43996-12.23426
 5.10 1.25 -0.453 -0.452 -0.452 -0.452 -0.451 11.72706 11.68997-11.98425
 5.10 1.50 -0.452 -0.452 -0.452 -0.452 -0.451 11.97699 11.93997-11.73424
 5.10 1.75 -0.452 -0.452 -0.452 -0.451 -0.450 12.22698 12.18997-11.48425
 5.10 2.00 -0.451 -0.451 -0.451 -0.451 -0.450 12.47698 12.43996-11.23426
 5.10 2.25 -0.451 -0.451 -0.451 -0.450 -0.449 12.72698 12.68998-10.98425
 5.10 2.50 -0.450 -0.450 -0.450 -0.449 -0.448 12.97699 12.94002-10.73424
 5.10 2.75 -0.449 -0.449 -0.448 -0.448 -0.447 13.22699 13.19007-10.48421
 5.10 3.00 -0.447 -0.447 -0.447 -0.447 -0.445 13.47698 13.44012-10.23418
 5.10 3.20 -0.446 -0.446 -0.446 -0.445 -0.443 13.67695 13.64010-10.03421
 5.10 3.40 -0.443 -0.443 -0.443 -0.442 -0.441 13.87692 13.84008 -9.83423
 5.10 3.60 -0.440 -0.440 -0.440 -0.440 -0.437 14.07692 14.04008 -9.63421
 5.10 3.80 -0.436 -0.436 -0.436 -0.435 -0.432 14.27695 14.24010 -9.43416
 5.10 4.00 -0.430 -0.430 -0.430 -0.429 -0.426 14.47698 14.44012 -9.23411
 5.10 4.20 -0.422 -0.422 -0.422 -0.421 -0.418 14.67691 14.64014 -9.03406
 5.10 4.40 -0.412 -0.412 -0.411 -0.410 -0.408 14.87684 14.84016 -8.83402
 5.10 4.60 -0.397 -0.396 -0.396 -0.395 -0.392 15.07681 15.04019 -8.63399
 5.10 4.80 -0.377 -0.376 -0.376 -0.375 -0.371 15.27682 15.24024 -8.43397
 5.10 5.00 -0.349 -0.348 -0.348 -0.347 -0.344 15.47683 15.44028 -8.23396
 5.10 5.20 -0.312 -0.312 -0.311 -0.310 -0.307 15.67675 15.64031 -8.03398
 5.10 5.40 -0.266 -0.265 -0.265 -0.264 -0.261 15.87667 15.84035 -7.83399
 5.10 5.60 -0.208 -0.208 -0.208 -0.207 -0.204 16.07661 16.04041 -7.63395
 5.10 5.80 -0.139 -0.139 -0.139 -0.138 -0.135 16.27658 16.24050 -7.43384
 5.10 6.00 -0.057 -0.056 -0.056 -0.056 -0.053 16.47654 16.44059 -7.23374
 5.10 6.25  0.067  0.067  0.067  0.067  0.070 16.72642 16.69068 -6.98363
 5.10 6.50  0.216  0.216  0.216  0.217  0.219 16.97631 16.94077 -6.73353
 5.10 6.75  0.391  0.391  0.391  0.392  0.394 17.22621 17.19091 -6.48339
 5.10 7.00  0.582  0.582  0.582  0.583  0.585 17.47611 17.44107 -6.23322
 5.10 7.25  0.796  0.796  0.796  0.797  0.798 17.72589 17.69123 -5.98304
 5.10 7.50  1.029  1.029  1.029  1.030  1.031 17.97566 17.94141 -5.73283
 5.10 7.75  1.269  1.269  1.269  1.269  1.270 18.22545 18.19168 -5.48256
 5.10 8.00  1.515  1.515  1.515  1.515  1.516 18.47524 18.44201 -5.23225
 5.15-2.00 -0.449 -0.449 -0.449 -0.448 -0.447  8.42716  8.38987-15.28433
 5.15-1.50 -0.449 -0.449 -0.449 -0.448 -0.447  8.92706  8.88992-14.78436
 5.15-1.00 -0.449 -0.449 -0.449 -0.448 -0.447  9.42716  9.39005-14.28433
 5.15-0.50 -0.449 -0.449 -0.449 -0.448 -0.447  9.92706  9.88992-13.78436
 5.15 0.00 -0.449 -0.449 -0.449 -0.448 -0.447 10.42700 10.39005-13.28433
 5.15 0.50 -0.449 -0.449 -0.449 -0.448 -0.447 10.92701 10.88992-12.78436
 5.15 1.00 -0.449 -0.449 -0.449 -0.448 -0.447 11.42700 11.39005-12.28425
 5.15 1.25 -0.449 -0.449 -0.449 -0.448 -0.447 11.67701 11.64001-12.03431
 5.15 1.50 -0.449 -0.449 -0.449 -0.448 -0.447 11.92701 11.88997-11.78436
 5.15 1.75 -0.449 -0.449 -0.448 -0.448 -0.447 12.17701 12.14001-11.53431
 5.15 2.00 -0.448 -0.448 -0.448 -0.448 -0.447 12.42700 12.39005-11.28425
 5.15 2.25 -0.448 -0.448 -0.448 -0.448 -0.447 12.67698 12.64001-11.03431
 5.15 2.50 -0.448 -0.448 -0.448 -0.447 -0.447 12.92696 12.88997-10.78436
 5.15 2.75 -0.447 -0.447 -0.447 -0.447 -0.446 13.17698 13.14001-10.53431
 5.15 3.00 -0.447 -0.447 -0.447 -0.447 -0.446 13.42700 13.39005-10.28425
 5.15 3.20 -0.446 -0.446 -0.446 -0.446 -0.445 13.62696 13.59004-10.08419
 5.15 3.40 -0.445 -0.445 -0.445 -0.445 -0.443 13.82693 13.79003 -9.88413
 5.15 3.60 -0.443 -0.443 -0.443 -0.443 -0.441 14.02693 13.99003 -9.68411
 5.15 3.80 -0.441 -0.441 -0.441 -0.440 -0.439 14.22696 14.19004 -9.48414
 5.15 4.00 -0.438 -0.438 -0.438 -0.437 -0.436 14.42700 14.39005 -9.28416
 5.15 4.20 -0.434 -0.434 -0.433 -0.433 -0.431 14.62694 14.59009 -9.08414
 5.15 4.40 -0.427 -0.427 -0.426 -0.426 -0.424 14.82689 14.79012 -8.88412
 5.15 4.60 -0.417 -0.417 -0.417 -0.416 -0.414 15.02685 14.99016 -8.68408
 5.15 4.80 -0.404 -0.404 -0.404 -0.403 -0.401 15.22684 15.19019 -8.48404
 5.15 5.00 -0.385 -0.385 -0.385 -0.384 -0.381 15.42684 15.39023 -8.28400
 5.15 5.20 -0.359 -0.359 -0.359 -0.358 -0.355 15.62676 15.59026 -8.08393
 5.15 5.40 -0.325 -0.324 -0.324 -0.323 -0.320 15.82669 15.79029 -7.88387
 5.15 5.60 -0.279 -0.279 -0.279 -0.278 -0.275 16.02662 15.99037 -7.68382
 5.15 5.80 -0.222 -0.222 -0.222 -0.220 -0.217 16.22656 16.19047 -7.48378
 5.15 6.00 -0.151 -0.151 -0.150 -0.149 -0.146 16.42651 16.39058 -7.28375
 5.15 6.25 -0.041 -0.041 -0.041 -0.040 -0.037 16.67645 16.64062 -7.03367
 5.15 6.50  0.091  0.091  0.091  0.092  0.095 16.92639 16.89065 -6.78357
 5.15 6.75  0.250  0.250  0.250  0.250  0.253 17.17631 17.14079 -6.53346
 5.15 7.00  0.432  0.432  0.432  0.433  0.435 17.42619 17.39094 -6.28333
 5.15 7.25  0.625  0.625  0.625  0.626  0.627 17.67602 17.64109 -6.03320
 5.15 7.50  0.847  0.847  0.847  0.848  0.850 17.92583 17.89126 -5.78304
 5.15 7.75  1.081  1.081  1.081  1.081  1.082 18.17561 18.14151 -5.53280
 5.15 8.00  1.323  1.323  1.323  1.323  1.324 18.42537 18.39182 -5.28250
 5.20-2.00 -0.443 -0.443 -0.443 -0.442 -0.441  8.37712  8.34005-15.33433
 5.20-1.50 -0.443 -0.443 -0.443 -0.442 -0.441  8.87703  8.83992-14.83446
 5.20-1.00 -0.443 -0.443 -0.443 -0.442 -0.441  9.37712  9.34005-14.33433
 5.20-0.50 -0.443 -0.443 -0.443 -0.443 -0.441  9.87703  9.83992-13.83446
 5.20 0.00 -0.443 -0.443 -0.443 -0.443 -0.441 10.37712 10.34005-13.33433
 5.20 0.50 -0.443 -0.443 -0.443 -0.443 -0.441 10.87703 10.83992-12.83446
 5.20 1.00 -0.443 -0.443 -0.443 -0.443 -0.441 11.37712 11.34005-12.33433
 5.20 1.25 -0.443 -0.443 -0.443 -0.443 -0.441 11.62708 11.59001-12.08439
 5.20 1.50 -0.443 -0.443 -0.443 -0.443 -0.441 11.87703 11.83998-11.83446
 5.20 1.75 -0.443 -0.443 -0.443 -0.442 -0.441 12.12708 12.09001-11.58435
 5.20 2.00 -0.443 -0.443 -0.443 -0.442 -0.441 12.37712 12.34005-11.33423
 5.20 2.25 -0.443 -0.443 -0.443 -0.442 -0.441 12.62705 12.59001-11.08418
 5.20 2.50 -0.443 -0.443 -0.443 -0.442 -0.441 12.87697 12.83998-10.83416
 5.20 2.75 -0.442 -0.442 -0.442 -0.442 -0.441 13.12695 13.09001-10.58420
 5.20 3.00 -0.442 -0.442 -0.442 -0.442 -0.441 13.37694 13.34005-10.33423
 5.20 3.20 -0.442 -0.442 -0.442 -0.441 -0.441 13.57695 13.54005-10.13420
 5.20 3.40 -0.441 -0.441 -0.441 -0.441 -0.440 13.77696 13.74004 -9.93418
 5.20 3.60 -0.441 -0.441 -0.441 -0.440 -0.439 13.97697 13.94004 -9.73415
 5.20 3.80 -0.440 -0.440 -0.440 -0.439 -0.438 14.17696 14.14005 -9.53414
 5.20 4.00 -0.438 -0.438 -0.438 -0.438 -0.437 14.37694 14.34005 -9.33414
 5.20 4.20 -0.436 -0.436 -0.436 -0.435 -0.434 14.57691 14.54006 -9.13415
 5.20 4.40 -0.432 -0.432 -0.432 -0.432 -0.430 14.77687 14.74009 -8.93416
 5.20 4.60 -0.427 -0.427 -0.427 -0.426 -0.425 14.97683 14.94014 -8.73415
 5.20 4.80 -0.419 -0.419 -0.419 -0.419 -0.417 15.17680 15.14019 -8.53410
 5.20 5.00 -0.409 -0.409 -0.408 -0.408 -0.406 15.37676 15.34025 -8.33404
 5.20 5.20 -0.393 -0.393 -0.393 -0.392 -0.390 15.57675 15.54027 -8.13397
 5.20 5.40 -0.370 -0.370 -0.370 -0.369 -0.367 15.77674 15.74028 -7.93390
 5.20 5.60 -0.339 -0.339 -0.339 -0.338 -0.335 15.97670 15.94032 -7.73386
 5.20 5.80 -0.297 -0.297 -0.297 -0.296 -0.293 16.17664 16.14038 -7.53386
 5.20 6.00 -0.242 -0.242 -0.241 -0.240 -0.238 16.37658 16.34044 -7.33386
 5.20 6.25 -0.153 -0.153 -0.153 -0.152 -0.149 16.62651 16.59052 -7.08371
 5.20 6.50 -0.038 -0.038 -0.038 -0.037 -0.034 16.87645 16.84061 -6.83357
 5.20 6.75  0.101  0.101  0.101  0.102  0.104 17.12633 17.09072 -6.58353
 5.20 7.00  0.266  0.266  0.267  0.268  0.270 17.37621 17.34084 -6.33348
 5.20 7.25  0.443  0.443  0.443  0.444  0.446 17.62610 17.59097 -6.08340
 5.20 7.50  0.653  0.653  0.653  0.654  0.655 17.87599 17.84111 -5.83327
 5.20 7.75  0.875  0.875  0.875  0.875  0.876 18.12584 18.09134 -5.58305
 5.20 8.00  1.108  1.108  1.108  1.109  1.110 18.37566 18.34163 -5.33273
 5.25-2.00 -0.433 -0.433 -0.433 -0.433 -0.432  8.32716  8.29004-15.38437
 5.25-1.50 -0.433 -0.433 -0.433 -0.433 -0.432  8.82705  8.78993-14.88439
 5.25-1.00 -0.433 -0.433 -0.433 -0.433 -0.432  9.32715  9.29004-14.38426
 5.25-0.50 -0.433 -0.433 -0.433 -0.433 -0.432  9.82705  9.78993-13.88439
 5.25 0.00 -0.433 -0.433 -0.433 -0.433 -0.432 10.32716 10.29003-13.38426
 5.25 0.50 -0.433 -0.433 -0.433 -0.433 -0.432 10.82705 10.78993-12.88439
 5.25 1.00 -0.433 -0.433 -0.433 -0.433 -0.432 11.32716 11.29004-12.38426
 5.25 1.25 -0.433 -0.433 -0.433 -0.433 -0.432 11.57710 11.53998-12.13433
 5.25 1.50 -0.433 -0.433 -0.433 -0.433 -0.432 11.82705 11.78993-11.88439
 5.25 1.75 -0.433 -0.433 -0.433 -0.433 -0.432 12.07700 12.03998-11.63433
 5.25 2.00 -0.433 -0.433 -0.433 -0.433 -0.432 12.32695 12.29004-11.38426
 5.25 2.25 -0.433 -0.433 -0.433 -0.433 -0.432 12.57697 12.54002-11.13433
 5.25 2.50 -0.433 -0.433 -0.433 -0.433 -0.432 12.82698 12.79000-10.88439
 5.25 2.75 -0.433 -0.433 -0.433 -0.433 -0.432 13.07697 13.04002-10.63433
 5.25 3.00 -0.433 -0.433 -0.433 -0.433 -0.432 13.32695 13.29003-10.38426
 5.25 3.20 -0.433 -0.433 -0.433 -0.433 -0.432 13.52696 13.49002-10.18431
 5.25 3.40 -0.433 -0.433 -0.433 -0.432 -0.431 13.72698 13.69001 -9.98436
 5.25 3.60 -0.432 -0.432 -0.432 -0.432 -0.431 13.92698 13.89001 -9.78434
 5.25 3.80 -0.432 -0.432 -0.432 -0.432 -0.431 14.12697 14.09002 -9.58425
 5.25 4.00 -0.431 -0.431 -0.431 -0.431 -0.430 14.32695 14.29004 -9.38416
 5.25 4.20 -0.430 -0.430 -0.430 -0.430 -0.429 14.52691 14.49005 -9.18410
 5.25 4.40 -0.428 -0.428 -0.428 -0.428 -0.427 14.72687 14.69007 -8.98407
 5.25 4.60 -0.425 -0.425 -0.425 -0.425 -0.424 14.92687 14.89011 -8.78405
 5.25 4.80 -0.421 -0.421 -0.421 -0.421 -0.420 15.12691 15.09018 -8.58405
 5.25 5.00 -0.416 -0.416 -0.416 -0.415 -0.414 15.32695 15.29026 -8.38405
 5.25 5.20 -0.406 -0.406 -0.406 -0.406 -0.405 15.52686 15.49024 -8.18405
 5.25 5.40 -0.393 -0.393 -0.393 -0.392 -0.391 15.72677 15.69022 -7.98406
 5.25 5.60 -0.374 -0.374 -0.374 -0.374 -0.372 15.92673 15.89027 -7.78401
 5.25 5.80 -0.348 -0.348 -0.347 -0.347 -0.345 16.12674 16.09037 -7.58393
 5.25 6.00 -0.310 -0.310 -0.310 -0.309 -0.308 16.32675 16.29048 -7.38384
 5.25 6.25 -0.247 -0.247 -0.247 -0.246 -0.244 16.57664 16.54049 -7.13378
 5.25 6.50 -0.159 -0.159 -0.159 -0.158 -0.157 16.82653 16.79050 -6.88372
 5.25 6.75 -0.046 -0.046 -0.045 -0.045 -0.042 17.07643 17.04059 -6.63362
 5.25 7.00  0.095  0.095  0.095  0.095  0.098 17.32634 17.29070 -6.38352
 5.25 7.25  0.258  0.258  0.259  0.260  0.261 17.57622 17.54083 -6.13346
 5.25 7.50  0.440  0.440  0.440  0.441  0.443 17.82607 17.79099 -5.88339
 5.25 7.75  0.646  0.646  0.646  0.647  0.649 18.07591 18.04117 -5.63319
 5.25 8.00  0.866  0.866  0.866  0.866  0.868 18.32572 18.29137 -5.38290
 5.30-2.00 -0.420 -0.420 -0.420 -0.420 -0.419  8.27715  8.24005-15.43427
 5.30-1.50 -0.420 -0.420 -0.420 -0.420 -0.419  8.77706  8.73989-14.93442
 5.30-1.00 -0.420 -0.420 -0.420 -0.420 -0.419  9.27715  9.24005-14.43427
 5.30-0.50 -0.420 -0.420 -0.420 -0.420 -0.419  9.77706  9.73997-13.93442
 5.30 0.00 -0.420 -0.420 -0.420 -0.420 -0.419 10.27715 10.24005-13.43427
 5.30 0.50 -0.420 -0.420 -0.420 -0.420 -0.419 10.77706 10.73997-12.93442
 5.30 1.00 -0.420 -0.420 -0.420 -0.420 -0.419 11.27715 11.24005-12.43427
 5.30 1.25 -0.420 -0.420 -0.420 -0.420 -0.419 11.52707 11.49001-12.18435
 5.30 1.50 -0.420 -0.420 -0.420 -0.420 -0.419 11.77699 11.73997-11.93442
 5.30 1.75 -0.420 -0.420 -0.420 -0.420 -0.419 12.02707 11.99001-11.68435
 5.30 2.00 -0.420 -0.420 -0.420 -0.420 -0.419 12.27715 12.24005-11.43427
 5.30 2.25 -0.420 -0.420 -0.420 -0.420 -0.419 12.52707 12.49001-11.18435
 5.30 2.50 -0.420 -0.420 -0.420 -0.420 -0.419 12.77699 12.73997-10.93442
 5.30 2.75 -0.420 -0.420 -0.420 -0.420 -0.419 13.02694 12.99001-10.68435
 5.30 3.00 -0.420 -0.420 -0.420 -0.420 -0.419 13.27692 13.24005-10.43427
 5.30 3.20 -0.420 -0.420 -0.420 -0.419 -0.418 13.47695 13.44005-10.23433
 5.30 3.40 -0.420 -0.420 -0.420 -0.419 -0.418 13.67698 13.64005-10.03439
 5.30 3.60 -0.420 -0.420 -0.419 -0.419 -0.418 13.87698 13.84005 -9.83437
 5.30 3.80 -0.419 -0.419 -0.419 -0.419 -0.418 14.07695 14.04005 -9.63426
 5.30 4.00 -0.419 -0.419 -0.419 -0.419 -0.418 14.27692 14.24005 -9.43415
 5.30 4.20 -0.418 -0.418 -0.418 -0.418 -0.417 14.47692 14.44005 -9.23409
 5.30 4.40 -0.417 -0.417 -0.417 -0.417 -0.416 14.67692 14.64005 -9.03405
 5.30 4.60 -0.416 -0.416 -0.416 -0.415 -0.414 14.87692 14.84010 -8.83407
 5.30 4.80 -0.413 -0.413 -0.413 -0.413 -0.412 15.07692 15.04020 -8.63411
 5.30 5.00 -0.410 -0.410 -0.410 -0.410 -0.409 15.27692 15.24030 -8.43415
 5.30 5.20 -0.406 -0.405 -0.405 -0.405 -0.404 15.47686 15.44026 -8.23412
 5.30 5.40 -0.398 -0.398 -0.398 -0.397 -0.396 15.67680 15.64022 -8.03407
 5.30 5.60 -0.386 -0.386 -0.386 -0.386 -0.385 15.87676 15.84022 -7.83402
 5.30 5.80 -0.371 -0.371 -0.371 -0.370 -0.369 16.07673 16.04025 -7.63397
 5.30 6.00 -0.348 -0.348 -0.348 -0.348 -0.346 16.27669 16.24030 -7.43392
 5.30 6.25 -0.306 -0.306 -0.306 -0.306 -0.304 16.52662 16.49037 -7.18379
 5.30 6.50 -0.246 -0.246 -0.246 -0.245 -0.244 16.77656 16.74044 -6.93367
 5.30 6.75 -0.163 -0.163 -0.163 -0.162 -0.160 17.02651 16.99050 -6.68368
 5.30 7.00 -0.054 -0.054 -0.054 -0.053 -0.052 17.27646 17.24055 -6.43368
 5.30 7.25  0.079  0.079  0.079  0.080  0.082 17.52633 17.49067 -6.18349
 5.30 7.50  0.230  0.230  0.231  0.231  0.233 17.77619 17.74084 -5.93330
 5.30 7.75  0.412  0.412  0.412  0.413  0.414 18.02609 17.99105 -5.68318
 5.30 8.00  0.610  0.610  0.610  0.611  0.613 18.27600 18.24130 -5.43309
