
 ROSSELAND MASS ABSORPTION COEFFICENTS
 logT logP  0km/s  1km/s  2km/s  4km/s  8km/s  log Ne   log Na  log rho IPloCM-1
 3.32-2.00 -5.570 -5.576 -5.562 -5.539 -5.509  4.40140 10.53995-13.13324
 3.32-1.50 -5.588 -5.595 -5.580 -5.555 -5.526  4.85400 11.04060-12.63246
 3.32-1.00 -5.611 -5.618 -5.602 -5.577 -5.547  5.29667 11.54370-12.12948
 3.32-0.50 -5.634 -5.642 -5.626 -5.599 -5.568  5.72198 12.05192-11.62124
 3.32 0.00 -5.649 -5.656 -5.640 -5.614 -5.582  6.14145 12.57334-11.09985
 3.32 0.50 -5.645 -5.653 -5.636 -5.610 -5.578  6.57264 13.11428-10.55878
 3.32 1.00 -5.622 -5.629 -5.613 -5.587 -5.556  7.02243 13.66792-10.00529
 3.32 1.25 -5.605 -5.612 -5.596 -5.570 -5.539  7.24529 13.94301 -9.73022
 3.32 1.50 -5.587 -5.594 -5.578 -5.552 -5.521  7.46509 14.21617 -9.45705
 3.32 1.75 -5.568 -5.574 -5.559 -5.534 -5.503  7.67015 14.48506 -9.18821
 3.32 2.00 -5.547 -5.553 -5.539 -5.514 -5.485  7.86386 14.75066 -8.92263
 3.32 2.25 -5.524 -5.530 -5.516 -5.493 -5.465  8.04404 15.01288 -8.66030
 3.32 2.50 -5.499 -5.504 -5.492 -5.470 -5.443  8.21564 15.27254 -8.40055
 3.32 2.75 -5.469 -5.474 -5.462 -5.442 -5.417  8.37942 15.53000 -8.14312
 3.32 3.00 -5.434 -5.439 -5.428 -5.410 -5.386  8.54033 15.78576 -7.88740
 3.32 3.20 -5.401 -5.406 -5.396 -5.379 -5.356  8.66730 15.98929 -7.68384
 3.32 3.40 -5.364 -5.368 -5.359 -5.344 -5.322  8.79427 16.19217 -7.48095
 3.32 3.60 -5.322 -5.325 -5.317 -5.303 -5.283  8.92195 16.39444 -7.27873
 3.32 3.80 -5.273 -5.277 -5.269 -5.256 -5.238  9.05111 16.59629 -7.07693
 3.32 4.00 -5.219 -5.222 -5.216 -5.205 -5.188  9.18127 16.79775 -6.87550
 3.32 4.20 -5.165 -5.168 -5.162 -5.150 -5.133  9.31330 16.99886 -6.67430
 3.32 4.40 -5.104 -5.107 -5.101 -5.090 -5.074  9.44533 17.19978 -6.47334
 3.32 4.60 -5.040 -5.043 -5.037 -5.026 -5.010  9.57677 17.40054 -6.27261
 3.32 4.80 -4.972 -4.975 -4.969 -4.958 -4.941  9.70636 17.60118 -6.07205
 3.32 5.00 -4.895 -4.898 -4.893 -4.882 -4.865  9.83430 17.80168 -5.87160
 3.32 5.20 -4.813 -4.815 -4.810 -4.799 -4.782  9.95821 18.00196 -5.67123
 3.32 5.40 -4.719 -4.722 -4.716 -4.706 -4.690 10.07904 18.20221 -5.47092
 3.32 5.60 -4.613 -4.615 -4.610 -4.600 -4.584 10.19649 18.40246 -5.27068
 3.32 5.80 -4.490 -4.493 -4.488 -4.478 -4.464 10.31092 18.60269 -5.07047
 3.32 6.00 -4.349 -4.352 -4.347 -4.338 -4.324 10.42275 18.80291 -4.87031
 3.32 6.25 -4.140 -4.142 -4.138 -4.130 -4.118 10.55941 19.05308 -4.62017
 3.32 6.50 -3.886 -3.887 -3.884 -3.878 -3.867 10.69338 19.30320 -4.37008
 3.32 6.75 -3.580 -3.581 -3.578 -3.572 -3.565 10.82513 19.55327 -4.12003
 3.32 7.00 -3.375 -3.376 -3.373 -3.369 -3.363 10.95521 19.80332 -3.86999
 3.32 7.25 -3.254 -3.255 -3.253 -3.249 -3.244 11.08396 20.05338 -3.61994
 3.32 7.50 -3.139 -3.140 -3.138 -3.135 -3.130 11.21165 20.30341 -3.36988
 3.32 7.75 -3.028 -3.029 -3.027 -3.024 -3.020 11.33858 20.55342 -3.11978
 3.32 8.00 -2.923 -2.924 -2.922 -2.919 -2.916 11.46464 20.80339 -2.86967
 3.34-2.00 -5.482 -5.488 -5.473 -5.449 -5.419  4.52061 10.51957-13.15366
 3.34-1.50 -5.510 -5.517 -5.502 -5.477 -5.446  4.92536 11.01995-12.65345
 3.34-1.00 -5.525 -5.532 -5.517 -5.491 -5.459  5.36324 11.52061-12.15249
 3.34-0.50 -5.534 -5.541 -5.525 -5.498 -5.465  5.80747 12.02325-11.64975
 3.34 0.00 -5.533 -5.541 -5.523 -5.495 -5.462  6.23930 12.53148-11.14164
 3.34 0.50 -5.514 -5.522 -5.504 -5.475 -5.441  6.66323 13.05231-10.62088
 3.34 1.00 -5.471 -5.479 -5.461 -5.432 -5.398  7.09307 13.59284-10.08029
 3.34 1.25 -5.441 -5.450 -5.431 -5.403 -5.368  7.31425 13.86949 -9.80362
 3.34 1.50 -5.408 -5.416 -5.398 -5.369 -5.335  7.53542 14.14613 -9.52695
 3.34 1.75 -5.372 -5.379 -5.362 -5.334 -5.300  7.75589 14.42132 -9.25179
 3.34 2.00 -5.336 -5.343 -5.327 -5.300 -5.266  7.97511 14.69478 -8.97840
 3.34 2.25 -5.300 -5.307 -5.291 -5.266 -5.234  8.18200 14.96387 -8.70929
 3.34 2.50 -5.265 -5.272 -5.257 -5.233 -5.203  8.37876 15.22968 -8.44346
 3.34 2.75 -5.230 -5.236 -5.223 -5.201 -5.172  8.56211 15.49219 -8.18101
 3.34 3.00 -5.195 -5.201 -5.189 -5.168 -5.141  8.73624 15.75205 -7.92118
 3.34 3.20 -5.164 -5.170 -5.158 -5.139 -5.114  8.86888 15.95816 -7.71502
 3.34 3.40 -5.131 -5.137 -5.126 -5.108 -5.085  8.99892 16.16318 -7.50995
 3.34 3.60 -5.094 -5.099 -5.090 -5.074 -5.052  9.12608 16.36719 -7.30591
 3.34 3.80 -5.053 -5.058 -5.049 -5.034 -5.014  9.25233 16.57049 -7.10260
 3.34 4.00 -5.008 -5.011 -5.004 -4.991 -4.972  9.37858 16.77313 -6.89997
 3.34 4.20 -4.962 -4.965 -4.959 -4.946 -4.927  9.50545 16.97522 -6.69797
 3.34 4.40 -4.911 -4.914 -4.908 -4.895 -4.877  9.63287 17.17691 -6.49634
 3.34 4.60 -4.858 -4.861 -4.854 -4.842 -4.825  9.76151 17.37822 -6.29505
 3.34 4.80 -4.802 -4.805 -4.799 -4.786 -4.769  9.89093 17.57928 -6.09398
 3.34 5.00 -4.742 -4.745 -4.739 -4.727 -4.709 10.02036 17.78010 -5.89313
 3.34 5.20 -4.681 -4.684 -4.678 -4.666 -4.648 10.14843 17.98075 -5.69247
 3.34 5.40 -4.617 -4.620 -4.614 -4.602 -4.585 10.27507 18.18127 -5.49192
 3.34 5.60 -4.550 -4.553 -4.547 -4.536 -4.519 10.39944 18.38169 -5.29146
 3.34 5.80 -4.482 -4.485 -4.480 -4.468 -4.452 10.52053 18.58204 -5.09107
 3.34 6.00 -4.413 -4.415 -4.410 -4.399 -4.383 10.63889 18.78233 -4.89076
 3.34 6.25 -4.324 -4.327 -4.321 -4.312 -4.296 10.78237 19.03263 -4.64057
 3.34 6.50 -4.235 -4.238 -4.233 -4.223 -4.209 10.92205 19.28285 -4.39041
 3.34 6.75 -4.145 -4.147 -4.143 -4.134 -4.120 11.05834 19.53298 -4.14024
 3.34 7.00 -4.055 -4.057 -4.053 -4.045 -4.032 11.19201 19.78305 -3.89008
 3.34 7.25 -3.965 -3.968 -3.963 -3.955 -3.943 11.32352 20.03306 -3.64003
 3.34 7.50 -3.876 -3.878 -3.874 -3.866 -3.856 11.45332 20.28308 -3.38998
 3.34 7.75 -3.786 -3.789 -3.784 -3.778 -3.768 11.58187 20.53315 -3.13988
 3.34 8.00 -3.697 -3.700 -3.695 -3.689 -3.680 11.70902 20.78326 -2.88975
 3.36-2.00 -5.340 -5.345 -5.331 -5.307 -5.277  4.74943 10.49941-13.17373
 3.36-1.50 -5.404 -5.409 -5.395 -5.370 -5.338  5.09132 10.99948-12.67366
 3.36-1.00 -5.441 -5.448 -5.432 -5.407 -5.374  5.46553 11.49982-12.17334
 3.36-0.50 -5.453 -5.460 -5.444 -5.417 -5.383  5.87933 12.00087-11.67244
 3.36 0.00 -5.442 -5.449 -5.433 -5.404 -5.368  6.31597 12.50352-11.16960
 3.36 0.50 -5.404 -5.412 -5.394 -5.364 -5.328  6.75074 13.01157-10.66134
 3.36 1.00 -5.337 -5.345 -5.326 -5.295 -5.258  7.17898 13.53301-10.14020
 3.36 1.25 -5.293 -5.302 -5.283 -5.251 -5.214  7.39400 13.80167 -9.87167
 3.36 1.50 -5.245 -5.254 -5.235 -5.204 -5.166  7.61002 14.07408 -9.59929
 3.36 1.75 -5.194 -5.202 -5.184 -5.154 -5.117  7.82904 14.35073 -9.32252
 3.36 2.00 -5.142 -5.149 -5.132 -5.103 -5.067  8.04805 14.62737 -9.04576
 3.36 2.25 -5.088 -5.095 -5.078 -5.051 -5.017  8.26606 14.90248 -8.77066
 3.36 2.50 -5.035 -5.042 -5.027 -5.001 -4.969  8.48244 15.17580 -8.49744
 3.36 2.75 -4.984 -4.991 -4.977 -4.953 -4.922  8.68915 15.44473 -8.22835
 3.36 3.00 -4.937 -4.943 -4.929 -4.907 -4.878  8.88694 15.71037 -7.96257
 3.36 3.20 -4.898 -4.904 -4.892 -4.871 -4.844  9.03552 15.92047 -7.75265
 3.36 3.40 -4.861 -4.866 -4.855 -4.836 -4.810  9.17815 16.12890 -7.54435
 3.36 3.60 -4.823 -4.828 -4.817 -4.799 -4.775  9.31443 16.33566 -7.33757
 3.36 3.80 -4.782 -4.786 -4.778 -4.761 -4.739  9.44648 16.54118 -7.13192
 3.36 4.00 -4.738 -4.742 -4.735 -4.720 -4.700  9.57542 16.74562 -6.92738
 3.36 4.20 -4.696 -4.699 -4.693 -4.679 -4.659  9.70111 16.94920 -6.72390
 3.36 4.40 -4.650 -4.653 -4.646 -4.633 -4.614  9.82680 17.15213 -6.52105
 3.36 4.60 -4.600 -4.604 -4.597 -4.584 -4.566  9.95248 17.35441 -6.31878
 3.36 4.80 -4.549 -4.552 -4.546 -4.533 -4.515 10.07817 17.55626 -6.11691
 3.36 5.00 -4.492 -4.495 -4.489 -4.477 -4.459 10.20385 17.75770 -5.91542
 3.36 5.20 -4.433 -4.436 -4.430 -4.418 -4.401 10.33082 17.95880 -5.71435
 3.36 5.40 -4.369 -4.372 -4.367 -4.355 -4.338 10.45778 18.15970 -5.51345
 3.36 5.60 -4.302 -4.305 -4.299 -4.288 -4.272 10.58432 18.36044 -5.31270
 3.36 5.80 -4.232 -4.235 -4.229 -4.219 -4.203 10.70949 18.56106 -5.11204
 3.36 6.00 -4.160 -4.162 -4.158 -4.147 -4.132 10.83340 18.76155 -4.91151
 3.36 6.25 -4.068 -4.070 -4.066 -4.056 -4.042 10.98381 19.01190 -4.66112
 3.36 6.50 -3.975 -3.977 -3.973 -3.964 -3.951 11.13033 19.26221 -4.41083
 3.36 6.75 -3.882 -3.884 -3.880 -3.872 -3.860 11.27266 19.51253 -4.16062
 3.36 7.00 -3.789 -3.792 -3.787 -3.780 -3.769 11.41145 19.76283 -3.91045
 3.36 7.25 -3.698 -3.700 -3.696 -3.689 -3.679 11.54689 20.01288 -3.66029
 3.36 7.50 -3.607 -3.609 -3.605 -3.599 -3.590 11.67979 20.26293 -3.41016
 3.36 7.75 -3.518 -3.519 -3.516 -3.510 -3.502 11.81081 20.51304 -3.16010
 3.36 8.00 -3.429 -3.430 -3.428 -3.422 -3.415 11.93972 20.76320 -2.91010
 3.38-2.00 -5.163 -5.168 -5.155 -5.131 -5.102  5.00689 10.47943-13.19375
 3.38-1.50 -5.247 -5.252 -5.239 -5.213 -5.182  5.33706 10.97941-12.69379
 3.38-1.00 -5.317 -5.322 -5.307 -5.281 -5.248  5.66792 11.47958-12.19362
 3.38-0.50 -5.358 -5.365 -5.349 -5.321 -5.287  6.01870 11.97982-11.69336
 3.38 0.00 -5.361 -5.368 -5.351 -5.322 -5.286  6.40603 12.48087-11.19233
 3.38 0.50 -5.319 -5.328 -5.309 -5.279 -5.241  6.82679 12.98381-10.68931
 3.38 1.00 -5.232 -5.241 -5.222 -5.189 -5.150  7.25912 13.49262-10.18052
 3.38 1.25 -5.173 -5.182 -5.163 -5.131 -5.091  7.47474 13.75177 -9.92136
 3.38 1.50 -5.107 -5.116 -5.097 -5.064 -5.025  7.69037 14.01494 -9.65817
 3.38 1.75 -5.038 -5.047 -5.028 -4.996 -4.958  7.90687 14.28425 -9.38890
 3.38 2.00 -4.965 -4.974 -4.955 -4.925 -4.887  8.12385 14.55715 -9.11600
 3.38 2.25 -4.893 -4.901 -4.884 -4.855 -4.820  8.34146 14.83387 -8.83920
 3.38 2.50 -4.821 -4.829 -4.812 -4.785 -4.751  8.55907 15.11059 -8.56241
 3.38 2.75 -4.750 -4.757 -4.742 -4.717 -4.685  8.77481 15.38546 -8.28756
 3.38 3.00 -4.682 -4.689 -4.675 -4.652 -4.621  8.98802 15.65830 -8.01480
 3.38 3.20 -4.629 -4.636 -4.623 -4.601 -4.573  9.15279 15.87335 -7.79974
 3.38 3.40 -4.579 -4.585 -4.573 -4.553 -4.526  9.31238 16.08631 -7.58678
 3.38 3.60 -4.531 -4.537 -4.526 -4.508 -4.483  9.46538 16.29713 -7.37603
 3.38 3.80 -4.484 -4.489 -4.480 -4.463 -4.440  9.61132 16.50614 -7.16710
 3.38 4.00 -4.438 -4.442 -4.434 -4.419 -4.398  9.75143 16.71349 -6.95979
 3.38 4.20 -4.394 -4.399 -4.391 -4.377 -4.357  9.88535 16.91930 -6.75386
 3.38 4.40 -4.350 -4.353 -4.347 -4.333 -4.314 10.01589 17.12408 -6.54900
 3.38 4.60 -4.305 -4.308 -4.302 -4.290 -4.270 10.14282 17.32791 -6.34520
 3.38 4.80 -4.259 -4.262 -4.255 -4.244 -4.225 10.26816 17.53107 -6.14213
 3.38 5.00 -4.208 -4.211 -4.205 -4.193 -4.176 10.39287 17.73360 -5.93968
 3.38 5.20 -4.155 -4.159 -4.152 -4.142 -4.124 10.51714 17.93555 -5.73766
 3.38 5.40 -4.098 -4.100 -4.095 -4.084 -4.068 10.64141 18.13714 -5.53602
 3.38 5.60 -4.035 -4.037 -4.033 -4.022 -4.006 10.76600 18.33841 -5.33475
 3.38 5.80 -3.968 -3.970 -3.966 -3.956 -3.941 10.89089 18.53946 -5.13373
 3.38 6.00 -3.898 -3.900 -3.896 -3.887 -3.872 11.01578 18.74028 -4.93293
 3.38 6.25 -3.807 -3.809 -3.805 -3.796 -3.783 11.16985 18.99099 -4.68216
 3.38 6.50 -3.713 -3.715 -3.711 -3.704 -3.691 11.32181 19.24155 -4.43156
 3.38 6.75 -3.619 -3.620 -3.617 -3.610 -3.599 11.46990 19.49203 -4.18107
 3.38 7.00 -3.525 -3.527 -3.523 -3.516 -3.507 11.61448 19.74241 -3.93070
 3.38 7.25 -3.432 -3.433 -3.430 -3.424 -3.415 11.75500 19.99263 -3.68055
 3.38 7.50 -3.340 -3.341 -3.338 -3.333 -3.325 11.89226 20.24279 -3.43039
 3.38 7.75 -3.250 -3.251 -3.249 -3.244 -3.236 12.02677 20.49293 -3.18019
 3.38 8.00 -3.162 -3.163 -3.161 -3.156 -3.150 12.15836 20.74304 -2.92996
 3.40-2.00 -4.991 -4.996 -4.983 -4.961 -4.935  5.21932 10.45939-13.21375
 3.40-1.50 -5.073 -5.078 -5.064 -5.041 -5.011  5.57795 10.95938-12.71377
 3.40-1.00 -5.154 -5.159 -5.145 -5.119 -5.087  5.91418 11.45939-12.21375
 3.40-0.50 -5.219 -5.226 -5.210 -5.183 -5.148  6.24155 11.95952-11.71354
 3.40 0.00 -5.254 -5.261 -5.244 -5.214 -5.178  6.57807 12.45984-11.21325
 3.40 0.50 -5.234 -5.241 -5.223 -5.192 -5.154  6.94216 12.96099-10.71220
 3.40 1.00 -5.148 -5.157 -5.138 -5.106 -5.065  7.34282 13.46434-10.20873
 3.40 1.25 -5.082 -5.091 -5.072 -5.039 -4.999  7.55361 13.71813 -9.95495
 3.40 1.50 -5.004 -5.013 -4.993 -4.961 -4.920  7.76716 13.97414 -9.69897
 3.40 1.75 -4.915 -4.924 -4.905 -4.874 -4.834  7.98227 14.23420 -9.43896
 3.40 2.00 -4.820 -4.829 -4.811 -4.780 -4.742  8.19866 14.49845 -9.17477
 3.40 2.25 -4.724 -4.732 -4.715 -4.686 -4.648  8.41637 14.76891 -8.90442
 3.40 2.50 -4.627 -4.635 -4.619 -4.591 -4.556  8.63407 15.04258 -8.63078
 3.40 2.75 -4.534 -4.542 -4.526 -4.501 -4.468  8.85131 15.31937 -8.35387
 3.40 3.00 -4.445 -4.452 -4.437 -4.414 -4.383  9.06781 15.59616 -8.07696
 3.40 3.20 -4.376 -4.382 -4.369 -4.347 -4.319  9.23890 15.81580 -7.85726
 3.40 3.40 -4.310 -4.316 -4.304 -4.284 -4.258  9.40761 16.03391 -7.63911
 3.40 3.60 -4.247 -4.252 -4.241 -4.224 -4.199  9.57312 16.24992 -7.42311
 3.40 3.80 -4.187 -4.192 -4.182 -4.167 -4.144  9.73354 16.46343 -7.20965
 3.40 4.00 -4.131 -4.134 -4.127 -4.113 -4.092  9.88908 16.67486 -6.99827
 3.40 4.20 -4.080 -4.083 -4.077 -4.063 -4.044 10.03713 16.88411 -6.78904
 3.40 4.40 -4.032 -4.034 -4.029 -4.016 -3.998 10.17958 17.09180 -6.58135
 3.40 4.60 -3.986 -3.988 -3.983 -3.971 -3.953 10.31593 17.29801 -6.37509
 3.40 4.80 -3.941 -3.944 -3.938 -3.927 -3.911 10.44779 17.50314 -6.16991
 3.40 5.00 -3.895 -3.898 -3.892 -3.882 -3.865 10.57623 17.70723 -5.96577
 3.40 5.20 -3.848 -3.851 -3.846 -3.836 -3.820 10.70158 17.91039 -5.76264
 3.40 5.40 -3.798 -3.801 -3.795 -3.786 -3.771 10.82590 18.11297 -5.56010
 3.40 5.60 -3.743 -3.746 -3.741 -3.732 -3.717 10.94922 18.31505 -5.35809
 3.40 5.80 -3.684 -3.686 -3.682 -3.673 -3.659 11.07221 18.51679 -5.15641
 3.40 6.00 -3.620 -3.623 -3.618 -3.610 -3.597 11.19507 18.71817 -4.95507
 3.40 6.25 -3.536 -3.538 -3.534 -3.526 -3.514 11.34865 18.96942 -4.70372
 3.40 6.50 -3.447 -3.448 -3.445 -3.438 -3.427 11.50202 19.22037 -4.45272
 3.40 6.75 -3.355 -3.356 -3.353 -3.347 -3.337 11.65334 19.47114 -4.20207
 3.40 7.00 -3.262 -3.263 -3.260 -3.254 -3.245 11.80250 19.72173 -3.95156
 3.40 7.25 -3.168 -3.170 -3.167 -3.162 -3.154 11.94786 19.97215 -3.70111
 3.40 7.50 -3.077 -3.078 -3.076 -3.071 -3.063 12.08991 20.22246 -3.45075
 3.40 7.75 -2.986 -2.988 -2.985 -2.981 -2.975 12.22854 20.47271 -3.20052
 3.40 8.00 -2.899 -2.900 -2.898 -2.894 -2.888 12.36380 20.72288 -2.95039
 3.42-2.00 -4.851 -4.856 -4.844 -4.824 -4.799  5.35736 10.43949-13.23374
 3.42-1.50 -4.914 -4.919 -4.906 -4.884 -4.856  5.76072 10.93942-12.73377
 3.42-1.00 -4.985 -4.991 -4.977 -4.953 -4.922  6.13290 11.43949-12.23366
 3.42-0.50 -5.055 -5.062 -5.046 -5.020 -4.986  6.47799 11.93947-11.73377
 3.42 0.00 -5.106 -5.114 -5.096 -5.068 -5.031  6.80686 12.43965-11.23351
 3.42 0.50 -5.114 -5.121 -5.104 -5.072 -5.033  7.13577 12.94002-10.73306
 3.42 1.00 -5.053 -5.061 -5.042 -5.009 -4.967  7.48302 13.44138-10.23181
 3.42 1.25 -4.992 -5.000 -4.981 -4.949 -4.906  7.66937 13.69287 -9.98035
 3.42 1.50 -4.913 -4.922 -4.903 -4.871 -4.828  7.86386 13.94532 -9.72793
 3.42 1.75 -4.818 -4.826 -4.808 -4.776 -4.734  8.06732 14.19974 -9.47349
 3.42 2.00 -4.709 -4.718 -4.700 -4.669 -4.628  8.27623 14.45667 -9.21653
 3.42 2.25 -4.591 -4.599 -4.582 -4.553 -4.515  8.48950 14.71795 -8.95519
 3.42 2.50 -4.468 -4.476 -4.460 -4.433 -4.396  8.70527 14.98358 -8.68952
 3.42 2.75 -4.348 -4.355 -4.340 -4.315 -4.282  8.92336 15.25564 -8.41756
 3.42 3.00 -4.232 -4.238 -4.225 -4.202 -4.171  9.14145 15.53020 -8.14303
 3.42 3.20 -4.145 -4.151 -4.139 -4.118 -4.089  9.31500 15.75152 -7.92164
 3.42 3.40 -4.063 -4.067 -4.057 -4.038 -4.011  9.48749 15.97284 -7.70025
 3.42 3.60 -3.985 -3.989 -3.980 -3.962 -3.938  9.65833 16.19329 -7.47978
 3.42 3.80 -3.910 -3.914 -3.906 -3.891 -3.870  9.82611 16.41155 -7.26153
 3.42 4.00 -3.841 -3.844 -3.837 -3.824 -3.804  9.99096 16.62808 -7.04503
 3.42 4.20 -3.778 -3.781 -3.775 -3.762 -3.745 10.15133 16.84171 -6.83139
 3.42 4.40 -3.719 -3.722 -3.716 -3.706 -3.689 10.30692 17.05332 -6.61976
 3.42 4.60 -3.666 -3.668 -3.663 -3.653 -3.637 10.45678 17.26290 -6.41015
 3.42 4.80 -3.617 -3.619 -3.615 -3.605 -3.590 10.60054 17.47087 -6.20217
 3.42 5.00 -3.570 -3.572 -3.568 -3.558 -3.544 10.73902 17.67733 -5.99568
 3.42 5.20 -3.525 -3.527 -3.523 -3.513 -3.500 10.87172 17.88243 -5.79059
 3.42 5.40 -3.479 -3.480 -3.477 -3.468 -3.455 11.00106 18.08661 -5.58641
 3.42 5.60 -3.430 -3.432 -3.428 -3.420 -3.407 11.12696 18.28996 -5.38302
 3.42 5.80 -3.379 -3.381 -3.377 -3.369 -3.357 11.25102 18.49274 -5.18021
 3.42 6.00 -3.324 -3.326 -3.323 -3.315 -3.304 11.37383 18.69496 -4.97798
 3.42 6.25 -3.250 -3.251 -3.248 -3.242 -3.231 11.52636 18.94706 -4.72607
 3.42 6.50 -3.170 -3.171 -3.168 -3.162 -3.152 11.67806 19.19866 -4.47457
 3.42 6.75 -3.085 -3.086 -3.083 -3.077 -3.069 11.82942 19.44988 -4.22326
 3.42 7.00 -2.997 -2.997 -2.995 -2.990 -2.982 11.97987 19.70079 -3.97224
 3.42 7.25 -2.907 -2.907 -2.905 -2.900 -2.893 12.12819 19.95145 -3.72165
 3.42 7.50 -2.817 -2.817 -2.815 -2.811 -2.804 12.27416 20.20194 -3.47121
 3.42 7.75 -2.728 -2.728 -2.726 -2.722 -2.716 12.41657 20.45234 -3.22086
 3.42 8.00 -2.640 -2.641 -2.639 -2.636 -2.631 12.55582 20.70260 -2.97062
 3.44-2.00 -4.752 -4.756 -4.745 -4.726 -4.702  5.43152 10.41946-13.25368
 3.44-1.50 -4.790 -4.794 -4.783 -4.762 -4.736  5.87373 10.91939-12.75375
 3.44-1.00 -4.840 -4.845 -4.832 -4.809 -4.781  6.28937 11.41946-12.25368
 3.44-0.50 -4.895 -4.901 -4.887 -4.862 -4.830  6.67468 11.91944-11.75375
 3.44 0.00 -4.943 -4.950 -4.933 -4.905 -4.870  7.02979 12.41946-11.25360
 3.44 0.50 -4.959 -4.967 -4.949 -4.918 -4.879  7.36286 12.91965-10.75350
 3.44 1.00 -4.918 -4.926 -4.907 -4.875 -4.832  7.68878 13.42012-10.25298
 3.44 1.25 -4.869 -4.877 -4.858 -4.825 -4.782  7.85497 13.67072-10.00234
 3.44 1.50 -4.800 -4.809 -4.790 -4.757 -4.713  8.02490 13.92174 -9.75129
 3.44 1.75 -4.710 -4.718 -4.700 -4.668 -4.624  8.20308 14.17361 -9.49949
 3.44 2.00 -4.602 -4.610 -4.592 -4.561 -4.519  8.38899 14.42667 -9.24657
 3.44 2.25 -4.477 -4.484 -4.468 -4.438 -4.398  8.58463 14.68191 -8.99137
 3.44 2.50 -4.341 -4.347 -4.332 -4.304 -4.267  8.78760 14.93997 -8.73330
 3.44 2.75 -4.198 -4.205 -4.191 -4.165 -4.131  8.99771 15.20304 -8.47015
 3.44 3.00 -4.056 -4.062 -4.049 -4.027 -3.996  9.21165 15.47056 -8.20253
 3.44 3.20 -3.948 -3.953 -3.942 -3.921 -3.893  9.38567 15.68934 -7.98365
 3.44 3.40 -3.845 -3.849 -3.839 -3.821 -3.795  9.55969 15.90920 -7.76377
 3.44 3.60 -3.748 -3.752 -3.743 -3.727 -3.705  9.73324 16.13015 -7.54287
 3.44 3.80 -3.658 -3.662 -3.654 -3.640 -3.620  9.90528 16.35140 -7.32172
 3.44 4.00 -3.575 -3.577 -3.572 -3.559 -3.542 10.07591 16.57264 -7.10056
 3.44 4.20 -3.500 -3.502 -3.496 -3.486 -3.470 10.24301 16.79092 -6.88232
 3.44 4.40 -3.429 -3.431 -3.427 -3.417 -3.402 10.40670 17.00721 -6.66603
 3.44 4.60 -3.365 -3.367 -3.363 -3.354 -3.340 10.56668 17.22117 -6.45204
 3.44 4.80 -3.307 -3.309 -3.305 -3.297 -3.284 10.72194 17.43284 -6.24033
 3.44 5.00 -3.253 -3.255 -3.251 -3.243 -3.231 10.87245 17.64256 -6.03059
 3.44 5.20 -3.204 -3.206 -3.202 -3.194 -3.183 11.01660 17.85052 -5.82270
 3.44 5.40 -3.156 -3.158 -3.154 -3.147 -3.136 11.15578 18.05709 -5.61618
 3.44 5.60 -3.110 -3.111 -3.108 -3.101 -3.090 11.28961 18.26232 -5.41096
 3.44 5.80 -3.062 -3.064 -3.061 -3.054 -3.044 11.41940 18.46657 -5.20666
 3.44 6.00 -3.014 -3.015 -3.012 -3.006 -2.996 11.54593 18.66997 -5.00323
 3.44 6.25 -2.949 -2.950 -2.948 -2.942 -2.933 11.70032 18.92328 -4.74995
 3.44 6.50 -2.880 -2.881 -2.878 -2.873 -2.864 11.85254 19.17580 -4.49744
 3.44 6.75 -2.805 -2.806 -2.804 -2.798 -2.791 12.00352 19.42772 -4.24546
 3.44 7.00 -2.725 -2.726 -2.724 -2.719 -2.712 12.15321 19.67916 -3.99396
 3.44 7.25 -2.642 -2.643 -2.640 -2.636 -2.630 12.30201 19.93020 -3.74294
 3.44 7.50 -2.557 -2.558 -2.556 -2.551 -2.545 12.44932 20.18099 -3.49215
 3.44 7.75 -2.471 -2.472 -2.470 -2.466 -2.461 12.59414 20.43162 -3.24148
 3.44 8.00 -2.386 -2.387 -2.386 -2.382 -2.377 12.73680 20.68206 -2.99097
 3.46-2.00 -4.688 -4.692 -4.682 -4.665 -4.643  5.45225 10.39933-13.27376
 3.46-1.50 -4.703 -4.707 -4.696 -4.677 -4.653  5.92845 10.89938-12.77366
 3.46-1.00 -4.729 -4.734 -4.722 -4.701 -4.674  6.38130 11.39950-12.27376
 3.46-0.50 -4.762 -4.767 -4.754 -4.730 -4.699  6.80740 11.89938-11.77366
 3.46 0.00 -4.789 -4.796 -4.780 -4.754 -4.720  7.20412 12.39950-11.27368
 3.46 0.50 -4.794 -4.802 -4.784 -4.755 -4.716  7.56914 12.89949-10.77366
 3.46 1.00 -4.753 -4.761 -4.743 -4.710 -4.669  7.90838 13.39967-10.27344
 3.46 1.25 -4.708 -4.717 -4.698 -4.665 -4.621  8.07132 13.64991-10.02323
 3.46 1.50 -4.646 -4.654 -4.636 -4.602 -4.558  8.23426 13.90031 -9.77289
 3.46 1.75 -4.563 -4.572 -4.553 -4.521 -4.477  8.39826 14.15111 -9.52210
 3.46 2.00 -4.463 -4.471 -4.453 -4.422 -4.379  8.56384 14.40243 -9.27075
 3.46 2.25 -4.343 -4.352 -4.334 -4.305 -4.264  8.73611 14.65471 -9.01845
 3.46 2.50 -4.209 -4.216 -4.201 -4.173 -4.135  8.91503 14.90838 -8.76472
 3.46 2.75 -4.062 -4.068 -4.054 -4.029 -3.994  9.10379 15.16488 -8.50823
 3.46 3.00 -3.909 -3.914 -3.902 -3.879 -3.848  9.30081 15.42472 -8.24841
 3.46 3.20 -3.785 -3.790 -3.778 -3.759 -3.731  9.46541 15.63663 -8.03648
 3.46 3.40 -3.664 -3.668 -3.658 -3.641 -3.616  9.63318 15.85135 -7.82174
 3.46 3.60 -3.548 -3.552 -3.544 -3.528 -3.507  9.80463 16.07008 -7.60302
 3.46 3.80 -3.440 -3.443 -3.436 -3.423 -3.404  9.97739 16.29071 -7.38243
 3.46 4.00 -3.339 -3.342 -3.336 -3.325 -3.309 10.15014 16.51135 -7.16184
 3.46 4.20 -3.250 -3.252 -3.247 -3.237 -3.223 10.32126 16.73193 -6.94127
 3.46 4.40 -3.167 -3.168 -3.164 -3.156 -3.142 10.49067 16.95239 -6.72073
 3.46 4.60 -3.091 -3.093 -3.089 -3.082 -3.069 10.65747 17.17142 -6.50167
 3.46 4.80 -3.023 -3.024 -3.021 -3.013 -3.002 10.82020 17.38755 -6.28560
 3.46 5.00 -2.959 -2.960 -2.957 -2.950 -2.940 10.97923 17.60163 -6.07160
 3.46 5.20 -2.901 -2.902 -2.899 -2.893 -2.883 11.13372 17.81321 -5.86008
 3.46 5.40 -2.847 -2.849 -2.845 -2.840 -2.830 11.28349 18.02294 -5.65039
 3.46 5.60 -2.797 -2.798 -2.795 -2.789 -2.780 11.42795 18.23081 -5.44250
 3.46 5.80 -2.748 -2.749 -2.747 -2.741 -2.733 11.56715 18.43727 -5.23598
 3.46 6.00 -2.701 -2.702 -2.700 -2.694 -2.686 11.70166 18.64247 -5.03072
 3.46 6.25 -2.641 -2.642 -2.640 -2.635 -2.628 11.86325 18.89750 -4.77563
 3.46 6.50 -2.580 -2.581 -2.579 -2.574 -2.567 12.01995 19.15137 -4.52172
 3.46 6.75 -2.515 -2.516 -2.514 -2.509 -2.502 12.17257 19.40438 -4.26876
 3.46 7.00 -2.445 -2.446 -2.444 -2.439 -2.433 12.32284 19.65667 -4.01651
 3.46 7.25 -2.371 -2.372 -2.370 -2.366 -2.360 12.47174 19.90832 -3.76484
 3.46 7.50 -2.293 -2.295 -2.293 -2.289 -2.283 12.61899 20.15957 -3.51357
 3.46 7.75 -2.214 -2.215 -2.213 -2.210 -2.204 12.76463 20.41056 -3.26257
 3.46 8.00 -2.134 -2.135 -2.133 -2.130 -2.125 12.90865 20.66124 -3.01189
 3.48-2.00 -4.654 -4.657 -4.649 -4.635 -4.617  5.44467 10.37912-13.29405
 3.48-1.50 -4.651 -4.654 -4.645 -4.628 -4.607  5.93717 10.87910-12.79398
 3.48-1.00 -4.654 -4.659 -4.648 -4.629 -4.603  6.41979 11.37912-12.29405
 3.48-0.50 -4.663 -4.668 -4.655 -4.633 -4.605  6.88218 11.87910-11.79398
 3.48 0.00 -4.665 -4.672 -4.657 -4.632 -4.599  7.31785 12.37912-11.29405
 3.48 0.50 -4.646 -4.653 -4.637 -4.607 -4.570  7.72477 12.87910-10.79398
 3.48 1.00 -4.585 -4.593 -4.575 -4.543 -4.501  8.09968 13.37931-10.29388
 3.48 1.25 -4.534 -4.543 -4.524 -4.491 -4.448  8.27542 13.62940-10.04381
 3.48 1.50 -4.467 -4.476 -4.457 -4.425 -4.381  8.44560 13.87950 -9.79371
 3.48 1.75 -4.385 -4.393 -4.375 -4.342 -4.299  8.61007 14.12982 -9.54337
 3.48 2.00 -4.287 -4.295 -4.278 -4.245 -4.203  8.77357 14.38039 -9.29277
 3.48 2.25 -4.173 -4.180 -4.164 -4.134 -4.094  8.93645 14.63137 -9.04180
 3.48 2.50 -4.046 -4.053 -4.037 -4.010 -3.972  9.09934 14.88298 -8.79022
 3.48 2.75 -3.906 -3.912 -3.898 -3.873 -3.839  9.26771 15.13596 -8.53724
 3.48 3.00 -3.756 -3.761 -3.749 -3.727 -3.696  9.44154 15.39076 -8.28241
 3.48 3.20 -3.631 -3.636 -3.625 -3.605 -3.578  9.58740 15.59697 -8.07615
 3.48 3.40 -3.504 -3.509 -3.499 -3.482 -3.458  9.73865 15.80561 -7.86746
 3.48 3.60 -3.379 -3.382 -3.374 -3.359 -3.339  9.89648 16.01754 -7.65554
 3.48 3.80 -3.257 -3.260 -3.253 -3.240 -3.222 10.05949 16.23285 -7.44029
 3.48 4.00 -3.140 -3.143 -3.137 -3.126 -3.111 10.22608 16.45071 -7.22250
 3.48 4.20 -3.034 -3.036 -3.031 -3.022 -3.009 10.39655 16.67198 -7.00125
 3.48 4.40 -2.936 -2.938 -2.934 -2.925 -2.914 10.56701 16.89326 -6.78001
 3.48 4.60 -2.846 -2.848 -2.844 -2.837 -2.827 10.73686 17.11420 -6.55907
 3.48 4.80 -2.765 -2.767 -2.764 -2.757 -2.748 10.90472 17.33407 -6.33917
 3.48 5.00 -2.690 -2.692 -2.689 -2.683 -2.674 11.07078 17.55291 -6.12027
 3.48 5.20 -2.624 -2.625 -2.622 -2.616 -2.608 11.23238 17.76873 -5.90453
 3.48 5.40 -2.561 -2.563 -2.560 -2.555 -2.547 11.39008 17.98243 -5.69089
 3.48 5.60 -2.504 -2.505 -2.503 -2.498 -2.489 11.54360 18.19385 -5.47944
 3.48 5.80 -2.450 -2.451 -2.449 -2.444 -2.436 11.69237 18.40331 -5.26988
 3.48 6.00 -2.399 -2.400 -2.398 -2.393 -2.386 11.83645 18.61109 -5.06203
 3.48 6.25 -2.338 -2.339 -2.337 -2.334 -2.326 12.00883 18.86884 -4.80441
 3.48 6.50 -2.280 -2.281 -2.279 -2.274 -2.268 12.17435 19.12483 -4.54852
 3.48 6.75 -2.220 -2.221 -2.219 -2.215 -2.209 12.33334 19.37929 -4.29400
 3.48 7.00 -2.158 -2.159 -2.157 -2.154 -2.148 12.48770 19.63266 -4.04053
 3.48 7.25 -2.093 -2.094 -2.092 -2.089 -2.083 12.63833 19.88513 -3.78793
 3.48 7.50 -2.025 -2.026 -2.024 -2.021 -2.016 12.78625 20.13704 -3.53596
 3.48 7.75 -1.954 -1.954 -1.952 -1.949 -1.944 12.93233 20.38861 -3.28442
 3.48 8.00 -1.880 -1.882 -1.880 -1.877 -1.871 13.07628 20.63979 -3.03339
 3.50-2.00 -4.630 -4.633 -4.627 -4.616 -4.604  5.44170 10.35946-13.31372
 3.50-1.50 -4.622 -4.626 -4.618 -4.604 -4.588  5.92932 10.85938-12.81389
 3.50-1.00 -4.611 -4.616 -4.606 -4.589 -4.568  6.42111 11.35946-12.31372
 3.50-0.50 -4.599 -4.604 -4.593 -4.573 -4.548  6.90703 11.85938-11.81389
 3.50 0.00 -4.578 -4.584 -4.571 -4.547 -4.517  7.37603 12.35946-11.31372
 3.50 0.50 -4.531 -4.538 -4.523 -4.495 -4.460  7.81889 12.85944-10.81361
 3.50 1.00 -4.440 -4.448 -4.431 -4.400 -4.360  8.23300 13.35946-10.31363
 3.50 1.25 -4.375 -4.383 -4.365 -4.334 -4.292  8.42796 13.60949-10.06363
 3.50 1.50 -4.296 -4.304 -4.286 -4.254 -4.211  8.61511 13.85956 -9.81361
 3.50 1.75 -4.203 -4.211 -4.193 -4.162 -4.119  8.79400 14.10973 -9.56347
 3.50 2.00 -4.098 -4.105 -4.088 -4.058 -4.016  8.96666 14.36002 -9.31318
 3.50 2.25 -3.980 -3.988 -3.972 -3.943 -3.904  9.13303 14.61047 -9.06271
 3.50 2.50 -3.855 -3.861 -3.847 -3.820 -3.784  9.29710 14.86118 -8.81192
 3.50 2.75 -3.720 -3.726 -3.713 -3.688 -3.655  9.45940 15.11259 -8.56055
 3.50 3.00 -3.578 -3.583 -3.571 -3.550 -3.521  9.62170 15.36493 -8.30830
 3.50 3.20 -3.459 -3.463 -3.453 -3.434 -3.408  9.75444 15.56795 -8.10522
 3.50 3.40 -3.337 -3.341 -3.332 -3.315 -3.292  9.89006 15.77244 -7.90064
 3.50 3.60 -3.213 -3.216 -3.208 -3.194 -3.174 10.02996 15.97896 -7.69408
 3.50 3.80 -3.088 -3.091 -3.084 -3.073 -3.055 10.17593 16.18846 -7.48463
 3.50 4.00 -2.965 -2.968 -2.962 -2.952 -2.938 10.32716 16.40071 -7.27246
 3.50 4.20 -2.848 -2.850 -2.845 -2.837 -2.824 10.48577 16.61739 -7.05580
 3.50 4.40 -2.737 -2.739 -2.735 -2.727 -2.716 10.64791 16.83596 -6.83723
 3.50 4.60 -2.633 -2.635 -2.632 -2.625 -2.616 10.81414 17.05671 -6.61648
 3.50 4.80 -2.539 -2.540 -2.537 -2.532 -2.523 10.98184 17.27820 -6.39498
 3.50 5.00 -2.452 -2.453 -2.450 -2.445 -2.437 11.14953 17.49969 -6.17347
 3.50 5.20 -2.374 -2.374 -2.372 -2.368 -2.359 11.31508 17.71904 -5.95404
 3.50 5.40 -2.301 -2.302 -2.300 -2.296 -2.288 11.47851 17.93672 -5.73627
 3.50 5.60 -2.235 -2.236 -2.233 -2.229 -2.222 11.63887 18.15228 -5.52070
 3.50 5.80 -2.173 -2.174 -2.173 -2.169 -2.162 11.79472 18.36545 -5.30762
 3.50 6.00 -2.117 -2.118 -2.116 -2.111 -2.105 11.94655 18.57657 -5.09658
 3.50 6.25 -2.050 -2.051 -2.049 -2.046 -2.040 12.12966 18.83759 -4.83556
 3.50 6.50 -1.989 -1.989 -1.988 -1.984 -1.978 12.30557 19.09621 -4.57692
 3.50 6.75 -1.930 -1.930 -1.929 -1.926 -1.920 12.47350 19.35281 -4.32034
 3.50 7.00 -1.872 -1.873 -1.871 -1.868 -1.862 12.63498 19.60788 -4.06530
 3.50 7.25 -1.813 -1.814 -1.812 -1.809 -1.804 12.79048 19.86170 -3.81151
 3.50 7.50 -1.752 -1.753 -1.751 -1.748 -1.744 12.94156 20.11461 -3.55862
 3.50 7.75 -1.690 -1.690 -1.689 -1.685 -1.680 13.08946 20.36690 -3.30633
 3.50 8.00 -1.624 -1.625 -1.623 -1.620 -1.616 13.23376 20.61847 -3.05473
 3.52-2.00 -4.582 -4.583 -4.580 -4.574 -4.566  5.51428 10.33945-13.33376
 3.52-1.50 -4.592 -4.594 -4.590 -4.581 -4.569  5.94905 10.83942-12.83387
 3.52-1.00 -4.586 -4.588 -4.582 -4.569 -4.555  6.41979 11.33945-12.33376
 3.52-0.50 -4.565 -4.569 -4.560 -4.544 -4.523  6.90612 11.83942-11.83387
 3.52 0.00 -4.526 -4.531 -4.520 -4.499 -4.473  7.39270 12.33945-11.33376
 3.52 0.50 -4.456 -4.462 -4.448 -4.423 -4.391  7.86635 12.83942-10.83387
 3.52 1.00 -4.334 -4.342 -4.326 -4.297 -4.259  8.31576 13.33945-10.33367
 3.52 1.25 -4.253 -4.261 -4.243 -4.214 -4.174  8.52970 13.58947-10.08362
 3.52 1.50 -4.156 -4.164 -4.147 -4.116 -4.075  8.73608 13.83948 -9.83357
 3.52 1.75 -4.046 -4.055 -4.038 -4.007 -3.966  8.93442 14.08954 -9.58353
 3.52 2.00 -3.926 -3.934 -3.918 -3.888 -3.848  9.12483 14.33965 -9.33348
 3.52 2.25 -3.798 -3.805 -3.790 -3.762 -3.725  9.30667 14.58986 -9.08331
 3.52 2.50 -3.663 -3.670 -3.656 -3.631 -3.596  9.48173 14.84023 -8.83298
 3.52 2.75 -3.525 -3.531 -3.518 -3.495 -3.465  9.64994 15.09091 -8.58233
 3.52 3.00 -3.383 -3.388 -3.377 -3.357 -3.330  9.81498 15.34203 -8.33124
 3.52 3.20 -3.267 -3.271 -3.262 -3.244 -3.219  9.94481 15.54346 -8.12982
 3.52 3.40 -3.149 -3.154 -3.145 -3.129 -3.107 10.07465 15.74564 -7.92762
 3.52 3.60 -3.030 -3.034 -3.026 -3.013 -2.994 10.20530 15.94888 -7.72434
 3.52 3.80 -2.910 -2.913 -2.907 -2.895 -2.879 10.33856 16.15406 -7.51911
 3.52 4.00 -2.789 -2.792 -2.787 -2.776 -2.763 10.47422 16.36116 -7.31194
 3.52 4.20 -2.671 -2.673 -2.668 -2.660 -2.648 10.61592 16.57170 -7.10135
 3.52 4.40 -2.554 -2.556 -2.552 -2.546 -2.535 10.76255 16.78510 -6.88793
 3.52 4.60 -2.444 -2.445 -2.442 -2.436 -2.426 10.91550 17.00250 -6.67058
 3.52 4.80 -2.339 -2.340 -2.337 -2.332 -2.323 11.07335 17.22230 -6.45086
 3.52 5.00 -2.240 -2.241 -2.239 -2.234 -2.227 11.23426 17.44279 -6.23040
 3.52 5.20 -2.151 -2.151 -2.150 -2.145 -2.138 11.39826 17.66377 -6.00944
 3.52 5.40 -2.067 -2.068 -2.066 -2.062 -2.056 11.56225 17.88475 -5.78847
 3.52 5.60 -1.991 -1.992 -1.990 -1.986 -1.980 11.72535 18.10448 -5.56873
 3.52 5.80 -1.922 -1.922 -1.920 -1.917 -1.911 11.88588 18.32145 -5.35171
 3.52 6.00 -1.857 -1.858 -1.856 -1.852 -1.847 12.04415 18.53643 -5.13668
 3.52 6.25 -1.783 -1.784 -1.782 -1.778 -1.773 12.23551 18.80156 -4.87155
 3.52 6.50 -1.715 -1.716 -1.714 -1.711 -1.705 12.42045 19.06371 -4.60942
 3.52 6.75 -1.652 -1.653 -1.652 -1.649 -1.644 12.59805 19.32321 -4.34998
 3.52 7.00 -1.594 -1.594 -1.593 -1.590 -1.585 12.76864 19.58058 -4.09264
 3.52 7.25 -1.536 -1.537 -1.536 -1.533 -1.528 12.93181 19.83605 -3.83711
 3.52 7.50 -1.481 -1.481 -1.480 -1.477 -1.472 13.08884 20.09026 -3.58286
 3.52 7.75 -1.424 -1.424 -1.423 -1.420 -1.415 13.24076 20.34364 -3.32948
 3.52 8.00 -1.366 -1.367 -1.365 -1.362 -1.357 13.38721 20.59605 -3.07712
 3.54-2.00 -4.459 -4.460 -4.459 -4.455 -4.451  5.75702 10.31952-13.35369
 3.54-1.50 -4.517 -4.518 -4.515 -4.511 -4.504  6.09691 10.81941-12.85387
 3.54-1.00 -4.542 -4.544 -4.540 -4.532 -4.522  6.48530 11.31952-12.35369
 3.54-0.50 -4.537 -4.540 -4.534 -4.522 -4.508  6.92397 11.81941-11.85387
 3.54 0.00 -4.499 -4.504 -4.495 -4.479 -4.459  7.39585 12.31952-11.35369
 3.54 0.50 -4.416 -4.422 -4.410 -4.389 -4.363  7.87846 12.81941-10.85387
 3.54 1.00 -4.271 -4.278 -4.263 -4.237 -4.204  8.35411 13.31952-10.35369
 3.54 1.25 -4.173 -4.181 -4.165 -4.138 -4.102  8.58421 13.56950-10.10362
 3.54 1.50 -4.059 -4.067 -4.051 -4.022 -3.985  8.80814 13.81948 -9.85356
 3.54 1.75 -3.933 -3.940 -3.924 -3.895 -3.858  9.02459 14.06948 -9.60358
 3.54 2.00 -3.794 -3.802 -3.786 -3.758 -3.720  9.23350 14.31952 -9.35360
 3.54 2.25 -3.649 -3.655 -3.641 -3.615 -3.580  9.43435 14.56963 -9.10347
 3.54 2.50 -3.499 -3.506 -3.492 -3.468 -3.436  9.62716 14.81981 -8.85325
 3.54 2.75 -3.349 -3.354 -3.343 -3.321 -3.292  9.81127 15.07009 -8.60296
 3.54 3.00 -3.199 -3.203 -3.193 -3.174 -3.148  9.98829 15.32056 -8.35252
 3.54 3.20 -3.079 -3.083 -3.074 -3.057 -3.034 10.12447 15.52126 -8.15187
 3.54 3.40 -2.959 -2.964 -2.955 -2.940 -2.919 10.25827 15.72237 -7.95083
 3.54 3.60 -2.840 -2.844 -2.837 -2.823 -2.805 10.38937 15.92400 -7.74924
 3.54 3.80 -2.721 -2.724 -2.718 -2.707 -2.691 10.51955 16.12666 -7.54652
 3.54 4.00 -2.603 -2.605 -2.600 -2.591 -2.577 10.64972 16.33042 -7.34266
 3.54 4.20 -2.486 -2.488 -2.483 -2.475 -2.463 10.78181 16.53636 -7.13669
 3.54 4.40 -2.370 -2.372 -2.368 -2.361 -2.351 10.91601 16.74468 -6.92837
 3.54 4.60 -2.257 -2.259 -2.256 -2.249 -2.240 11.05390 16.95616 -6.71689
 3.54 4.80 -2.148 -2.149 -2.147 -2.141 -2.133 11.19722 17.17099 -6.50205
 3.54 5.00 -2.044 -2.045 -2.043 -2.037 -2.030 11.34498 17.38846 -6.28458
 3.54 5.20 -1.946 -1.947 -1.945 -1.940 -1.934 11.49908 17.60964 -6.06341
 3.54 5.40 -1.854 -1.855 -1.854 -1.849 -1.843 11.65553 17.83082 -5.84224
 3.54 5.60 -1.770 -1.770 -1.768 -1.765 -1.759 11.81455 18.05177 -5.62132
 3.54 5.80 -1.691 -1.692 -1.690 -1.687 -1.682 11.97436 18.27185 -5.40128
 3.54 6.00 -1.619 -1.620 -1.618 -1.615 -1.609 12.13418 18.49108 -5.18210
 3.54 6.25 -1.536 -1.537 -1.535 -1.532 -1.528 12.33007 18.76087 -4.91235
 3.54 6.50 -1.461 -1.462 -1.460 -1.457 -1.452 12.52205 19.02735 -4.64589
 3.54 6.75 -1.393 -1.393 -1.392 -1.389 -1.384 12.70738 19.29034 -4.38290
 3.54 7.00 -1.330 -1.331 -1.329 -1.326 -1.321 12.88627 19.55060 -4.12263
 3.54 7.25 -1.271 -1.272 -1.271 -1.268 -1.263 13.05767 19.80841 -3.86479
 3.54 7.50 -1.216 -1.217 -1.215 -1.212 -1.207 13.22220 20.06446 -3.60871
 3.54 7.75 -1.162 -1.163 -1.161 -1.158 -1.154 13.38012 20.31926 -3.35388
 3.54 8.00 -1.109 -1.110 -1.108 -1.105 -1.101 13.53135 20.57264 -3.10045
 3.56-2.00 -4.241 -4.241 -4.240 -4.239 -4.237  6.11760 10.29929-13.37387
 3.56-1.50 -4.354 -4.354 -4.353 -4.350 -4.347  6.40226 10.79934-12.87387
 3.56-1.00 -4.433 -4.434 -4.432 -4.427 -4.422  6.71029 11.29929-12.37376
 3.56-0.50 -4.473 -4.475 -4.471 -4.464 -4.455  7.05576 11.79934-11.87387
 3.56 0.00 -4.465 -4.468 -4.462 -4.452 -4.439  7.45194 12.29929-11.37376
 3.56 0.50 -4.396 -4.400 -4.392 -4.377 -4.358  7.89603 12.79934-10.87387
 3.56 1.00 -4.244 -4.251 -4.239 -4.218 -4.192  8.36736 13.29929-10.37376
 3.56 1.25 -4.136 -4.143 -4.130 -4.108 -4.079  8.60420 13.54930-10.12382
 3.56 1.50 -4.008 -4.015 -4.001 -3.977 -3.944  8.84105 13.79934 -9.87387
 3.56 1.75 -3.865 -3.872 -3.858 -3.833 -3.800  9.07195 14.04942 -9.62383
 3.56 2.00 -3.709 -3.716 -3.702 -3.676 -3.643  9.29754 14.29951 -9.37376
 3.56 2.25 -3.546 -3.553 -3.539 -3.515 -3.483  9.51562 14.54953 -9.12366
 3.56 2.50 -3.379 -3.385 -3.373 -3.350 -3.320  9.72632 14.79955 -8.87354
 3.56 2.75 -3.212 -3.217 -3.206 -3.186 -3.159  9.92895 15.04968 -8.62341
 3.56 3.00 -3.047 -3.052 -3.041 -3.023 -2.999 10.12353 15.29994 -8.37325
 3.56 3.20 -2.917 -2.922 -2.913 -2.897 -2.874 10.27274 15.50027 -8.17289
 3.56 3.40 -2.790 -2.793 -2.786 -2.771 -2.752 10.41730 15.70080 -7.97230
 3.56 3.60 -2.664 -2.668 -2.661 -2.648 -2.630 10.55678 15.90159 -7.77147
 3.56 3.80 -2.541 -2.544 -2.538 -2.527 -2.511 10.69276 16.10295 -7.57014
 3.56 4.00 -2.420 -2.423 -2.417 -2.408 -2.394 10.82620 16.30492 -7.36825
 3.56 4.20 -2.301 -2.303 -2.299 -2.290 -2.278 10.95700 16.50805 -7.16515
 3.56 4.40 -2.184 -2.186 -2.182 -2.175 -2.164 11.08780 16.71269 -6.96051
 3.56 4.60 -2.069 -2.071 -2.067 -2.061 -2.052 11.21930 16.91941 -6.75377
 3.56 4.80 -1.958 -1.959 -1.957 -1.951 -1.942 11.35299 17.12914 -6.54402
 3.56 5.00 -1.850 -1.851 -1.849 -1.844 -1.837 11.48869 17.34163 -6.33152
 3.56 5.20 -1.748 -1.749 -1.747 -1.742 -1.736 11.62977 17.55850 -6.11468
 3.56 5.40 -1.652 -1.652 -1.650 -1.647 -1.640 11.77458 17.77719 -5.89599
 3.56 5.60 -1.561 -1.562 -1.560 -1.556 -1.551 11.92411 17.99796 -5.67520
 3.56 5.80 -1.477 -1.478 -1.476 -1.473 -1.468 12.07661 18.21943 -5.45369
 3.56 6.00 -1.399 -1.399 -1.398 -1.394 -1.390 12.23045 18.44091 -5.23218
 3.56 6.25 -1.309 -1.309 -1.308 -1.305 -1.300 12.42409 18.71479 -4.95834
 3.56 6.50 -1.226 -1.228 -1.226 -1.223 -1.218 12.61773 18.98601 -4.68719
 3.56 6.75 -1.152 -1.152 -1.151 -1.148 -1.144 12.80708 19.25319 -4.42000
 3.56 7.00 -1.084 -1.084 -1.083 -1.079 -1.075 12.99224 19.51719 -4.15602
 3.56 7.25 -1.021 -1.021 -1.020 -1.017 -1.013 13.17060 19.77811 -3.89523
 3.56 7.50 -0.963 -0.964 -0.962 -0.959 -0.955 13.34242 20.03663 -3.63676
 3.56 7.75 -0.910 -0.910 -0.909 -0.906 -0.901 13.50696 20.29333 -3.38001
 3.56 8.00 -0.859 -0.859 -0.858 -0.855 -0.850 13.66445 20.54802 -3.12517
 3.58-2.00 -3.956 -3.956 -3.955 -3.954 -3.952  6.51228 10.27921-13.39383
 3.58-1.50 -4.107 -4.108 -4.107 -4.105 -4.102  6.77583 10.77931-12.89381
 3.58-1.00 -4.234 -4.235 -4.234 -4.231 -4.228  7.04844 11.27944-12.39383
 3.58-0.50 -4.328 -4.329 -4.328 -4.324 -4.318  7.33626 11.77931-11.89381
 3.58 0.00 -4.374 -4.375 -4.372 -4.366 -4.357  7.65089 12.27944-11.39383
 3.58 0.50 -4.349 -4.351 -4.347 -4.337 -4.324  8.00647 12.77931-10.89381
 3.58 1.00 -4.225 -4.229 -4.222 -4.208 -4.190  8.41380 13.27944-10.39373
 3.58 1.25 -4.121 -4.127 -4.117 -4.101 -4.080  8.63562 13.52941-10.14377
 3.58 1.50 -3.991 -3.996 -3.986 -3.968 -3.944  8.86332 13.77938 -9.89381
 3.58 1.75 -3.839 -3.845 -3.834 -3.814 -3.788  9.09626 14.02941 -9.64377
 3.58 2.00 -3.669 -3.675 -3.664 -3.643 -3.616  9.32920 14.27944 -9.39373
 3.58 2.25 -3.491 -3.497 -3.485 -3.465 -3.438  9.55884 14.52945 -9.14377
 3.58 2.50 -3.306 -3.312 -3.301 -3.281 -3.255  9.78483 14.77945 -8.89381
 3.58 2.75 -3.122 -3.128 -3.117 -3.099 -3.075 10.00335 15.02953 -8.64371
 3.58 3.00 -2.940 -2.945 -2.935 -2.918 -2.895 10.21484 15.27967 -8.39351
 3.58 3.20 -2.797 -2.801 -2.793 -2.778 -2.757 10.37822 15.47983 -8.19330
 3.58 3.40 -2.657 -2.662 -2.653 -2.639 -2.620 10.53651 15.68008 -7.99298
 3.58 3.60 -2.521 -2.524 -2.518 -2.505 -2.487 10.68931 15.88047 -7.79256
 3.58 3.80 -2.388 -2.391 -2.385 -2.374 -2.358 10.83698 16.08116 -7.59189
 3.58 4.00 -2.259 -2.261 -2.256 -2.246 -2.232 10.98000 16.28217 -7.39094
 3.58 4.20 -2.133 -2.135 -2.131 -2.122 -2.110 11.11789 16.48381 -7.18927
 3.58 4.40 -2.010 -2.012 -2.008 -2.001 -1.990 11.25334 16.68635 -6.98669
 3.58 4.60 -1.891 -1.893 -1.889 -1.883 -1.873 11.38602 16.89010 -6.78296
 3.58 4.80 -1.775 -1.776 -1.773 -1.768 -1.759 11.51778 17.09593 -6.57723
 3.58 5.00 -1.663 -1.664 -1.661 -1.657 -1.649 11.64953 17.30384 -6.36947
 3.58 5.20 -1.555 -1.557 -1.554 -1.550 -1.543 11.78325 17.51533 -6.15795
 3.58 5.40 -1.454 -1.455 -1.453 -1.449 -1.443 11.91887 17.72963 -5.94359
 3.58 5.60 -1.359 -1.359 -1.358 -1.354 -1.348 12.05761 17.94800 -5.72517
 3.58 5.80 -1.271 -1.271 -1.270 -1.266 -1.261 12.20011 18.16842 -5.50473
 3.58 6.00 -1.189 -1.189 -1.188 -1.184 -1.180 12.34537 18.38899 -5.28416
 3.58 6.25 -1.094 -1.095 -1.093 -1.090 -1.085 12.53176 18.66480 -5.00838
 3.58 6.50 -1.007 -1.008 -1.006 -1.003 -0.999 12.71850 18.94062 -4.73259
 3.58 6.75 -0.928 -0.928 -0.927 -0.924 -0.919 12.90544 19.21199 -4.46116
 3.58 7.00 -0.855 -0.855 -0.854 -0.850 -0.846 13.09237 19.48015 -4.19294
 3.58 7.25 -0.787 -0.789 -0.787 -0.784 -0.779 13.27425 19.74454 -3.92861
 3.58 7.50 -0.726 -0.727 -0.725 -0.722 -0.718 13.45148 20.00604 -3.66716
 3.58 7.75 -0.671 -0.672 -0.670 -0.667 -0.662 13.62156 20.26523 -3.40797
 3.58 8.00 -0.620 -0.620 -0.619 -0.616 -0.611 13.78533 20.52192 -3.15126
 3.60-2.00 -3.637 -3.638 -3.636 -3.635 -3.633  6.90779 10.25912-13.41398
 3.60-1.50 -3.813 -3.813 -3.812 -3.811 -3.808  7.16376 10.75929-12.91400
 3.60-1.00 -3.971 -3.971 -3.970 -3.968 -3.965  7.42308 11.25936-12.41386
 3.60-0.50 -4.104 -4.105 -4.103 -4.100 -4.096  7.68815 11.75937-11.91400
 3.60 0.00 -4.197 -4.199 -4.196 -4.193 -4.186  7.96379 12.25936-11.41375
 3.60 0.50 -4.227 -4.229 -4.226 -4.219 -4.210  8.25768 12.75937-10.91364
 3.60 1.00 -4.156 -4.160 -4.154 -4.145 -4.133  8.58252 13.25935-10.41375
 3.60 1.25 -4.075 -4.079 -4.072 -4.062 -4.047  8.76146 13.50936-10.16370
 3.60 1.50 -3.961 -3.966 -3.959 -3.946 -3.930  8.95216 13.75937 -9.91364
 3.60 1.75 -3.819 -3.824 -3.816 -3.802 -3.784  9.15695 14.00936 -9.66370
 3.60 2.00 -3.652 -3.657 -3.649 -3.634 -3.614  9.37125 14.25936 -9.41375
 3.60 2.25 -3.469 -3.474 -3.465 -3.449 -3.429  9.59616 14.50939 -9.16370
 3.60 2.50 -3.274 -3.279 -3.270 -3.255 -3.233  9.82125 14.75944 -8.91364
 3.60 2.75 -3.077 -3.082 -3.073 -3.058 -3.037 10.04643 15.00951 -8.66364
 3.60 3.00 -2.879 -2.883 -2.875 -2.860 -2.839 10.27161 15.25959 -8.41364
 3.60 3.20 -2.723 -2.727 -2.719 -2.705 -2.685 10.44615 15.45967 -8.21355
 3.60 3.40 -2.570 -2.574 -2.566 -2.552 -2.534 10.61668 15.65976 -8.01339
 3.60 3.60 -2.420 -2.423 -2.416 -2.404 -2.387 10.78271 15.85992 -7.81317
 3.60 3.80 -2.274 -2.278 -2.271 -2.260 -2.244 10.94351 16.06027 -7.61281
 3.60 4.00 -2.133 -2.136 -2.130 -2.120 -2.105 11.09934 16.26079 -7.41229
 3.60 4.20 -1.996 -1.999 -1.994 -1.984 -1.971 11.24937 16.46167 -7.21138
 3.60 4.40 -1.864 -1.866 -1.862 -1.854 -1.841 11.39490 16.66306 -7.00995
 3.60 4.60 -1.736 -1.738 -1.734 -1.727 -1.716 11.53542 16.86510 -6.80789
 3.60 4.80 -1.612 -1.614 -1.611 -1.604 -1.594 11.67264 17.06840 -6.60465
 3.60 5.00 -1.493 -1.494 -1.492 -1.486 -1.477 11.80767 17.27300 -6.40012
 3.60 5.20 -1.378 -1.380 -1.377 -1.372 -1.364 11.94055 17.48015 -6.19301
 3.60 5.40 -1.269 -1.270 -1.269 -1.264 -1.257 12.07344 17.68989 -5.98329
 3.60 5.60 -1.167 -1.169 -1.167 -1.162 -1.156 12.20713 17.90315 -5.77003
 3.60 5.80 -1.073 -1.073 -1.072 -1.068 -1.063 12.34288 18.11968 -5.55348
 3.60 6.00 -0.986 -0.986 -0.985 -0.981 -0.976 12.48030 18.33846 -5.33470
 3.60 6.25 -0.886 -0.887 -0.885 -0.882 -0.877 12.65632 18.61528 -5.05795
 3.60 6.50 -0.797 -0.798 -0.796 -0.792 -0.788 12.83487 18.89210 -4.78120
 3.60 6.75 -0.715 -0.715 -0.714 -0.710 -0.706 13.01607 19.16688 -4.50642
 3.60 7.00 -0.639 -0.639 -0.638 -0.635 -0.630 13.19728 19.43949 -4.23374
 3.60 7.25 -0.569 -0.570 -0.568 -0.565 -0.561 13.37730 19.70779 -3.96536
 3.60 7.50 -0.506 -0.507 -0.505 -0.501 -0.496 13.55570 19.97281 -3.70028
 3.60 7.75 -0.448 -0.448 -0.446 -0.443 -0.438 13.72844 20.23487 -3.43819
 3.60 8.00 -0.395 -0.396 -0.394 -0.391 -0.385 13.89686 20.49388 -3.17921
 3.62-2.00 -3.301 -3.302 -3.300 -3.299 -3.295  7.29403 10.23880-13.43427
 3.62-1.50 -3.495 -3.496 -3.494 -3.493 -3.489  7.54704 10.73902-12.93405
 3.62-1.00 -3.673 -3.675 -3.673 -3.670 -3.667  7.80133 11.23930-12.43392
 3.62-0.50 -3.831 -3.832 -3.831 -3.827 -3.823  8.05767 11.73926-11.93405
 3.62 0.00 -3.954 -3.956 -3.954 -3.950 -3.945  8.31827 12.23930-11.43380
 3.62 0.50 -4.022 -4.023 -4.021 -4.016 -4.009  8.58614 12.73934-10.93367
 3.62 1.00 -4.001 -4.003 -3.999 -3.993 -3.984  8.86694 13.23930-10.43380
 3.62 1.25 -3.947 -3.950 -3.946 -3.939 -3.928  9.01503 13.48932-10.18374
 3.62 1.50 -3.863 -3.866 -3.861 -3.853 -3.840  9.16997 13.73934 -9.93367
 3.62 1.75 -3.746 -3.750 -3.744 -3.735 -3.721  9.33419 13.98932 -9.68374
 3.62 2.00 -3.603 -3.606 -3.601 -3.589 -3.575  9.50853 14.23930 -9.43380
 3.62 2.25 -3.435 -3.439 -3.432 -3.421 -3.405  9.69581 14.48930 -9.18374
 3.62 2.50 -3.250 -3.254 -3.247 -3.235 -3.218  9.89404 14.73934 -8.93367
 3.62 2.75 -3.053 -3.057 -3.050 -3.038 -3.020 10.10488 14.98944 -8.68368
 3.62 3.00 -2.850 -2.854 -2.846 -2.834 -2.816 10.32056 15.23955 -8.43368
 3.62 3.20 -2.686 -2.689 -2.683 -2.670 -2.652 10.49623 15.43956 -8.23368
 3.62 3.40 -2.522 -2.526 -2.518 -2.506 -2.489 10.67191 15.63957 -8.03368
 3.62 3.60 -2.361 -2.364 -2.358 -2.346 -2.328 10.84616 15.83961 -7.83360
 3.62 3.80 -2.203 -2.206 -2.200 -2.188 -2.172 11.01668 16.03978 -7.63335
 3.62 4.00 -2.048 -2.051 -2.045 -2.034 -2.019 11.18412 16.24005 -7.43297
 3.62 4.20 -1.899 -1.901 -1.896 -1.886 -1.872 11.34637 16.44052 -7.23253
 3.62 4.40 -1.754 -1.756 -1.751 -1.743 -1.729 11.50397 16.64129 -7.03186
 3.62 4.60 -1.614 -1.616 -1.612 -1.604 -1.592 11.65641 16.84243 -6.83081
 3.62 4.80 -1.479 -1.481 -1.477 -1.470 -1.459 11.80396 17.04431 -6.62892
 3.62 5.00 -1.350 -1.351 -1.348 -1.342 -1.332 11.94729 17.24699 -6.42620
 3.62 5.20 -1.225 -1.227 -1.224 -1.219 -1.210 12.08582 17.45119 -6.22202
 3.62 5.40 -1.107 -1.108 -1.106 -1.101 -1.094 12.22256 17.65728 -6.01595
 3.62 5.60 -0.996 -0.997 -0.995 -0.990 -0.984 12.35737 17.86593 -5.80728
 3.62 5.80 -0.892 -0.893 -0.891 -0.888 -0.881 12.49160 18.07788 -5.59527
 3.62 6.00 -0.797 -0.797 -0.796 -0.792 -0.786 12.62583 18.29270 -5.38039
 3.62 6.25 -0.689 -0.690 -0.688 -0.685 -0.679 12.79564 18.56697 -5.10610
 3.62 6.50 -0.594 -0.595 -0.593 -0.589 -0.584 12.96699 18.84249 -4.83062
 3.62 6.75 -0.509 -0.510 -0.508 -0.504 -0.499 13.14071 19.11882 -4.55436
 3.62 7.00 -0.432 -0.433 -0.431 -0.428 -0.422 13.31492 19.39515 -4.27811
 3.62 7.25 -0.362 -0.363 -0.361 -0.357 -0.352 13.48945 19.66728 -4.00592
 3.62 7.50 -0.297 -0.298 -0.296 -0.292 -0.287 13.66398 19.93626 -3.73684
 3.62 7.75 -0.238 -0.239 -0.237 -0.233 -0.228 13.83524 20.20165 -3.47143
 3.62 8.00 -0.184 -0.185 -0.183 -0.179 -0.173 14.00432 20.46359 -3.20950
 3.64-2.00 -2.957 -2.958 -2.956 -2.954 -2.950  7.66408 10.21827-13.45494
 3.64-1.50 -3.165 -3.166 -3.165 -3.162 -3.158  7.91614 10.71867-12.95429
 3.64-1.00 -3.360 -3.361 -3.359 -3.357 -3.352  8.16850 11.21906-12.45407
 3.64-0.50 -3.535 -3.536 -3.534 -3.531 -3.526  8.42177 11.71917-11.95390
 3.64 0.00 -3.678 -3.679 -3.677 -3.673 -3.668  8.67651 12.21932-11.45383
 3.64 0.50 -3.767 -3.768 -3.766 -3.761 -3.755  8.93409 12.71933-10.95390
 3.64 1.00 -3.773 -3.775 -3.771 -3.766 -3.758  9.19700 13.21932-10.45383
 3.64 1.25 -3.738 -3.740 -3.737 -3.730 -3.721  9.33163 13.46933-10.20386
 3.64 1.50 -3.675 -3.678 -3.674 -3.667 -3.657  9.46923 13.71933 -9.95390
 3.64 1.75 -3.586 -3.589 -3.585 -3.577 -3.566  9.61098 13.96933 -9.70380
 3.64 2.00 -3.471 -3.474 -3.470 -3.461 -3.449  9.75785 14.21932 -9.45370
 3.64 2.25 -3.333 -3.337 -3.331 -3.322 -3.308  9.91173 14.46937 -9.20380
 3.64 2.50 -3.175 -3.178 -3.172 -3.163 -3.148 10.07372 14.71941 -8.95390
 3.64 2.75 -2.999 -3.002 -2.997 -2.985 -2.971 10.24646 14.96937 -8.70380
 3.64 3.00 -2.810 -2.814 -2.808 -2.796 -2.781 10.42959 15.21932 -8.45371
 3.64 3.20 -2.653 -2.656 -2.649 -2.638 -2.622 10.58560 15.41937 -8.25363
 3.64 3.40 -2.490 -2.494 -2.487 -2.475 -2.459 10.74643 15.61945 -8.05355
 3.64 3.60 -2.326 -2.329 -2.323 -2.311 -2.295 10.91311 15.81955 -7.85347
 3.64 3.80 -2.161 -2.165 -2.159 -2.147 -2.132 11.08201 16.01968 -7.65340
 3.64 4.00 -1.999 -2.002 -1.996 -1.984 -1.969 11.25091 16.21985 -7.45333
 3.64 4.20 -1.838 -1.842 -1.835 -1.825 -1.811 11.41847 16.42010 -7.25307
 3.64 4.40 -1.682 -1.684 -1.679 -1.669 -1.656 11.58442 16.62049 -7.05263
 3.64 4.60 -1.530 -1.532 -1.527 -1.518 -1.506 11.74732 16.82110 -6.85199
 3.64 4.80 -1.383 -1.384 -1.380 -1.372 -1.361 11.90530 17.02218 -6.65098
 3.64 5.00 -1.240 -1.242 -1.238 -1.232 -1.221 12.05919 17.22375 -6.44953
 3.64 5.20 -1.105 -1.106 -1.103 -1.097 -1.087 12.20776 17.42617 -6.24714
 3.64 5.40 -0.974 -0.976 -0.973 -0.968 -0.959 12.35257 17.62980 -6.04349
 3.64 5.60 -0.852 -0.853 -0.851 -0.847 -0.838 12.49319 17.83515 -5.83811
 3.64 5.80 -0.738 -0.739 -0.736 -0.732 -0.725 12.63125 18.04321 -5.63004
 3.64 6.00 -0.631 -0.632 -0.630 -0.625 -0.619 12.76775 18.25382 -5.41942
 3.64 6.25 -0.511 -0.511 -0.510 -0.506 -0.499 12.93663 18.52258 -5.15065
 3.64 6.50 -0.405 -0.406 -0.404 -0.400 -0.394 13.10551 18.79511 -4.87811
 3.64 6.75 -0.313 -0.314 -0.312 -0.308 -0.302 13.27486 19.07191 -4.60131
 3.64 7.00 -0.232 -0.233 -0.231 -0.227 -0.221 13.44420 19.34869 -4.32450
 3.64 7.25 -0.161 -0.162 -0.159 -0.156 -0.150 13.61324 19.62368 -4.04951
 3.64 7.50 -0.097 -0.098 -0.096 -0.092 -0.085 13.78183 19.89669 -3.77650
 3.64 7.75 -0.038 -0.040 -0.037 -0.033 -0.027 13.94870 20.16557 -3.50759
 3.64 8.00  0.015  0.014  0.016  0.020  0.027 14.11428 20.43104 -3.24207
 3.66-2.00 -2.611 -2.612 -2.611 -2.608 -2.604  8.01953 10.19645-13.47664
 3.66-1.50 -2.831 -2.832 -2.830 -2.827 -2.822  8.27161 10.69775-12.97551
 3.66-1.00 -3.039 -3.040 -3.037 -3.034 -3.029  8.52362 11.19838-12.47470
 3.66-0.50 -3.228 -3.230 -3.227 -3.223 -3.218  8.77554 11.69880-11.97429
 3.66 0.00 -3.387 -3.388 -3.386 -3.381 -3.375  9.02816 12.19921-11.47405
 3.66 0.50 -3.491 -3.492 -3.489 -3.485 -3.477  9.28172 12.69914-10.97388
 3.66 1.00 -3.511 -3.513 -3.510 -3.503 -3.495  9.53732 13.19921-10.47392
 3.66 1.25 -3.485 -3.487 -3.483 -3.477 -3.467  9.66648 13.44926-10.22390
 3.66 1.50 -3.433 -3.436 -3.432 -3.424 -3.414  9.79692 13.69932 -9.97388
 3.66 1.75 -3.358 -3.361 -3.357 -3.349 -3.338  9.92919 13.94940 -9.72383
 3.66 2.00 -3.264 -3.266 -3.262 -3.254 -3.241 10.06371 14.19948 -9.47379
 3.66 2.25 -3.149 -3.152 -3.147 -3.138 -3.125 10.20116 14.44940 -9.22383
 3.66 2.50 -3.019 -3.022 -3.016 -3.007 -2.993 10.34242 14.69932 -8.97388
 3.66 2.75 -2.872 -2.876 -2.870 -2.859 -2.846 10.48911 14.94940 -8.72383
 3.66 3.00 -2.712 -2.715 -2.709 -2.699 -2.684 10.64217 15.19948 -8.47379
 3.66 3.20 -2.573 -2.577 -2.570 -2.560 -2.544 10.77068 15.39945 -8.27382
 3.66 3.40 -2.427 -2.431 -2.425 -2.413 -2.397 10.90490 15.59942 -8.07386
 3.66 3.60 -2.275 -2.278 -2.272 -2.261 -2.245 11.04583 15.79948 -7.87382
 3.66 3.80 -2.118 -2.122 -2.115 -2.103 -2.087 11.19322 15.99962 -7.67369
 3.66 4.00 -1.958 -1.961 -1.955 -1.944 -1.928 11.34596 16.19976 -7.47353
 3.66 4.20 -1.796 -1.799 -1.793 -1.782 -1.767 11.50561 16.39989 -7.27337
 3.66 4.40 -1.634 -1.638 -1.632 -1.622 -1.607 11.66605 16.60003 -7.07317
 3.66 4.60 -1.475 -1.477 -1.473 -1.463 -1.448 11.82721 16.80031 -6.87286
 3.66 4.80 -1.318 -1.320 -1.316 -1.307 -1.294 11.98852 17.00097 -6.67225
 3.66 5.00 -1.165 -1.167 -1.163 -1.155 -1.143 12.14983 17.20194 -6.47134
 3.66 5.20 -1.017 -1.019 -1.016 -1.009 -0.998 12.30651 17.40335 -6.26987
 3.66 5.40 -0.876 -0.877 -0.874 -0.868 -0.858 12.45993 17.60547 -6.06760
 3.66 5.60 -0.741 -0.742 -0.739 -0.734 -0.725 12.60934 17.80862 -5.86433
 3.66 5.80 -0.614 -0.615 -0.613 -0.608 -0.599 12.75480 18.01368 -5.65927
 3.66 6.00 -0.494 -0.496 -0.493 -0.489 -0.481 12.89708 18.22063 -5.45235
 3.66 6.25 -0.360 -0.361 -0.359 -0.354 -0.346 13.07077 18.48410 -5.18901
 3.66 6.50 -0.239 -0.240 -0.238 -0.233 -0.227 13.24180 18.75205 -4.92118
 3.66 6.75 -0.135 -0.136 -0.134 -0.129 -0.122 13.41112 19.02622 -4.64692
 3.66 7.00 -0.045 -0.046 -0.044 -0.040 -0.033 13.57875 19.30168 -4.37141
 3.66 7.25  0.031  0.030  0.032  0.037  0.043 13.74507 19.57800 -4.09507
 3.66 7.50  0.097  0.096  0.098  0.103  0.110 13.90966 19.85431 -3.81873
 3.66 7.75  0.155  0.154  0.156  0.161  0.168 14.07209 20.12646 -3.54663
 3.66 8.00  0.207  0.205  0.208  0.213  0.220 14.23249 20.39585 -3.27737
 3.68-2.00 -2.270 -2.271 -2.269 -2.265 -2.260  8.35660 10.17290-13.50031
 3.68-1.50 -2.497 -2.497 -2.496 -2.492 -2.486  8.61013 10.67569-12.99740
 3.68-1.00 -2.714 -2.715 -2.714 -2.709 -2.703  8.86243 11.17725-12.49580
 3.68-0.50 -2.916 -2.917 -2.914 -2.910 -2.903  9.11428 11.67825-11.99482
 3.68 0.00 -3.088 -3.090 -3.087 -3.081 -3.073  9.36605 12.17869-11.49444
 3.68 0.50 -3.206 -3.208 -3.205 -3.198 -3.190  9.61805 12.67897-10.99396
 3.68 1.00 -3.238 -3.241 -3.236 -3.230 -3.220  9.87087 13.17927-10.49390
 3.68 1.25 -3.217 -3.219 -3.215 -3.208 -3.197  9.99776 13.42926-10.24393
 3.68 1.50 -3.171 -3.173 -3.169 -3.161 -3.150 10.12516 13.67925 -9.99396
 3.68 1.75 -3.103 -3.106 -3.101 -3.093 -3.080 10.25344 13.92925 -9.74386
 3.68 2.00 -3.017 -3.020 -3.014 -3.005 -2.993 10.38274 14.17927 -9.49377
 3.68 2.25 -2.915 -2.918 -2.912 -2.903 -2.890 10.51333 14.42929 -9.24386
 3.68 2.50 -2.801 -2.804 -2.798 -2.788 -2.775 10.64562 14.67934 -8.99396
 3.68 2.75 -2.676 -2.679 -2.673 -2.662 -2.648 10.78030 14.92945 -8.74387
 3.68 3.00 -2.540 -2.543 -2.537 -2.526 -2.510 10.91798 15.17955 -8.49377
 3.68 3.20 -2.423 -2.426 -2.419 -2.408 -2.392 11.03103 15.37950 -8.29367
 3.68 3.40 -2.299 -2.302 -2.296 -2.284 -2.267 11.14725 15.57945 -8.09358
 3.68 3.60 -2.168 -2.171 -2.164 -2.152 -2.136 11.26706 15.77944 -7.89355
 3.68 3.80 -2.029 -2.033 -2.026 -2.014 -1.997 11.39157 15.97948 -7.69359
 3.68 4.00 -1.885 -1.888 -1.882 -1.870 -1.853 11.52075 16.17955 -7.49363
 3.68 4.20 -1.734 -1.738 -1.732 -1.720 -1.704 11.65613 16.37964 -7.29363
 3.68 4.40 -1.581 -1.584 -1.578 -1.567 -1.551 11.79658 16.57979 -7.09358
 3.68 4.60 -1.424 -1.427 -1.422 -1.411 -1.396 11.94313 16.78002 -6.89340
 3.68 4.80 -1.267 -1.270 -1.264 -1.254 -1.241 12.09368 16.98042 -6.69295
 3.68 5.00 -1.110 -1.112 -1.108 -1.099 -1.086 12.24650 17.18099 -6.49228
 3.68 5.20 -0.955 -0.957 -0.953 -0.945 -0.933 12.40133 17.38178 -6.29140
 3.68 5.40 -0.804 -0.806 -0.802 -0.795 -0.785 12.55616 17.58300 -6.09009
 3.68 5.60 -0.659 -0.660 -0.657 -0.651 -0.641 12.70993 17.78486 -5.88817
 3.68 5.80 -0.520 -0.522 -0.519 -0.513 -0.504 12.86100 17.98805 -5.68501
 3.68 6.00 -0.389 -0.390 -0.388 -0.382 -0.374 13.00988 18.19257 -5.48057
 3.68 6.25 -0.238 -0.239 -0.237 -0.232 -0.223 13.19068 18.45162 -5.22159
 3.68 6.50 -0.102 -0.103 -0.100 -0.096 -0.087 13.36736 18.71467 -4.95861
 3.68 6.75  0.018  0.017  0.019  0.024  0.033 13.54038 18.98387 -4.68928
 3.68 7.00  0.122  0.121  0.123  0.128  0.136 13.71012 19.25672 -4.41635
 3.68 7.25  0.208  0.207  0.209  0.214  0.222 13.87715 19.53351 -4.13966
 3.68 7.50  0.280  0.279  0.282  0.286  0.295 14.04100 19.81030 -3.86296
 3.68 7.75  0.340  0.339  0.342  0.347  0.355 14.20128 20.08493 -3.58833
 3.68 8.00  0.392  0.391  0.393  0.399  0.408 14.35813 20.35813 -3.31507
 3.70-2.00 -1.935 -1.936 -1.934 -1.930 -1.924  8.67560 10.14489-13.52827
 3.70-1.50 -2.167 -2.168 -2.165 -2.161 -2.155  8.93258 10.65118-13.02200
 3.70-1.00 -2.390 -2.392 -2.389 -2.385 -2.378  9.18667 11.15473-12.51841
 3.70-0.50 -2.601 -2.603 -2.599 -2.594 -2.587  9.43933 11.65677-12.01642
 3.70 0.00 -2.784 -2.786 -2.783 -2.777 -2.769  9.69117 12.15806-11.51527
 3.70 0.50 -2.916 -2.918 -2.914 -2.908 -2.898  9.94280 12.65849-11.01466
 3.70 1.00 -2.961 -2.964 -2.959 -2.952 -2.940 10.19451 13.15897-10.51428
 3.70 1.25 -2.945 -2.947 -2.943 -2.934 -2.922 10.32057 13.40901-10.26418
 3.70 1.50 -2.903 -2.906 -2.901 -2.892 -2.880 10.44685 13.65906-10.01408
 3.70 1.75 -2.840 -2.843 -2.837 -2.828 -2.815 10.57348 13.90916 -9.76397
 3.70 2.00 -2.759 -2.762 -2.756 -2.746 -2.732 10.70053 14.15927 -9.51385
 3.70 2.25 -2.664 -2.667 -2.661 -2.650 -2.636 10.82813 14.40926 -9.26388
 3.70 2.50 -2.557 -2.560 -2.555 -2.544 -2.528 10.95646 14.65925 -9.01390
 3.70 2.75 -2.442 -2.446 -2.439 -2.428 -2.412 11.08589 14.90925 -8.76388
 3.70 3.00 -2.320 -2.323 -2.317 -2.305 -2.289 11.21669 15.15927 -8.51385
 3.70 3.20 -2.216 -2.220 -2.213 -2.201 -2.184 11.32265 15.35929 -8.31384
 3.70 3.40 -2.109 -2.112 -2.105 -2.093 -2.076 11.43013 15.55932 -8.11382
 3.70 3.60 -1.996 -2.000 -1.992 -1.979 -1.962 11.53931 15.75939 -7.91380
 3.70 3.80 -1.877 -1.880 -1.874 -1.861 -1.844 11.65093 15.95948 -7.71376
 3.70 4.00 -1.753 -1.756 -1.750 -1.737 -1.719 11.76507 16.15957 -7.51371
 3.70 4.20 -1.622 -1.625 -1.618 -1.606 -1.589 11.88262 16.35959 -7.31366
 3.70 4.40 -1.485 -1.489 -1.482 -1.470 -1.453 12.00391 16.55962 -7.11359
 3.70 4.60 -1.343 -1.346 -1.340 -1.329 -1.312 12.12946 16.75968 -6.91346
 3.70 4.80 -1.196 -1.199 -1.193 -1.182 -1.167 12.25977 16.95987 -6.71322
 3.70 5.00 -1.046 -1.048 -1.043 -1.034 -1.019 12.39445 17.16017 -6.51286
 3.70 5.20 -0.895 -0.896 -0.892 -0.883 -0.869 12.53455 17.36067 -6.31238
 3.70 5.40 -0.742 -0.744 -0.740 -0.732 -0.720 12.67750 17.56148 -6.11164
 3.70 5.60 -0.593 -0.594 -0.591 -0.584 -0.573 12.82382 17.76270 -5.91051
 3.70 5.80 -0.448 -0.450 -0.447 -0.440 -0.429 12.97137 17.96473 -5.70854
 3.70 6.00 -0.307 -0.308 -0.306 -0.300 -0.290 13.11893 18.16761 -5.50571
 3.70 6.25 -0.144 -0.145 -0.142 -0.137 -0.128 13.30206 18.42345 -5.24988
 3.70 6.50  0.007  0.006  0.009  0.014  0.024 13.48359 18.68233 -4.99097
 3.70 6.75  0.144  0.143  0.145  0.151  0.160 13.66101 18.94662 -4.72669
 3.70 7.00  0.263  0.262  0.264  0.270  0.279 13.83487 19.21537 -4.45792
 3.70 7.25  0.364  0.362  0.365  0.371  0.380 14.00498 19.49016 -4.18292
 3.70 7.50  0.447  0.447  0.449  0.455  0.464 14.17085 19.76574 -3.90728
 3.70 7.75  0.515  0.514  0.517  0.522  0.531 14.33172 20.04158 -3.63144
 3.70 8.00  0.570  0.569  0.571  0.578  0.587 14.48785 20.31785 -3.35527
 3.73-2.00 -1.452 -1.453 -1.451 -1.446 -1.440  9.10619 10.08636-13.58687
 3.73-1.50 -1.684 -1.686 -1.683 -1.679 -1.672  9.37712 10.60444-13.06875
 3.73-1.00 -1.912 -1.913 -1.911 -1.906 -1.898  9.63909 11.11528-12.55799
 3.73-0.50 -2.129 -2.130 -2.128 -2.122 -2.114  9.89586 11.62128-12.05188
 3.73 0.00 -2.323 -2.325 -2.321 -2.316 -2.306 10.14983 12.12483-11.54837
 3.73 0.50 -2.472 -2.474 -2.470 -2.462 -2.452 10.40243 12.62685-11.04634
 3.73 1.00 -2.538 -2.540 -2.536 -2.527 -2.514 10.65427 13.12808-10.54516
 3.73 1.25 -2.531 -2.534 -2.529 -2.520 -2.506 10.78001 13.37835-10.29484
 3.73 1.50 -2.499 -2.502 -2.497 -2.487 -2.472 10.90574 13.62859-10.04460
 3.73 1.75 -2.443 -2.447 -2.441 -2.431 -2.415 11.03156 13.87883 -9.79440
 3.73 2.00 -2.369 -2.373 -2.366 -2.355 -2.339 11.15746 14.12905 -9.54424
 3.73 2.25 -2.280 -2.284 -2.278 -2.266 -2.249 11.28344 14.37908 -9.29412
 3.73 2.50 -2.182 -2.185 -2.179 -2.167 -2.150 11.40959 14.62910 -9.04402
 3.73 2.75 -2.075 -2.078 -2.071 -2.059 -2.042 11.53619 14.87924 -8.79398
 3.73 3.00 -1.962 -1.966 -1.959 -1.946 -1.928 11.66323 15.12937 -8.54394
 3.73 3.20 -1.869 -1.872 -1.865 -1.852 -1.834 11.76524 15.32934 -8.34389
 3.73 3.40 -1.772 -1.776 -1.768 -1.755 -1.737 11.86771 15.52932 -8.14385
 3.73 3.60 -1.673 -1.677 -1.669 -1.656 -1.637 11.97073 15.72931 -7.94382
 3.73 3.80 -1.571 -1.574 -1.567 -1.553 -1.534 12.07456 15.92933 -7.74380
 3.73 4.00 -1.466 -1.470 -1.462 -1.448 -1.429 12.17927 16.12937 -7.54379
 3.73 4.20 -1.356 -1.360 -1.353 -1.339 -1.320 12.28521 16.32942 -7.34376
 3.73 4.40 -1.244 -1.247 -1.240 -1.227 -1.208 12.39261 16.52948 -7.14371
 3.73 4.60 -1.126 -1.130 -1.123 -1.110 -1.092 12.50157 16.72954 -6.94364
 3.73 4.80 -1.004 -1.007 -1.001 -0.988 -0.971 12.61267 16.92961 -6.74351
 3.73 5.00 -0.877 -0.880 -0.874 -0.864 -0.846 12.72599 17.12969 -6.54333
 3.73 5.20 -0.745 -0.747 -0.742 -0.732 -0.716 12.84231 17.32994 -6.34309
 3.73 5.40 -0.609 -0.611 -0.607 -0.597 -0.583 12.96164 17.53036 -6.14272
 3.73 5.60 -0.470 -0.472 -0.468 -0.460 -0.447 13.08428 17.73099 -5.94216
 3.73 5.80 -0.331 -0.333 -0.329 -0.322 -0.309 13.21031 17.93204 -5.74116
 3.73 6.00 -0.191 -0.193 -0.190 -0.183 -0.172 13.33945 18.13354 -5.53970
 3.73 6.25 -0.025 -0.026 -0.023 -0.016 -0.005 13.50578 18.38653 -5.28670
 3.73 6.50  0.139  0.137  0.140  0.147  0.158 13.67495 18.64128 -5.03189
 3.73 6.75  0.291  0.289  0.292  0.299  0.310 13.84683 18.89954 -4.77359
 3.73 7.00  0.431  0.430  0.433  0.439  0.450 14.01870 19.16167 -4.51145
 3.73 7.25  0.554  0.553  0.556  0.562  0.573 14.18914 19.42982 -4.24343
 3.73 7.50  0.659  0.658  0.661  0.668  0.678 14.35775 19.70191 -3.97143
 3.73 7.75  0.744  0.743  0.746  0.752  0.764 14.52100 19.97695 -3.69637
 3.73 8.00  0.812  0.811  0.814  0.820  0.831 14.68006 20.25527 -3.41794
 3.76-2.00 -1.012 -1.013 -1.011 -1.006 -1.000  9.44963  9.98945-13.68382
 3.76-1.50 -1.229 -1.230 -1.228 -1.223 -1.217  9.75906 10.53173-13.14140
 3.76-1.00 -1.450 -1.451 -1.448 -1.444 -1.436 10.04336 11.05956-12.61368
 3.76-0.50 -1.664 -1.665 -1.663 -1.658 -1.649 10.31260 11.57634-12.09675
 3.76 0.00 -1.859 -1.861 -1.858 -1.852 -1.843 10.57357 12.08636-11.58687
 3.76 0.50 -2.016 -2.017 -2.014 -2.007 -1.996 10.82988 12.59196-11.08118
 3.76 1.00 -2.099 -2.102 -2.097 -2.089 -2.076 11.08350 13.09517-10.57790
 3.76 1.25 -2.105 -2.107 -2.102 -2.093 -2.079 11.20979 13.34624-10.32689
 3.76 1.50 -2.083 -2.086 -2.081 -2.072 -2.057 11.33586 13.59704-10.07613
 3.76 1.75 -2.039 -2.042 -2.036 -2.025 -2.010 11.46178 13.84753 -9.82556
 3.76 2.00 -1.974 -1.977 -1.971 -1.961 -1.945 11.58760 14.09795 -9.57512
 3.76 2.25 -1.894 -1.897 -1.891 -1.880 -1.863 11.71332 14.34835 -9.32479
 3.76 2.50 -1.802 -1.806 -1.799 -1.788 -1.771 11.83904 14.59868 -9.07453
 3.76 2.75 -1.703 -1.707 -1.700 -1.688 -1.671 11.96480 14.84887 -8.82431
 3.76 3.00 -1.598 -1.601 -1.595 -1.583 -1.564 12.09061 15.09899 -8.57414
 3.76 3.20 -1.510 -1.514 -1.507 -1.494 -1.476 12.19145 15.29904 -8.37409
 3.76 3.40 -1.420 -1.424 -1.417 -1.404 -1.385 12.29245 15.49909 -8.17404
 3.76 3.60 -1.328 -1.332 -1.325 -1.312 -1.293 12.39363 15.69916 -7.97398
 3.76 3.80 -1.234 -1.238 -1.230 -1.217 -1.198 12.49508 15.89925 -7.77390
 3.76 4.00 -1.139 -1.142 -1.135 -1.121 -1.101 12.59682 16.09934 -7.57381
 3.76 4.20 -1.040 -1.043 -1.036 -1.023 -1.003 12.69896 16.29934 -7.37379
 3.76 4.40 -0.939 -0.943 -0.936 -0.922 -0.903 12.80163 16.49934 -7.17377
 3.76 4.60 -0.836 -0.839 -0.833 -0.819 -0.800 12.90488 16.69941 -6.97375
 3.76 4.80 -0.729 -0.733 -0.726 -0.713 -0.694 13.00899 16.89954 -6.77371
 3.76 5.00 -0.620 -0.623 -0.617 -0.605 -0.587 13.11394 17.09968 -6.57365
 3.76 5.20 -0.506 -0.509 -0.504 -0.493 -0.475 13.21992 17.29981 -6.37352
 3.76 5.40 -0.390 -0.392 -0.388 -0.377 -0.361 13.32718 17.49993 -6.17329
 3.76 5.60 -0.270 -0.273 -0.268 -0.259 -0.244 13.43591 17.70015 -5.97297
 3.76 5.80 -0.148 -0.150 -0.146 -0.138 -0.124 13.54652 17.90065 -5.77244
 3.76 6.00 -0.024 -0.025 -0.022 -0.014 -0.002 13.65897 18.10140 -5.57170
 3.76 6.25  0.129  0.127  0.131  0.138  0.151 13.80263 18.35296 -5.32018
 3.76 6.50  0.283  0.281  0.285  0.292  0.304 13.94959 18.60552 -5.06768
 3.76 6.75  0.434  0.433  0.436  0.443  0.456 14.10021 18.86011 -4.81311
 3.76 7.00  0.581  0.579  0.582  0.590  0.602 14.25358 19.11727 -4.55596
 3.76 7.25  0.716  0.714  0.718  0.725  0.737 14.41024 19.37886 -4.29434
 3.76 7.50  0.838  0.836  0.840  0.847  0.859 14.56691 19.64483 -4.02835
 3.76 7.75  0.941  0.939  0.942  0.950  0.962 14.72323 19.91597 -3.75723
 3.76 8.00  1.025  1.023  1.027  1.034  1.046 14.87933 20.19201 -3.48122
 3.79-2.00 -0.687 -0.688 -0.686 -0.681 -0.674  9.64856  9.86249-13.81051
 3.79-1.50 -0.836 -0.838 -0.835 -0.831 -0.823 10.03623 10.41913-13.25407
 3.79-1.00 -1.022 -1.023 -1.021 -1.016 -1.008 10.37365 10.97183-12.70137
 3.79-0.50 -1.217 -1.218 -1.216 -1.211 -1.202 10.67514 11.51014-12.16298
 3.79 0.00 -1.400 -1.402 -1.399 -1.394 -1.385 10.95468 12.03463-11.63846
 3.79 0.50 -1.553 -1.554 -1.551 -1.545 -1.535 11.22141 12.54949-11.12372
 3.79 1.00 -1.644 -1.646 -1.642 -1.635 -1.623 11.48101 13.05805-10.61511
 3.79 1.25 -1.658 -1.661 -1.656 -1.648 -1.636 11.60905 13.31077-10.36232
 3.79 1.50 -1.649 -1.652 -1.647 -1.638 -1.625 11.73640 13.56289-10.11019
 3.79 1.75 -1.618 -1.620 -1.615 -1.606 -1.592 11.86325 13.81464 -9.85854
 3.79 2.00 -1.566 -1.569 -1.564 -1.554 -1.539 11.98972 14.06595 -9.60730
 3.79 2.25 -1.498 -1.501 -1.495 -1.485 -1.470 12.11585 14.31669 -9.35649
 3.79 2.50 -1.417 -1.421 -1.415 -1.404 -1.389 12.24180 14.56726 -9.10585
 3.79 2.75 -1.328 -1.330 -1.325 -1.314 -1.298 12.36756 14.81778 -8.85528
 3.79 3.00 -1.231 -1.234 -1.229 -1.217 -1.200 12.49332 15.06819 -8.60485
 3.79 3.20 -1.150 -1.153 -1.147 -1.136 -1.118 12.59393 15.26842 -8.40468
 3.79 3.40 -1.067 -1.070 -1.064 -1.052 -1.034 12.69454 15.46860 -8.20453
 3.79 3.60 -0.981 -0.984 -0.978 -0.966 -0.948 12.79517 15.66873 -8.00440
 3.79 3.80 -0.894 -0.897 -0.890 -0.878 -0.859 12.89587 15.86883 -7.80427
 3.79 4.00 -0.804 -0.807 -0.801 -0.788 -0.770 12.99664 16.06893 -7.60415
 3.79 4.20 -0.713 -0.717 -0.709 -0.696 -0.677 13.09754 16.26902 -7.40408
 3.79 4.40 -0.620 -0.624 -0.617 -0.604 -0.584 13.19860 16.46910 -7.20401
 3.79 4.60 -0.525 -0.528 -0.522 -0.509 -0.489 13.29992 16.66917 -7.00394
 3.79 4.80 -0.427 -0.430 -0.424 -0.412 -0.392 13.40162 16.86924 -6.80387
 3.79 5.00 -0.328 -0.331 -0.325 -0.313 -0.294 13.50365 17.06930 -6.60380
 3.79 5.20 -0.226 -0.229 -0.223 -0.211 -0.193 13.60605 17.26940 -6.40371
 3.79 5.40 -0.121 -0.123 -0.118 -0.107 -0.090 13.70894 17.46953 -6.20360
 3.79 5.60 -0.014 -0.017 -0.012 -0.002  0.014 13.81239 17.66971 -6.00343
 3.79 5.80  0.095  0.093  0.097  0.105  0.121 13.91660 17.87000 -5.80315
 3.79 6.00  0.206  0.204  0.208  0.216  0.229 14.02160 18.07041 -5.60276
 3.79 6.25  0.343  0.341  0.344  0.351  0.365 14.15435 18.32117 -5.35198
 3.79 6.50  0.481  0.479  0.482  0.490  0.503 14.28870 18.57241 -5.10073
 3.79 6.75  0.620  0.618  0.621  0.628  0.642 14.42482 18.82483 -4.84829
 3.79 7.00  0.758  0.756  0.759  0.766  0.780 14.56253 19.07882 -4.59431
 3.79 7.25  0.891  0.889  0.893  0.900  0.913 14.70203 19.33563 -4.33754
 3.79 7.50  1.017  1.015  1.019  1.027  1.039 14.84236 19.59583 -4.07738
 3.79 7.75  1.130  1.128  1.131  1.139  1.151 14.98314 19.86138 -3.81181
 3.79 8.00  1.227  1.225  1.228  1.236  1.248 15.12451 20.13162 -3.54151
 3.82-2.00 -0.552 -0.553 -0.550 -0.545 -0.536  9.69819  9.77561-13.89757
 3.82-1.50 -0.596 -0.597 -0.594 -0.589 -0.580 10.16227 10.30341-13.36967
 3.82-1.00 -0.686 -0.687 -0.685 -0.679 -0.671 10.58365 10.85248-12.82074
 3.82-0.50 -0.819 -0.820 -0.818 -0.813 -0.804 10.95168 11.40976-12.26344
 3.82 0.00 -0.966 -0.967 -0.965 -0.960 -0.951 11.27416 11.95770-11.71557
 3.82 0.50 -1.094 -1.096 -1.093 -1.087 -1.079 11.56632 12.49052-11.18257
 3.82 1.00 -1.179 -1.181 -1.177 -1.171 -1.161 11.84036 13.01115-10.66214
 3.82 1.25 -1.196 -1.198 -1.195 -1.188 -1.177 11.97299 13.26790-10.40530
 3.82 1.50 -1.196 -1.198 -1.194 -1.187 -1.175 12.10380 13.52310-10.15003
 3.82 1.75 -1.176 -1.178 -1.174 -1.166 -1.154 12.23328 13.77712 -9.89605
 3.82 2.00 -1.138 -1.141 -1.136 -1.128 -1.115 12.36173 14.03020 -9.64302
 3.82 2.25 -1.085 -1.087 -1.083 -1.074 -1.061 12.48935 14.28243 -9.39073
 3.82 2.50 -1.018 -1.021 -1.016 -1.007 -0.993 12.61637 14.53415 -9.13900
 3.82 2.75 -0.942 -0.944 -0.940 -0.930 -0.916 12.74290 14.78557 -8.88773
 3.82 3.00 -0.856 -0.859 -0.854 -0.845 -0.830 12.86911 15.03663 -8.63677
 3.82 3.20 -0.785 -0.788 -0.782 -0.772 -0.757 12.96986 15.23709 -8.43614
 3.82 3.40 -0.709 -0.712 -0.707 -0.696 -0.681 13.07057 15.43750 -8.23564
 3.82 3.60 -0.631 -0.634 -0.629 -0.618 -0.602 13.17123 15.63790 -8.03525
 3.82 3.80 -0.551 -0.554 -0.548 -0.537 -0.520 13.27189 15.83828 -7.83494
 3.82 4.00 -0.469 -0.472 -0.466 -0.455 -0.438 13.37254 16.03862 -7.63470
 3.82 4.20 -0.385 -0.388 -0.382 -0.370 -0.353 13.47320 16.23870 -7.43453
 3.82 4.40 -0.299 -0.303 -0.296 -0.284 -0.266 13.57385 16.43879 -7.23438
 3.82 4.60 -0.211 -0.215 -0.209 -0.196 -0.178 13.67457 16.63886 -7.03423
 3.82 4.80 -0.121 -0.124 -0.118 -0.106 -0.088 13.77545 16.83894 -6.83408
 3.82 5.00 -0.030 -0.033 -0.027 -0.016  0.002 13.87645 17.03902 -6.63395
 3.82 5.20  0.065  0.062  0.067  0.078  0.096 13.97760 17.23913 -6.43390
 3.82 5.40  0.161  0.158  0.163  0.174  0.191 14.07894 17.43925 -6.23386
 3.82 5.60  0.260  0.258  0.262  0.272  0.288 14.18053 17.63940 -6.03378
 3.82 5.80  0.360  0.359  0.362  0.372  0.387 14.28245 17.83959 -5.83362
 3.82 6.00  0.463  0.461  0.465  0.473  0.487 14.38471 18.03981 -5.63339
 3.82 6.25  0.589  0.587  0.591  0.598  0.612 14.51314 18.29021 -5.38297
 3.82 6.50  0.716  0.714  0.718  0.726  0.739 14.64227 18.54083 -5.13230
 3.82 6.75  0.844  0.842  0.845  0.853  0.866 14.77230 18.79207 -4.88103
 3.82 7.00  0.972  0.970  0.974  0.981  0.994 14.90293 19.04415 -4.62893
 3.82 7.25  1.098  1.097  1.100  1.108  1.121 15.03424 19.29782 -4.37529
 3.82 7.50  1.222  1.221  1.223  1.231  1.243 15.16554 19.55364 -4.11953
 3.82 7.75  1.337  1.336  1.338  1.346  1.358 15.29642 19.81372 -3.85948
 3.82 8.00  1.441  1.439  1.443  1.450  1.462 15.42700 20.07737 -3.59585
 3.85-2.00 -0.524 -0.525 -0.522 -0.516 -0.506  9.68458  9.73143-13.94158
 3.85-1.50 -0.520 -0.521 -0.518 -0.512 -0.501 10.17696 10.23805-13.43510
 3.85-1.00 -0.523 -0.525 -0.521 -0.515 -0.504 10.65543 10.75610-12.91722
 3.85-0.50 -0.547 -0.549 -0.546 -0.540 -0.531 11.10209 11.29403-12.37903
 3.85 0.00 -0.604 -0.605 -0.603 -0.598 -0.589 11.49859 11.84948-11.82362
 3.85 0.50 -0.674 -0.675 -0.673 -0.668 -0.659 11.84361 12.40398-11.26922
 3.85 1.00 -0.725 -0.727 -0.724 -0.718 -0.710 12.15014 12.94488-10.72816
 3.85 1.25 -0.736 -0.738 -0.735 -0.729 -0.720 12.29362 13.20967-10.46342
 3.85 1.50 -0.735 -0.737 -0.733 -0.728 -0.718 12.43265 13.47144-10.20170
 3.85 1.75 -0.720 -0.722 -0.719 -0.712 -0.702 12.56811 13.73054 -9.94256
 3.85 2.00 -0.692 -0.694 -0.691 -0.684 -0.673 12.70105 13.98758 -9.68550
 3.85 2.25 -0.652 -0.654 -0.651 -0.643 -0.632 12.83204 14.24289 -9.43027
 3.85 2.50 -0.600 -0.602 -0.598 -0.591 -0.579 12.96161 14.49693 -9.17627
 3.85 2.75 -0.538 -0.541 -0.536 -0.529 -0.517 13.09007 14.74988 -8.92317
 3.85 3.00 -0.468 -0.470 -0.466 -0.458 -0.445 13.21775 15.00217 -8.67081
 3.85 3.20 -0.407 -0.409 -0.405 -0.397 -0.384 13.31942 15.20366 -8.46939
 3.85 3.40 -0.342 -0.345 -0.340 -0.331 -0.318 13.42083 15.40490 -8.26823
 3.85 3.60 -0.274 -0.276 -0.272 -0.263 -0.249 13.52199 15.60590 -8.06731
 3.85 3.80 -0.203 -0.206 -0.201 -0.191 -0.176 13.62299 15.80671 -7.86655
 3.85 4.00 -0.130 -0.132 -0.127 -0.117 -0.102 13.72387 16.00732 -7.66595
 3.85 4.20 -0.053 -0.056 -0.051 -0.041 -0.026 13.82460 16.20770 -7.46552
 3.85 4.40  0.023  0.020  0.026  0.036  0.052 13.92534 16.40800 -7.26516
 3.85 4.60  0.103  0.100  0.105  0.116  0.133 14.02609 16.60822 -7.06485
 3.85 4.80  0.185  0.182  0.188  0.199  0.216 14.12686 16.80841 -6.86457
 3.85 5.00  0.269  0.266  0.271  0.282  0.299 14.22763 17.00860 -6.66434
 3.85 5.20  0.356  0.353  0.358  0.369  0.386 14.32840 17.20879 -6.46425
 3.85 5.40  0.445  0.442  0.447  0.457  0.473 14.42918 17.40898 -6.26416
 3.85 5.60  0.536  0.534  0.538  0.548  0.564 14.53008 17.60915 -6.06406
 3.85 5.80  0.630  0.628  0.631  0.641  0.656 14.63123 17.80930 -5.86391
 3.85 6.00  0.725  0.723  0.727  0.735  0.749 14.73256 18.00945 -5.66374
 3.85 6.25  0.843  0.841  0.845  0.853  0.866 14.85948 18.25969 -5.41350
 3.85 6.50  0.963  0.962  0.964  0.972  0.986 14.98673 18.51001 -5.16317
 3.85 6.75  1.083  1.081  1.085  1.092  1.105 15.11438 18.76060 -4.91256
 3.85 7.00  1.204  1.202  1.206  1.213  1.226 15.24229 19.01157 -4.66154
 3.85 7.25  1.326  1.324  1.327  1.334  1.347 15.37051 19.26340 -4.40973
 3.85 7.50  1.446  1.444  1.448  1.454  1.467 15.49872 19.51640 -4.15677
 3.85 7.75  1.562  1.560  1.563  1.570  1.582 15.62606 19.77203 -3.90116
 3.85 8.00  1.671  1.669  1.672  1.679  1.691 15.75282 20.02979 -3.64340
 3.88-2.00 -0.523 -0.525 -0.522 -0.517 -0.508  9.65753  9.69880-13.97429
 3.88-1.50 -0.510 -0.512 -0.508 -0.502 -0.491 10.15594 10.20003-13.47314
 3.88-1.00 -0.487 -0.488 -0.485 -0.477 -0.465 10.65138 10.70424-12.96900
 3.88-0.50 -0.448 -0.449 -0.446 -0.438 -0.426 11.13767 11.21590-12.45718
 3.88 0.00 -0.399 -0.401 -0.398 -0.391 -0.381 11.60097 11.74445-11.92885
 3.88 0.50 -0.358 -0.360 -0.357 -0.352 -0.343 12.02119 12.29381-11.37945
 3.88 1.00 -0.330 -0.332 -0.329 -0.324 -0.316 12.38810 12.85095-10.82218
 3.88 1.25 -0.315 -0.317 -0.315 -0.309 -0.301 12.55348 13.12617-10.54694
 3.88 1.50 -0.298 -0.299 -0.297 -0.291 -0.282 12.70986 13.39846-10.27466
 3.88 1.75 -0.275 -0.276 -0.274 -0.268 -0.259 12.85864 13.66650-10.00669
 3.88 2.00 -0.246 -0.248 -0.244 -0.239 -0.230 13.00173 13.93115 -9.74208
 3.88 2.25 -0.210 -0.212 -0.209 -0.203 -0.194 13.14012 14.19247 -9.48069
 3.88 2.50 -0.168 -0.169 -0.167 -0.160 -0.151 13.27531 14.45133 -9.22178
 3.88 2.75 -0.119 -0.121 -0.117 -0.111 -0.101 13.40812 14.70813 -8.96496
 3.88 3.00 -0.063 -0.064 -0.062 -0.055 -0.044 13.53908 14.96336 -8.70974
 3.88 3.20 -0.013 -0.015 -0.012 -0.005  0.005 13.64272 15.16657 -8.50658
 3.88 3.40  0.039  0.037  0.041  0.048  0.059 13.74569 15.36918 -8.30401
 3.88 3.60  0.096  0.094  0.097  0.105  0.117 13.84801 15.57124 -8.10197
 3.88 3.80  0.156  0.154  0.158  0.166  0.178 13.94993 15.77291 -7.90030
 3.88 4.00  0.218  0.217  0.220  0.229  0.242 14.05154 15.97424 -7.69897
 3.88 4.20  0.285  0.282  0.287  0.295  0.308 14.15292 16.17523 -7.49793
 3.88 4.40  0.353  0.351  0.355  0.364  0.377 14.25415 16.37605 -7.29709
 3.88 4.60  0.423  0.421  0.425  0.435  0.449 14.35522 16.57673 -7.09645
 3.88 4.80  0.496  0.494  0.498  0.508  0.523 14.45621 16.77731 -6.89593
 3.88 5.00  0.571  0.569  0.573  0.583  0.598 14.55715 16.97777 -6.69551
 3.88 5.20  0.650  0.647  0.652  0.661  0.676 14.65803 17.17806 -6.49514
 3.88 5.40  0.730  0.727  0.732  0.741  0.756 14.75892 17.37831 -6.29483
 3.88 5.60  0.813  0.811  0.815  0.823  0.838 14.85982 17.57854 -6.09460
 3.88 5.80  0.898  0.897  0.900  0.908  0.923 14.96080 17.77876 -5.89440
 3.88 6.00  0.987  0.985  0.988  0.996  1.009 15.06183 17.97896 -5.69422
 3.88 6.25  1.097  1.095  1.098  1.105  1.118 15.18828 18.22912 -5.44402
 3.88 6.50  1.210  1.208  1.211  1.218  1.230 15.31492 18.47929 -5.19382
 3.88 6.75  1.323  1.321  1.324  1.331  1.343 15.44191 18.72964 -4.94346
 3.88 7.00  1.438  1.437  1.440  1.446  1.458 15.56902 18.98019 -4.69293
 3.88 7.25  1.555  1.554  1.556  1.563  1.575 15.69625 19.23101 -4.44215
 3.88 7.50  1.673  1.671  1.674  1.680  1.692 15.82347 19.48230 -4.19091
 3.88 7.75  1.789  1.787  1.790  1.797  1.808 15.95008 19.73488 -3.93831
 3.88 8.00  1.902  1.901  1.903  1.909  1.920 16.07628 19.98847 -3.68466
 3.91-2.00 -0.528 -0.529 -0.527 -0.522 -0.516  9.62808  9.66829-14.00489
 3.91-1.50 -0.516 -0.517 -0.514 -0.509 -0.499 10.12775 10.16850-13.50459
 3.91-1.00 -0.491 -0.492 -0.489 -0.481 -0.469 10.62675 10.66950-13.00366
 3.91-0.50 -0.440 -0.442 -0.438 -0.430 -0.415 11.12353 11.17231-12.50086
 3.91 0.00 -0.350 -0.352 -0.348 -0.340 -0.326 11.61426 11.68052-11.99268
 3.91 0.50 -0.220 -0.221 -0.218 -0.211 -0.200 12.08778 12.20194-11.47134
 3.91 1.00 -0.072 -0.073 -0.071 -0.064 -0.056 12.52556 12.74437-10.92885
 3.91 1.25 -0.004 -0.005 -0.003  0.002  0.010 12.72479 13.02270-10.65049
 3.91 1.50  0.058  0.056  0.059  0.064  0.072 12.91132 13.30103-10.37212
 3.91 1.75  0.112  0.110  0.112  0.118  0.126 13.08456 13.57804-10.09514
 3.91 2.00  0.161  0.160  0.162  0.168  0.176 13.24748 13.85339 -9.81987
 3.91 2.25  0.207  0.206  0.208  0.214  0.222 13.40122 14.12401 -9.54919
 3.91 2.50  0.253  0.251  0.254  0.259  0.268 13.54827 14.39111 -9.28200
 3.91 2.75  0.298  0.297  0.300  0.305  0.314 13.68987 14.65465 -9.01842
 3.91 3.00  0.347  0.346  0.348  0.354  0.363 13.82750 14.91535 -8.75771
 3.91 3.20  0.388  0.386  0.389  0.395  0.404 13.93519 15.12199 -8.55108
 3.91 3.40  0.431  0.430  0.432  0.439  0.449 14.04149 15.32746 -8.34564
 3.91 3.60  0.478  0.476  0.479  0.485  0.495 14.14652 15.53182 -8.14132
 3.91 3.80  0.526  0.525  0.528  0.535  0.546 14.25071 15.73541 -7.93778
 3.91 4.00  0.579  0.577  0.580  0.587  0.598 14.35411 15.93827 -7.73495
 3.91 4.20  0.634  0.632  0.635  0.643  0.654 14.45683 16.14052 -7.53271
 3.91 4.40  0.691  0.689  0.692  0.700  0.712 14.55914 16.34235 -7.33087
 3.91 4.60  0.751  0.749  0.753  0.760  0.773 14.66103 16.54379 -7.12940
 3.91 4.80  0.814  0.812  0.816  0.824  0.837 14.76270 16.74496 -6.92818
 3.91 5.00  0.879  0.877  0.881  0.889  0.902 14.86416 16.94586 -6.72723
 3.91 5.20  0.948  0.945  0.949  0.957  0.971 14.96545 17.14652 -6.52655
 3.91 5.40  1.018  1.016  1.020  1.028  1.041 15.06668 17.34708 -6.32600
 3.91 5.60  1.092  1.090  1.094  1.101  1.114 15.16785 17.54755 -6.12558
 3.91 5.80  1.168  1.167  1.170  1.178  1.190 15.26900 17.74797 -5.92522
 3.91 6.00  1.247  1.246  1.249  1.256  1.268 15.37014 17.94831 -5.72492
 3.91 6.25  1.349  1.347  1.350  1.357  1.369 15.49674 18.19859 -5.47461
 3.91 6.50  1.454  1.452  1.455  1.461  1.473 15.62346 18.44886 -5.22432
 3.91 6.75  1.560  1.558  1.561  1.567  1.578 15.75029 18.69913 -4.97404
 3.91 7.00  1.668  1.667  1.670  1.676  1.687 15.87726 18.94939 -4.72377
 3.91 7.25  1.780  1.779  1.781  1.787  1.798 16.00444 19.19975 -4.47341
 3.91 7.50  1.894  1.892  1.895  1.901  1.912 16.13162 19.45025 -4.22294
 3.91 7.75  2.009  2.008  2.010  2.015  2.025 16.25839 19.70120 -3.97194
 3.91 8.00  2.124  2.122  2.125  2.130  2.140 16.38489 19.95250 -3.72056
 3.94-2.00 -0.531 -0.532 -0.531 -0.528 -0.523  9.59846  9.63789-14.03522
 3.94-1.50 -0.523 -0.524 -0.522 -0.517 -0.510 10.09830 10.13799-13.53506
 3.94-1.00 -0.503 -0.504 -0.502 -0.495 -0.485 10.59791 10.63839-13.03475
 3.94-0.50 -0.459 -0.461 -0.457 -0.449 -0.435 11.09726 11.13893-12.53417
 3.94 0.00 -0.369 -0.371 -0.367 -0.357 -0.342 11.59484 11.64118-12.03203
 3.94 0.50 -0.214 -0.216 -0.212 -0.203 -0.188 12.08778 12.14737-11.52593
 3.94 1.00  0.006  0.004  0.007  0.015  0.027 12.56785 12.66408-11.00913
 3.94 1.25  0.130  0.128  0.132  0.139  0.150 12.79733 12.92982-10.74329
 3.94 1.50  0.255  0.253  0.256  0.263  0.273 13.01745 13.20030-10.47276
 3.94 1.75  0.368  0.367  0.369  0.375  0.385 13.22425 13.47752-10.19570
 3.94 2.00  0.468  0.467  0.469  0.475  0.484 13.41847 13.75496 -9.91829
 3.94 2.25  0.550  0.549  0.551  0.557  0.566 13.59846 14.03251 -9.64070
 3.94 2.50  0.621  0.619  0.622  0.627  0.636 13.76723 14.31006 -9.36311
 3.94 2.75  0.681  0.679  0.682  0.687  0.696 13.92578 14.58284 -9.09035
 3.94 3.00  0.735  0.734  0.736  0.741  0.750 14.07664 14.85217 -8.82102
 3.94 3.20  0.776  0.775  0.777  0.782  0.791 14.19248 15.06465 -8.60850
 3.94 3.40  0.816  0.815  0.817  0.823  0.832 14.30541 15.27516 -8.39797
 3.94 3.60  0.857  0.855  0.858  0.864  0.873 14.41560 15.48371 -8.18944
 3.94 3.80  0.898  0.897  0.899  0.906  0.915 14.52400 15.69077 -7.98243
 3.94 4.00  0.942  0.940  0.943  0.949  0.959 14.63073 15.89647 -7.77676
 3.94 4.20  0.987  0.985  0.989  0.995  1.005 14.73612 16.10097 -7.57219
 3.94 4.40  1.035  1.033  1.036  1.042  1.053 14.84059 16.30466 -7.36844
 3.94 4.60  1.085  1.083  1.086  1.093  1.104 14.94419 16.50760 -7.16549
 3.94 4.80  1.137  1.136  1.138  1.145  1.156 15.04725 16.71003 -6.96309
 3.94 5.00  1.192  1.190  1.194  1.201  1.212 15.14984 16.91196 -6.76120
 3.94 5.20  1.251  1.249  1.252  1.259  1.270 15.25207 17.11344 -6.55974
 3.94 5.40  1.311  1.309  1.312  1.319  1.331 15.35408 17.31464 -6.35855
 3.94 5.60  1.375  1.373  1.376  1.383  1.394 15.45585 17.51559 -6.15761
 3.94 5.80  1.442  1.440  1.443  1.450  1.461 15.55751 17.71637 -5.95684
 3.94 6.00  1.512  1.510  1.513  1.519  1.529 15.65916 17.91698 -5.75622
 3.94 6.25  1.602  1.601  1.603  1.609  1.619 15.78619 18.16752 -5.50562
 3.94 6.50  1.698  1.696  1.698  1.704  1.714 15.91323 18.41797 -5.25516
 3.94 6.75  1.795  1.793  1.795  1.801  1.810 16.04052 18.66838 -5.00480
 3.94 7.00  1.896  1.894  1.896  1.902  1.911 16.16791 18.91871 -4.75449
 3.94 7.25  2.001  1.999  2.001  2.007  2.016 16.29541 19.16892 -4.50424
 3.94 7.50  2.109  2.108  2.110  2.115  2.124 16.42292 19.41913 -4.25399
 3.94 7.75  2.221  2.219  2.221  2.226  2.234 16.55030 19.66948 -4.00365
 3.94 8.00  2.334  2.333  2.334  2.339  2.347 16.67761 19.91991 -3.75326
 3.97-2.00 -0.529 -0.530 -0.528 -0.527 -0.523  9.57019  9.60627-14.06687
 3.97-1.50 -0.526 -0.527 -0.526 -0.522 -0.517 10.06893 10.10755-13.56575
 3.97-1.00 -0.513 -0.514 -0.512 -0.507 -0.500 10.56820 10.60810-13.06510
 3.97-0.50 -0.480 -0.482 -0.479 -0.472 -0.461 11.06781 11.10857-12.56479
 3.97 0.00 -0.406 -0.407 -0.404 -0.394 -0.379 11.56714 11.60906-12.06409
 3.97 0.50 -0.260 -0.263 -0.258 -0.248 -0.232 12.06521 12.11093-11.56241
 3.97 1.00 -0.028 -0.031 -0.026 -0.017 -0.001 12.55955 12.61585-11.05730
 3.97 1.25  0.117  0.116  0.119  0.129  0.144 12.80318 12.87127-10.80180
 3.97 1.50  0.280  0.278  0.282  0.290  0.304 13.04297 13.12969-10.54333
 3.97 1.75  0.446  0.444  0.448  0.456  0.468 13.27593 13.39334-10.27977
 3.97 2.00  0.607  0.605  0.608  0.615  0.627 13.50065 13.66172-10.01149
 3.97 2.25  0.750  0.749  0.752  0.758  0.768 13.71267 13.93670 -9.73648
 3.97 2.50  0.873  0.872  0.875  0.881  0.891 13.91238 14.21352 -9.45967
 3.97 2.75  0.973  0.972  0.975  0.980  0.990 14.09765 14.49167 -9.18155
 3.97 3.00  1.056  1.055  1.058  1.063  1.072 14.27114 14.76982 -8.90344
 3.97 3.20  1.111  1.110  1.113  1.118  1.128 14.40168 14.98940 -8.68387
 3.97 3.40  1.161  1.160  1.162  1.167  1.177 14.52688 15.20693 -8.46634
 3.97 3.60  1.206  1.205  1.207  1.213  1.221 14.64689 15.42200 -8.25121
 3.97 3.80  1.249  1.247  1.249  1.255  1.264 14.76326 15.63460 -8.03854
 3.97 4.00  1.290  1.288  1.290  1.296  1.305 14.87639 15.84510 -7.82798
 3.97 4.20  1.330  1.329  1.331  1.337  1.346 14.98693 16.05360 -7.61950
 3.97 4.40  1.372  1.370  1.373  1.378  1.388 15.09559 16.26064 -7.41249
 3.97 4.60  1.414  1.413  1.416  1.421  1.430 15.20243 16.46629 -7.20690
 3.97 4.80  1.458  1.457  1.460  1.465  1.475 15.30811 16.67094 -7.00230
 3.97 5.00  1.505  1.504  1.506  1.512  1.521 15.41280 16.87466 -6.79860
 3.97 5.20  1.555  1.553  1.555  1.561  1.571 15.51675 17.07757 -6.59561
 3.97 5.40  1.606  1.604  1.607  1.612  1.622 15.62020 17.27995 -6.39318
 3.97 5.60  1.660  1.659  1.661  1.666  1.676 15.72314 17.48183 -6.19131
 3.97 5.80  1.717  1.716  1.718  1.724  1.733 15.82580 17.68339 -5.98981
 3.97 6.00  1.778  1.776  1.778  1.783  1.793 15.92824 17.88462 -5.78861
 3.97 6.25  1.857  1.856  1.858  1.862  1.871 16.05604 18.13579 -5.53741
 3.97 6.50  1.941  1.940  1.942  1.946  1.954 16.18384 18.38668 -5.28651
 3.97 6.75  2.028  2.027  2.029  2.034  2.042 16.31177 18.63734 -5.03590
 3.97 7.00  2.121  2.119  2.121  2.126  2.134 16.43981 18.88784 -4.78542
 3.97 7.25  2.217  2.216  2.218  2.223  2.230 16.56805 19.13817 -4.53501
 3.97 7.50  2.319  2.318  2.320  2.324  2.331 16.69636 19.38846 -4.28467
 3.97 7.75  2.425  2.424  2.425  2.429  2.437 16.82470 19.63873 -4.03436
 3.97 8.00  2.534  2.533  2.535  2.538  2.545 16.95308 19.88897 -3.78410
 4.00-2.00 -0.513 -0.514 -0.513 -0.511 -0.508  9.54962  9.56797-14.10519
 4.00-1.50 -0.519 -0.520 -0.519 -0.516 -0.513 10.04415 10.07335-13.59998
 4.00-1.00 -0.516 -0.517 -0.515 -0.512 -0.506 10.54058 10.57657-13.09664
 4.00-0.50 -0.495 -0.497 -0.494 -0.489 -0.481 11.03902 11.07809-12.59517
 4.00 0.00 -0.440 -0.442 -0.438 -0.431 -0.419 11.53820 11.57864-12.09453
 4.00 0.50 -0.320 -0.322 -0.318 -0.308 -0.292 12.03743 12.07918-11.59380
 4.00 1.00 -0.105 -0.107 -0.103 -0.092 -0.074 12.53580 12.58093-11.09227
 4.00 1.25  0.039  0.036  0.041  0.052  0.070 12.78384 12.83261-10.84060
 4.00 1.50  0.207  0.205  0.210  0.220  0.238 13.03060 13.08529-10.58788
 4.00 1.75  0.393  0.391  0.395  0.405  0.421 13.27513 13.34014-10.33305
 4.00 2.00  0.588  0.585  0.589  0.599  0.615 13.51641 13.59770-10.07551
 4.00 2.25  0.780  0.777  0.782  0.790  0.804 13.75125 13.85993 -9.81326
 4.00 2.50  0.961  0.959  0.962  0.970  0.983 13.97841 14.12678 -9.54638
 4.00 2.75  1.120  1.119  1.122  1.129  1.141 14.19371 14.40037 -9.27276
 4.00 3.00  1.257  1.255  1.258  1.265  1.275 14.39707 14.67660 -8.99654
 4.00 3.20  1.347  1.345  1.348  1.354  1.364 14.54904 14.89936 -8.77382
 4.00 3.40  1.423  1.422  1.424  1.430  1.440 14.69330 15.12212 -8.55110
 4.00 3.60  1.488  1.487  1.489  1.495  1.504 14.82963 15.34384 -8.32940
 4.00 3.80  1.543  1.542  1.544  1.550  1.559 14.95957 15.56307 -8.11014
 4.00 4.00  1.593  1.591  1.594  1.599  1.608 15.08386 15.78039 -7.89279
 4.00 4.20  1.637  1.635  1.637  1.643  1.652 15.20319 15.99479 -7.67841
 4.00 4.40  1.678  1.677  1.679  1.684  1.693 15.31904 16.20706 -7.46615
 4.00 4.60  1.718  1.717  1.719  1.724  1.733 15.43159 16.41716 -7.25601
 4.00 4.80  1.759  1.757  1.760  1.765  1.773 15.54194 16.62552 -7.04758
 4.00 5.00  1.799  1.798  1.800  1.805  1.814 15.65031 16.83232 -6.84073
 4.00 5.20  1.841  1.840  1.842  1.847  1.855 15.75707 17.03772 -6.63536
 4.00 5.40  1.885  1.884  1.886  1.891  1.899 15.86278 17.24215 -6.43095
 4.00 5.60  1.932  1.930  1.932  1.937  1.945 15.96752 17.44568 -6.22742
 4.00 5.80  1.980  1.979  1.981  1.985  1.994 16.07165 17.64859 -6.02449
 4.00 6.00  2.032  2.031  2.033  2.037  2.044 16.17522 17.85089 -5.82217
 4.00 6.25  2.100  2.099  2.101  2.105  2.112 16.30395 18.10303 -5.57003
 4.00 6.50  2.174  2.173  2.174  2.179  2.185 16.43249 18.35468 -5.31840
 4.00 6.75  2.252  2.251  2.252  2.256  2.263 16.56090 18.60601 -5.06713
 4.00 7.00  2.335  2.334  2.335  2.339  2.345 16.68931 18.85703 -4.81616
 4.00 7.25  2.423  2.422  2.423  2.428  2.433 16.81781 19.10777 -4.56543
 4.00 7.50  2.517  2.516  2.518  2.521  2.527 16.94645 19.35832 -4.31489
 4.00 7.75  2.616  2.616  2.617  2.620  2.626 17.07563 19.60874 -4.06446
 4.00 8.00  2.721  2.720  2.721  2.724  2.729 17.20520 19.85902 -3.81417
 4.05-2.00 -0.494 -0.494 -0.493 -0.491 -0.487  9.50853  9.50934-14.16387
 4.05-1.50 -0.493 -0.494 -0.493 -0.490 -0.486 10.00732 10.01030-13.66274
 4.05-1.00 -0.494 -0.494 -0.493 -0.490 -0.485 10.50447 10.51335-13.15983
 4.05-0.50 -0.491 -0.492 -0.491 -0.487 -0.480 10.99922 11.01828-12.65482
 4.05 0.00 -0.471 -0.472 -0.470 -0.465 -0.456 11.49374 11.52362-12.14954
 4.05 0.50 -0.403 -0.405 -0.402 -0.394 -0.382 11.99021 12.02694-11.64628
 4.05 1.00 -0.250 -0.252 -0.248 -0.239 -0.222 12.48855 12.52840-11.14472
 4.05 1.25 -0.132 -0.134 -0.130 -0.119 -0.101 12.73786 12.77889-10.89416
 4.05 1.50  0.016  0.012  0.017  0.029  0.048 12.98717 13.02938-10.64359
 4.05 1.75  0.191  0.188  0.193  0.205  0.225 13.23621 13.28031-10.39270
 4.05 2.00  0.390  0.387  0.392  0.404  0.424 13.48487 13.53173-10.14140
 4.05 2.25  0.603  0.600  0.605  0.617  0.636 13.73230 13.78411 -9.88911
 4.05 2.50  0.824  0.821  0.826  0.837  0.856 13.97809 14.03782 -9.63545
 4.05 2.75  1.044  1.042  1.046  1.056  1.073 14.22078 14.29408 -9.37918
 4.05 3.00  1.259  1.256  1.261  1.270  1.285 14.45924 14.55352 -9.11970
 4.05 3.20  1.420  1.418  1.421  1.430  1.443 14.64463 14.76511 -8.90815
 4.05 3.40  1.569  1.567  1.570  1.578  1.590 14.82434 14.97971 -8.69360
 4.05 3.60  1.701  1.700  1.703  1.709  1.720 14.99710 15.19848 -8.47481
 4.05 3.80  1.817  1.815  1.818  1.824  1.834 15.16123 15.41962 -8.25361
 4.05 4.00  1.917  1.915  1.917  1.923  1.932 15.31744 15.64138 -8.03184
 4.05 4.20  1.999  1.998  2.000  2.005  2.013 15.46429 15.86352 -7.80971
 4.05 4.40  2.069  2.068  2.070  2.075  2.083 15.60390 16.08566 -7.58758
 4.05 4.60  2.130  2.128  2.130  2.135  2.142 15.73616 16.30639 -7.36688
 4.05 4.80  2.182  2.181  2.183  2.187  2.193 15.86277 16.52409 -7.14921
 4.05 5.00  2.229  2.228  2.230  2.234  2.241 15.98439 16.73965 -6.93368
 4.05 5.20  2.273  2.272  2.274  2.278  2.284 16.10178 16.95253 -6.72074
 4.05 5.40  2.316  2.315  2.316  2.320  2.326 16.21621 17.16341 -6.50979
 4.05 5.60  2.358  2.357  2.358  2.362  2.367 16.32778 17.37232 -6.30081
 4.05 5.80  2.401  2.399  2.401  2.404  2.410 16.43753 17.57970 -6.09339
 4.05 6.00  2.444  2.443  2.444  2.448  2.453 16.54568 17.78569 -5.88739
 4.05 6.25  2.501  2.500  2.502  2.504  2.509 16.67916 18.04154 -5.63166
 4.05 6.50  2.562  2.561  2.562  2.565  2.570 16.81144 18.29601 -5.37727
 4.05 6.75  2.626  2.626  2.627  2.629  2.634 16.94279 18.54934 -5.12388
 4.05 7.00  2.695  2.695  2.696  2.698  2.703 17.07372 18.80188 -4.87128
 4.05 7.25  2.771  2.770  2.771  2.773  2.777 17.20429 19.05385 -4.61934
 4.05 7.50  2.852  2.851  2.852  2.854  2.858 17.33486 19.30535 -4.36785
 4.05 7.75  2.939  2.938  2.939  2.942  2.945 17.46594 19.55650 -4.11666
 4.05 8.00  3.033  3.033  3.033  3.035  3.039 17.59737 19.80726 -3.86582
 4.10-2.00 -0.487 -0.488 -0.486 -0.483 -0.477  9.45909  9.45879-14.21439
 4.10-1.50 -0.484 -0.485 -0.484 -0.480 -0.474  9.95899  9.95880-13.71444
 4.10-1.00 -0.482 -0.483 -0.481 -0.477 -0.470 10.45879 10.45909-13.21410
 4.10-0.50 -0.475 -0.477 -0.475 -0.470 -0.463 10.95813 10.95961-12.71354
 4.10 0.00 -0.461 -0.463 -0.460 -0.455 -0.447 11.45652 11.46135-12.21183
 4.10 0.50 -0.424 -0.425 -0.423 -0.416 -0.406 11.95270 11.96497-11.70819
 4.10 1.00 -0.334 -0.337 -0.333 -0.325 -0.311 12.44700 12.47056-11.20259
 4.10 1.25 -0.258 -0.260 -0.256 -0.247 -0.231 12.69432 12.72307-10.95009
 4.10 1.50 -0.154 -0.156 -0.152 -0.142 -0.124 12.94186 12.97529-10.69789
 4.10 1.75 -0.019 -0.022 -0.017 -0.006  0.012 13.19023 13.22686-10.44633
 4.10 2.00  0.145  0.142  0.147  0.159  0.178 13.43886 13.47813-10.19504
 4.10 2.25  0.337  0.334  0.339  0.351  0.371 13.68771 13.72914 -9.94399
 4.10 2.50  0.550  0.547  0.553  0.565  0.585 13.93657 13.98014 -9.69293
 4.10 2.75  0.779  0.775  0.781  0.793  0.812 14.18493 14.23163 -9.44146
 4.10 3.00  1.015  1.012  1.017  1.027  1.046 14.43265 14.48373 -9.18943
 4.10 3.20  1.203  1.200  1.205  1.215  1.232 14.62957 14.68642 -8.98672
 4.10 3.40  1.390  1.388  1.392  1.401  1.417 14.82495 14.89037 -8.78274
 4.10 3.60  1.573  1.571  1.574  1.582  1.597 15.01830 15.09607 -8.57703
 4.10 3.80  1.748  1.747  1.749  1.757  1.769 15.20793 15.30453 -8.36861
 4.10 4.00  1.914  1.912  1.915  1.921  1.932 15.39375 15.51561 -8.15758
 4.10 4.20  2.065  2.064  2.066  2.071  2.081 15.57296 15.73099 -7.94222
 4.10 4.40  2.201  2.199  2.202  2.206  2.214 15.74534 15.94890 -7.72430
 4.10 4.60  2.319  2.318  2.319  2.324  2.331 15.90972 16.17002 -7.50315
 4.10 4.80  2.419  2.419  2.420  2.424  2.430 16.06529 16.39246 -7.28067
 4.10 5.00  2.507  2.506  2.507  2.510  2.516 16.21299 16.61490 -7.05819
 4.10 5.20  2.579  2.578  2.579  2.582  2.587 16.35233 16.83618 -6.83693
 4.10 5.40  2.642  2.642  2.643  2.645  2.650 16.48542 17.05626 -6.61692
 4.10 5.60  2.698  2.698  2.699  2.701  2.706 16.61226 17.27428 -6.39893
 4.10 5.80  2.750  2.749  2.750  2.752  2.756 16.73459 17.48950 -6.18368
 4.10 6.00  2.798  2.798  2.799  2.801  2.804 16.85297 17.70252 -5.97062
 4.10 6.25  2.857  2.857  2.858  2.859  2.862 16.99654 17.96552 -5.70756
 4.10 6.50  2.916  2.916  2.916  2.918  2.921 17.13672 18.22583 -5.44721
 4.10 6.75  2.976  2.976  2.976  2.978  2.981 17.27420 18.48387 -5.18915
 4.10 7.00  3.040  3.039  3.040  3.041  3.044 17.41010 18.74013 -4.93293
 4.10 7.25  3.107  3.106  3.107  3.109  3.111 17.54463 18.99486 -4.67832
 4.10 7.50  3.179  3.178  3.179  3.181  3.183 17.67897 19.24846 -4.42481
 4.10 7.75  3.257  3.256  3.257  3.259  3.261 17.81326 19.50128 -4.17203
 4.10 8.00  3.341  3.341  3.341  3.343  3.345 17.94743 19.75320 -3.92010
 4.15-2.00 -0.488 -0.489 -0.487 -0.485 -0.481  9.40909  9.40875-14.26448
 4.15-1.50 -0.482 -0.483 -0.481 -0.477 -0.471  9.90907  9.90870-13.76447
 4.15-1.00 -0.475 -0.476 -0.474 -0.469 -0.461 10.40909 10.40875-13.26440
 4.15-0.50 -0.468 -0.469 -0.467 -0.461 -0.451 10.90897 10.90881-12.76447
 4.15 0.00 -0.456 -0.459 -0.456 -0.449 -0.438 11.40892 11.40892-12.26416
 4.15 0.50 -0.432 -0.434 -0.430 -0.424 -0.411 11.90838 11.90940-11.76371
 4.15 1.00 -0.371 -0.373 -0.370 -0.361 -0.347 12.40722 12.41061-11.26257
 4.15 1.25 -0.317 -0.319 -0.315 -0.306 -0.291 12.65603 12.66179-11.01138
 4.15 1.50 -0.243 -0.245 -0.241 -0.231 -0.215 12.90434 12.91344-10.75970
 4.15 1.75 -0.146 -0.148 -0.144 -0.133 -0.116 13.15190 13.16597-10.50725
 4.15 2.00 -0.025 -0.027 -0.023 -0.012  0.006 13.39915 13.41863-10.25461
 4.15 2.25  0.122  0.119  0.124  0.135  0.155 13.64615 13.67138-10.00185
 4.15 2.50  0.294  0.291  0.296  0.308  0.327 13.89315 13.92412 -9.74909
 4.15 2.75  0.493  0.490  0.495  0.506  0.525 14.14089 14.17623 -9.49696
 4.15 3.00  0.711  0.708  0.713  0.724  0.742 14.38881 14.42813 -9.24504
 4.15 3.20  0.898  0.895  0.900  0.910  0.928 14.58727 14.62953 -9.04366
 4.15 3.40  1.091  1.089  1.093  1.102  1.119 14.78574 14.83092 -8.84229
 4.15 3.60  1.288  1.285  1.290  1.298  1.313 14.98395 15.03254 -8.64067
 4.15 3.80  1.486  1.484  1.487  1.495  1.509 15.18131 15.23495 -8.43827
 4.15 4.00  1.680  1.678  1.681  1.688  1.700 15.37785 15.43807 -8.23515
 4.15 4.20  1.871  1.870  1.872  1.878  1.889 15.57228 15.64283 -8.03041
 4.15 4.40  2.057  2.055  2.058  2.062  2.072 15.76410 15.84953 -7.82372
 4.15 4.60  2.233  2.232  2.234  2.239  2.246 15.95254 16.05892 -7.61433
 4.15 4.80  2.398  2.397  2.399  2.403  2.409 16.13551 16.27171 -7.40150
 4.15 5.00  2.549  2.549  2.550  2.553  2.558 16.31302 16.48742 -7.18575
 4.15 5.20  2.681  2.681  2.682  2.684  2.689 16.48211 16.70766 -6.96552
 4.15 5.40  2.798  2.797  2.798  2.800  2.804 16.64355 16.92865 -6.74454
 4.15 5.60  2.897  2.896  2.897  2.899  2.902 16.79653 17.15034 -6.52283
 4.15 5.80  2.982  2.981  2.982  2.984  2.986 16.94153 17.37220 -6.30096
 4.15 6.00  3.057  3.057  3.057  3.058  3.061 17.07954 17.59406 -6.07909
 4.15 6.25  3.137  3.137  3.137  3.138  3.141 17.24297 17.86715 -5.80600
 4.15 6.50  3.211  3.210  3.211  3.212  3.214 17.39898 18.13704 -5.53611
 4.15 6.75  3.279  3.278  3.279  3.280  3.281 17.54876 18.40299 -5.27014
 4.15 7.00  3.346  3.346  3.346  3.347  3.349 17.69443 18.66586 -5.00727
 4.15 7.25  3.414  3.414  3.414  3.415  3.417 17.83676 18.92595 -4.74728
 4.15 7.50  3.485  3.485  3.485  3.486  3.487 17.97740 19.18384 -4.48946
 4.15 7.75  3.560  3.559  3.560  3.560  3.562 18.11716 19.44006 -4.23324
 4.15 8.00  3.639  3.638  3.639  3.640  3.640 18.25575 19.69443 -3.97881
 4.20-2.00 -0.492 -0.492 -0.492 -0.490 -0.487  9.35908  9.35870-14.31444
 4.20-1.50 -0.487 -0.487 -0.486 -0.485 -0.482  9.85908  9.85866-13.81446
 4.20-1.00 -0.480 -0.480 -0.479 -0.476 -0.471 10.35908 10.35870-13.31444
 4.20-0.50 -0.468 -0.469 -0.467 -0.463 -0.455 10.85902 10.85872-12.81446
 4.20 0.00 -0.453 -0.455 -0.452 -0.446 -0.435 11.35908 11.35889-12.31435
 4.20 0.50 -0.432 -0.434 -0.431 -0.422 -0.408 11.85890 11.85884-11.81417
 4.20 1.00 -0.392 -0.394 -0.390 -0.381 -0.363 12.35870 12.35908-11.31408
 4.20 1.25 -0.357 -0.360 -0.356 -0.345 -0.327 12.60853 12.60923-11.06390
 4.20 1.50 -0.306 -0.309 -0.304 -0.294 -0.274 12.85830 12.85944-10.81361
 4.20 1.75 -0.236 -0.238 -0.234 -0.222 -0.202 13.10793 13.10989-10.56322
 4.20 2.00 -0.142 -0.145 -0.140 -0.128 -0.107 13.35736 13.36059-10.31265
 4.20 2.25 -0.023 -0.026 -0.021 -0.009  0.012 13.60625 13.61162-10.06154
 4.20 2.50  0.119  0.116  0.121  0.133  0.154 13.85461 13.86309 -9.80995
 4.20 2.75  0.287  0.284  0.289  0.300  0.320 14.10224 14.11542 -9.55767
 4.20 3.00  0.473  0.470  0.475  0.485  0.504 14.34947 14.36810 -9.30504
 4.20 3.20  0.637  0.634  0.639  0.649  0.667 14.54693 14.57049 -9.10269
 4.20 3.40  0.810  0.808  0.812  0.822  0.838 14.74438 14.77288 -8.90033
 4.20 3.60  0.994  0.992  0.995  1.004  1.019 14.94198 14.97512 -8.69810
 4.20 3.80  1.186  1.184  1.187  1.195  1.208 15.13972 15.17721 -8.49599
 4.20 4.00  1.382  1.380  1.384  1.390  1.403 15.33746 15.37931 -8.29388
 4.20 4.20  1.585  1.583  1.585  1.591  1.602 15.53500 15.58153 -8.09162
 4.20 4.40  1.787  1.786  1.788  1.793  1.802 15.73226 15.78396 -7.88914
 4.20 4.60  1.988  1.987  1.989  1.994  2.002 15.92883 15.98700 -7.68607
 4.20 4.80  2.186  2.185  2.187  2.190  2.197 16.12360 16.19158 -7.48155
 4.20 5.00  2.379  2.378  2.379  2.382  2.388 16.31660 16.39759 -7.27564
 4.20 5.20  2.564  2.562  2.564  2.567  2.571 16.50576 16.60643 -7.06677
 4.20 5.40  2.738  2.737  2.738  2.740  2.744 16.69053 16.81797 -6.85518
 4.20 5.60  2.898  2.897  2.898  2.899  2.902 16.86981 17.03314 -6.63995
 4.20 5.80  3.040  3.040  3.040  3.041  3.044 17.04168 17.25135 -6.42174
 4.20 6.00  3.168  3.167  3.168  3.169  3.170 17.20656 17.47144 -6.20170
 4.20 6.25  3.300  3.300  3.300  3.301  3.302 17.40028 17.74899 -5.92427
 4.20 6.50  3.414  3.414  3.414  3.415  3.416 17.58275 18.02654 -5.64685
 4.20 6.75  3.510  3.509  3.510  3.510  3.512 17.75408 18.30124 -5.37210
 4.20 7.00  3.597  3.596  3.597  3.597  3.599 17.91735 18.57334 -5.09985
 4.20 7.25  3.677  3.676  3.677  3.677  3.679 18.07368 18.84136 -4.83174
 4.20 7.50  3.755  3.755  3.755  3.756  3.757 18.22557 19.10619 -4.56687
 4.20 7.75  3.833  3.833  3.834  3.834  3.834 18.37464 19.36820 -4.30488
 4.20 8.00  3.914  3.914  3.914  3.914  3.915 18.52035 19.62726 -4.04590
 4.25-2.00 -0.489 -0.489 -0.489 -0.487 -0.486  9.30920  9.30856-14.36452
 4.25-1.50 -0.487 -0.487 -0.487 -0.485 -0.483  9.80909  9.80868-13.86455
 4.25-1.00 -0.483 -0.484 -0.483 -0.481 -0.478 10.30920 10.30878-13.36442
 4.25-0.50 -0.475 -0.476 -0.475 -0.472 -0.467 10.80902 10.80868-12.86455
 4.25 0.00 -0.461 -0.462 -0.460 -0.457 -0.450 11.30899 11.30878-12.36442
 4.25 0.50 -0.440 -0.441 -0.439 -0.434 -0.424 11.80895 11.80882-11.86423
 4.25 1.00 -0.405 -0.407 -0.404 -0.395 -0.381 12.30899 12.30899-11.36421
 4.25 1.25 -0.379 -0.381 -0.377 -0.367 -0.351 12.55892 12.55897-11.11422
 4.25 1.50 -0.341 -0.344 -0.340 -0.328 -0.308 12.80882 12.80895-10.86423
 4.25 1.75 -0.291 -0.294 -0.289 -0.276 -0.255 13.05871 13.05905-10.61407
 4.25 2.00 -0.222 -0.225 -0.220 -0.207 -0.183 13.30857 13.30920-10.36391
 4.25 2.25 -0.134 -0.137 -0.132 -0.118 -0.093 13.55836 13.55940-10.11376
 4.25 2.50 -0.023 -0.026 -0.021 -0.007  0.018 13.80808 13.80969 -9.86360
 4.25 2.75  0.114  0.111  0.116  0.130  0.154 14.05759 14.06018 -9.61305
 4.25 3.00  0.277  0.274  0.279  0.292  0.314 14.30685 14.31091 -9.36221
 4.25 3.20  0.427  0.424  0.428  0.440  0.461 14.50596 14.51179 -9.16134
 4.25 3.40  0.589  0.586  0.590  0.601  0.619 14.70474 14.71299 -8.96018
 4.25 3.60  0.761  0.759  0.763  0.773  0.788 14.90304 14.91465 -8.75855
 4.25 3.80  0.943  0.941  0.944  0.952  0.967 15.10089 15.11674 -8.55646
 4.25 4.00  1.128  1.126  1.129  1.136  1.148 15.29842 15.31911 -8.35409
 4.25 4.20  1.321  1.319  1.322  1.328  1.339 15.49569 15.52170 -8.15151
 4.25 4.40  1.516  1.516  1.517  1.523  1.532 15.69279 15.72442 -7.94880
 4.25 4.60  1.717  1.716  1.718  1.722  1.730 15.88979 15.92719 -7.74604
 4.25 4.80  1.921  1.921  1.922  1.926  1.932 16.08666 16.13004 -7.54319
 4.25 5.00  2.128  2.126  2.128  2.131  2.136 16.28330 16.33304 -7.34018
 4.25 5.20  2.334  2.333  2.334  2.337  2.342 16.47906 16.53680 -7.13639
 4.25 5.40  2.536  2.535  2.536  2.539  2.542 16.67360 16.74151 -6.93161
 4.25 5.60  2.734  2.733  2.734  2.735  2.738 16.86625 16.94777 -6.72532
 4.25 5.80  2.923  2.923  2.923  2.925  2.927 17.05522 17.15664 -6.51645
 4.25 6.00  3.103  3.103  3.103  3.104  3.106 17.24055 17.36791 -6.30522
 4.25 6.25  3.304  3.304  3.304  3.305  3.306 17.46341 17.63734 -6.03585
 4.25 6.50  3.483  3.483  3.483  3.484  3.485 17.67642 17.91025 -5.76296
 4.25 6.75  3.631  3.631  3.632  3.632  3.633 17.87665 18.18700 -5.48616
 4.25 7.00  3.763  3.763  3.763  3.763  3.763 18.06595 18.46374 -5.20936
 4.25 7.25  3.873  3.872  3.873  3.873  3.873 18.24407 18.73879 -4.93423
 4.25 7.50  3.974  3.973  3.974  3.974  3.974 18.41414 19.01199 -4.66095
 4.25 7.75  4.066  4.066  4.066  4.066  4.067 18.57836 19.28140 -4.39161
 4.25 8.00  4.157  4.157  4.157  4.157  4.157 18.73600 19.54765 -4.12552
 4.30-2.00 -0.483 -0.483 -0.483 -0.481 -0.478  9.26031  9.25744-14.41567
 4.30-1.50 -0.482 -0.483 -0.482 -0.480 -0.477  9.75944  9.75831-13.91507
 4.30-1.00 -0.480 -0.480 -0.480 -0.478 -0.474 10.25912 10.25864-13.41454
 4.30-0.50 -0.475 -0.476 -0.475 -0.472 -0.468 10.75906 10.75869-12.91435
 4.30 0.00 -0.465 -0.465 -0.464 -0.462 -0.456 11.25912 11.25864-12.41443
 4.30 0.50 -0.447 -0.448 -0.446 -0.443 -0.436 11.75899 11.75876-11.91435
 4.30 1.00 -0.419 -0.419 -0.418 -0.413 -0.404 12.25888 12.25888-11.41431
 4.30 1.25 -0.398 -0.399 -0.397 -0.391 -0.380 12.50885 12.50889-11.16433
 4.30 1.50 -0.370 -0.372 -0.369 -0.362 -0.349 12.75884 12.75891-10.91435
 4.30 1.75 -0.332 -0.334 -0.331 -0.322 -0.306 13.00886 13.00901-10.66422
 4.30 2.00 -0.280 -0.282 -0.278 -0.267 -0.248 13.25888 13.25912-10.41409
 4.30 2.25 -0.211 -0.214 -0.209 -0.196 -0.174 13.50874 13.50913-10.16404
 4.30 2.50 -0.122 -0.125 -0.119 -0.105 -0.080 13.75861 13.75914 -9.91400
 4.30 2.75 -0.012 -0.015 -0.010  0.005  0.031 14.00850 14.00934 -9.66385
 4.30 3.00  0.122  0.118  0.124  0.139  0.165 14.25840 14.25959 -9.41364
 4.30 3.20  0.248  0.245  0.250  0.264  0.289 14.45814 14.45980 -9.21341
 4.30 3.40  0.390  0.387  0.392  0.404  0.428 14.65777 14.66006 -9.01311
 4.30 3.60  0.549  0.545  0.550  0.561  0.582 14.85732 14.86040 -8.81272
 4.30 3.80  0.720  0.718  0.722  0.732  0.750 15.05674 15.06096 -8.61215
 4.30 4.00  0.902  0.900  0.903  0.911  0.926 15.25600 15.26174 -8.41139
 4.30 4.20  1.094  1.093  1.095  1.102  1.115 15.45478 15.46293 -8.21018
 4.30 4.40  1.290  1.288  1.290  1.296  1.307 15.65316 15.66451 -8.00858
 4.30 4.60  1.489  1.488  1.489  1.494  1.502 15.85109 15.86653 -7.80653
 4.30 4.80  1.690  1.689  1.690  1.695  1.702 16.04852 16.06899 -7.60405
 4.30 5.00  1.892  1.892  1.893  1.896  1.901 16.24551 16.27184 -7.40121
 4.30 5.20  2.099  2.098  2.099  2.102  2.106 16.44216 16.47497 -7.19815
 4.30 5.40  2.306  2.306  2.306  2.308  2.312 16.63829 16.67852 -6.99468
 4.30 5.60  2.515  2.514  2.515  2.517  2.520 16.83398 16.88246 -6.79082
 4.30 5.80  2.724  2.724  2.724  2.726  2.728 17.02886 17.08706 -6.58623
 4.30 6.00  2.928  2.928  2.928  2.929  2.931 17.22272 17.29248 -6.38080
 4.30 6.25  3.176  3.176  3.176  3.177  3.177 17.46121 17.55198 -6.12130
 4.30 6.50  3.410  3.410  3.410  3.411  3.412 17.69478 17.81471 -5.85855
 4.30 6.75  3.620  3.620  3.620  3.621  3.621 17.91989 18.08286 -5.59035
 4.30 7.00  3.811  3.811  3.811  3.811  3.811 18.13609 18.35449 -5.31867
 4.30 7.25  3.971  3.971  3.971  3.971  3.972 18.34060 18.63017 -5.04296
 4.30 7.50  4.115  4.115  4.115  4.115  4.115 18.53504 18.90585 -4.76726
 4.30 7.75  4.237  4.237  4.237  4.237  4.237 18.72010 19.18030 -4.49280
 4.30 8.00  4.351  4.351  4.351  4.351  4.351 18.89553 19.45393 -4.21918
 4.35-2.00 -0.458 -0.458 -0.457 -0.456 -0.453  9.22272  9.19479-14.47847
 4.35-1.50 -0.464 -0.464 -0.463 -0.462 -0.458  9.71784  9.69975-13.97347
 4.35-1.00 -0.468 -0.469 -0.468 -0.465 -0.461 10.21325 10.20439-13.46865
 4.35-0.50 -0.468 -0.469 -0.468 -0.465 -0.460 10.71062 10.70714-12.96618
 4.35 0.00 -0.462 -0.463 -0.462 -0.459 -0.452 11.20951 11.20817-12.46496
 4.35 0.50 -0.448 -0.449 -0.448 -0.444 -0.437 11.70919 11.70859-11.96457
 4.35 1.00 -0.422 -0.423 -0.421 -0.418 -0.410 12.20898 12.20871-11.46433
 4.35 1.25 -0.404 -0.405 -0.403 -0.399 -0.391 12.45894 12.45878-11.21423
 4.35 1.50 -0.381 -0.383 -0.381 -0.376 -0.367 12.70893 12.70885-10.96417
 4.35 1.75 -0.353 -0.354 -0.352 -0.346 -0.335 12.95895 12.95891-10.71419
 4.35 2.00 -0.315 -0.317 -0.314 -0.308 -0.295 13.20898 13.20898-10.46420
 4.35 2.25 -0.264 -0.266 -0.263 -0.255 -0.241 13.45883 13.45904-10.21420
 4.35 2.50 -0.197 -0.199 -0.196 -0.187 -0.169 13.70868 13.70910 -9.96417
 4.35 2.75 -0.108 -0.111 -0.107 -0.097 -0.077 13.95869 13.95917 -9.71406
 4.35 3.00  0.002 -0.001  0.004  0.015  0.036 14.20871 14.20925 -9.46395
 4.35 3.20  0.109  0.106  0.110  0.123  0.145 14.40853 14.40934 -9.26388
 4.35 3.40  0.233  0.230  0.235  0.247  0.269 14.60834 14.60946 -9.06381
 4.35 3.60  0.374  0.371  0.375  0.388  0.410 14.80818 14.80960 -8.86365
 4.35 3.80  0.530  0.528  0.532  0.543  0.563 15.00804 15.00980 -8.66338
 4.35 4.00  0.699  0.698  0.701  0.711  0.729 15.20790 15.21005 -8.46306
 4.35 4.20  0.883  0.881  0.884  0.892  0.908 15.40752 15.41039 -8.26275
 4.35 4.40  1.074  1.071  1.074  1.081  1.094 15.60697 15.61085 -8.06238
 4.35 4.60  1.271  1.270  1.272  1.278  1.288 15.80627 15.81151 -7.86179
 4.35 4.80  1.475  1.474  1.476  1.480  1.489 16.00534 16.01249 -7.66077
 4.35 5.00  1.681  1.680  1.681  1.685  1.692 16.20412 16.21378 -7.45942
 4.35 5.20  1.891  1.891  1.892  1.895  1.900 16.40227 16.41553 -7.25773
 4.35 5.40  2.101  2.101  2.101  2.104  2.108 16.59986 16.61777 -7.05555
 4.35 5.60  2.311  2.311  2.312  2.313  2.316 16.79691 16.82058 -6.85279
 4.35 5.80  2.523  2.522  2.523  2.524  2.527 16.99328 17.02405 -6.64930
 4.35 6.00  2.734  2.734  2.735  2.735  2.737 17.18893 17.22814 -6.44515
 4.35 6.25  3.000  3.000  3.000  3.001  3.003 17.43237 17.48401 -6.18921
 4.35 6.50  3.260  3.260  3.260  3.261  3.261 17.67385 17.74131 -5.93182
 4.35 6.75  3.509  3.509  3.509  3.510  3.511 17.91193 18.00122 -5.67185
 4.35 7.00  3.747  3.747  3.747  3.747  3.748 18.14551 18.26411 -5.40894
 4.35 7.25  3.960  3.960  3.960  3.960  3.961 18.37138 18.53179 -5.14139
 4.35 7.50  4.156  4.156  4.156  4.156  4.156 18.58917 18.80264 -4.87063
 4.35 7.75  4.323  4.323  4.323  4.323  4.323 18.79661 19.07589 -4.59734
 4.35 8.00  4.475  4.475  4.475  4.475  4.475 18.99445 19.35180 -4.32130
 4.40-2.00 -0.449 -0.449 -0.449 -0.448 -0.446  9.17696  9.13988-14.53313
 4.40-1.50 -0.448 -0.448 -0.448 -0.446 -0.444  9.67651  9.64048-14.03269
 4.40-1.00 -0.447 -0.447 -0.446 -0.445 -0.441 10.17522 10.14176-13.53121
 4.40-0.50 -0.447 -0.447 -0.446 -0.444 -0.440 10.67219 10.64513-13.02803
 4.40 0.00 -0.448 -0.448 -0.447 -0.444 -0.438 11.16732 11.15014-12.52288
 4.40 0.50 -0.442 -0.442 -0.441 -0.437 -0.430 11.66285 11.65485-12.01832
 4.40 1.00 -0.422 -0.424 -0.422 -0.417 -0.408 12.16047 12.15746-11.51570
 4.40 1.25 -0.406 -0.407 -0.405 -0.400 -0.391 12.40979 12.40804-11.26515
 4.40 1.50 -0.384 -0.385 -0.383 -0.379 -0.369 12.65935 12.65839-11.01480
 4.40 1.75 -0.357 -0.359 -0.356 -0.351 -0.340 12.90912 12.90853-10.76458
 4.40 2.00 -0.325 -0.326 -0.324 -0.318 -0.307 13.15897 13.15866-10.51442
 4.40 2.25 -0.284 -0.285 -0.283 -0.276 -0.265 13.40886 13.40881-10.26432
 4.40 2.50 -0.232 -0.233 -0.231 -0.224 -0.211 13.65878 13.65897-10.01421
 4.40 2.75 -0.164 -0.165 -0.163 -0.155 -0.141 13.90872 13.90912 -9.76410
 4.40 3.00 -0.078 -0.080 -0.076 -0.068 -0.054 14.15866 14.15927 -9.51400
 4.40 3.20  0.009  0.007  0.010  0.019  0.035 14.35857 14.35930 -9.31394
 4.40 3.40  0.112  0.110  0.113  0.122  0.139 14.55845 14.55933 -9.11388
 4.40 3.60  0.234  0.231  0.236  0.244  0.261 14.75833 14.75937 -8.91377
 4.40 3.80  0.374  0.372  0.376  0.385  0.401 14.95820 14.95945 -8.71360
 4.40 4.00  0.530  0.528  0.531  0.539  0.557 15.15806 15.15957 -8.51343
 4.40 4.20  0.703  0.701  0.704  0.712  0.727 15.35791 15.35974 -8.31328
 4.40 4.40  0.886  0.884  0.887  0.894  0.908 15.55773 15.55997 -8.11312
 4.40 4.60  1.078  1.077  1.079  1.085  1.098 15.75752 15.76025 -7.91293
 4.40 4.80  1.278  1.277  1.279  1.284  1.294 15.95723 15.96061 -7.71260
 4.40 5.00  1.482  1.481  1.483  1.487  1.495 16.15685 16.16107 -7.51216
 4.40 5.20  1.693  1.691  1.693  1.696  1.703 16.35619 16.36168 -7.31153
 4.40 5.40  1.905  1.904  1.905  1.908  1.913 16.55524 16.56253 -7.11064
 4.40 5.60  2.119  2.119  2.119  2.121  2.125 16.75401 16.76370 -6.90946
 4.40 5.80  2.335  2.336  2.336  2.337  2.340 16.95233 16.96540 -6.70777
 4.40 6.00  2.551  2.551  2.551  2.552  2.555 17.15014 17.16761 -6.50557
 4.40 6.25  2.824  2.824  2.824  2.825  2.826 17.39609 17.42140 -6.25167
 4.40 6.50  3.095  3.095  3.095  3.095  3.096 17.64058 17.67642 -5.99654
 4.40 6.75  3.365  3.365  3.365  3.365  3.366 17.88353 17.93288 -5.74015
 4.40 7.00  3.626  3.626  3.626  3.626  3.626 18.12418 18.19117 -5.48201
 4.40 7.25  3.873  3.873  3.873  3.874  3.874 18.36128 18.45187 -5.22135
 4.40 7.50  4.110  4.110  4.110  4.110  4.110 18.59384 18.71542 -4.95782
 4.40 7.75  4.321  4.321  4.321  4.321  4.321 18.81889 18.98285 -4.69039
 4.40 8.00  4.517  4.517  4.517  4.517  4.517 19.03743 19.25382 -4.41942
 4.45-2.00 -0.446 -0.447 -0.446 -0.445 -0.443  9.12743  9.08991-14.58336
 4.45-1.50 -0.445 -0.445 -0.445 -0.444 -0.441  9.62716  9.58973-14.08339
 4.45-1.00 -0.443 -0.444 -0.443 -0.442 -0.438 10.12711 10.08990-13.58336
 4.45-0.50 -0.440 -0.441 -0.440 -0.438 -0.434 10.62685 10.59017-13.08302
 4.45 0.00 -0.435 -0.436 -0.435 -0.433 -0.428 11.12613 11.09096-12.58220
 4.45 0.50 -0.428 -0.429 -0.428 -0.424 -0.418 11.62428 11.59284-12.08029
 4.45 1.00 -0.413 -0.414 -0.413 -0.409 -0.401 12.12057 12.09691-11.57610
 4.45 1.25 -0.401 -0.402 -0.400 -0.396 -0.386 12.36800 12.34959-11.32349
 4.45 1.50 -0.383 -0.384 -0.382 -0.377 -0.367 12.61543 12.60228-11.07089
 4.45 1.75 -0.359 -0.360 -0.358 -0.352 -0.341 12.86332 12.85445-10.81876
 4.45 2.00 -0.327 -0.328 -0.326 -0.319 -0.307 13.11160 13.10619-10.56703
 4.45 2.25 -0.287 -0.289 -0.287 -0.280 -0.267 13.36048 13.35725-10.31592
 4.45 2.50 -0.240 -0.242 -0.239 -0.232 -0.218 13.60970 13.60799-10.06515
 4.45 2.75 -0.182 -0.184 -0.181 -0.174 -0.159 13.85921 13.85854 -9.81465
 4.45 3.00 -0.111 -0.113 -0.110 -0.102 -0.088 14.10890 14.10890 -9.56432
 4.45 3.20 -0.040 -0.042 -0.039 -0.031 -0.016 14.30880 14.30901 -9.36418
 4.45 3.40  0.043  0.042  0.044  0.052  0.067 14.50869 14.50912 -9.16405
 4.45 3.60  0.145  0.143  0.146  0.153  0.169 14.70855 14.70925 -8.96393
 4.45 3.80  0.265  0.263  0.266  0.273  0.288 14.90839 14.90942 -8.76380
 4.45 4.00  0.402  0.400  0.402  0.409  0.423 15.10823 15.10958 -8.56368
 4.45 4.20  0.559  0.558  0.560  0.567  0.579 15.30813 15.30967 -8.36356
 4.45 4.40  0.729  0.728  0.730  0.736  0.748 15.50804 15.50976 -8.16344
 4.45 4.60  0.913  0.912  0.914  0.920  0.930 15.70793 15.70987 -7.96331
 4.45 4.80  1.108  1.107  1.109  1.113  1.123 15.90776 15.91004 -7.76312
 4.45 5.00  1.308  1.307  1.309  1.313  1.321 16.10755 16.11025 -7.56288
 4.45 5.20  1.516  1.515  1.516  1.519  1.527 16.30724 16.31055 -7.36259
 4.45 5.40  1.726  1.726  1.726  1.730  1.735 16.50684 16.51095 -7.16221
 4.45 5.60  1.940  1.940  1.941  1.943  1.948 16.70634 16.71149 -6.96171
 4.45 5.80  2.157  2.156  2.157  2.159  2.163 16.90569 16.91227 -6.76098
 4.45 6.00  2.375  2.374  2.375  2.376  2.379 17.10483 17.11327 -6.56004
 4.45 6.25  2.651  2.651  2.651  2.652  2.654 17.35301 17.36495 -6.30833
 4.45 6.50  2.927  2.927  2.927  2.928  2.930 17.60032 17.61732 -6.05586
 4.45 6.75  3.207  3.207  3.207  3.208  3.209 17.84642 17.87101 -5.80213
 4.45 7.00  3.484  3.484  3.484  3.485  3.485 18.09096 18.12613 -5.54699
 4.45 7.25  3.756  3.756  3.756  3.756  3.756 18.33330 18.38309 -5.29005
 4.45 7.50  4.015  4.015  4.015  4.015  4.015 18.57287 18.64217 -5.03100
 4.45 7.75  4.257  4.257  4.257  4.257  4.258 18.80821 18.90405 -4.76910
 4.45 8.00  4.487  4.487  4.487  4.487  4.487 19.03981 19.16850 -4.50459
 4.50-2.00 -0.446 -0.446 -0.446 -0.445 -0.443  9.07737  9.03981-14.63339
 4.50-1.50 -0.444 -0.444 -0.444 -0.442 -0.439  9.57726  9.53970-14.13342
 4.50-1.00 -0.441 -0.441 -0.441 -0.439 -0.436 10.07737 10.03981-13.63339
 4.50-0.50 -0.438 -0.438 -0.437 -0.436 -0.432 10.57715 10.53970-13.13342
 4.50 0.00 -0.434 -0.435 -0.434 -0.432 -0.427 11.07700 11.03981-12.63320
 4.50 0.50 -0.427 -0.429 -0.427 -0.425 -0.419 11.57692 11.54008-12.13312
 4.50 1.00 -0.415 -0.415 -0.415 -0.411 -0.404 12.07664 12.04060-11.63246
 4.50 1.25 -0.404 -0.405 -0.403 -0.400 -0.392 12.32604 12.29119-11.38191
 4.50 1.50 -0.388 -0.389 -0.388 -0.383 -0.375 12.57507 12.54208-11.13112
 4.50 1.75 -0.365 -0.366 -0.365 -0.360 -0.350 12.82368 12.79347-10.87971
 4.50 2.00 -0.333 -0.335 -0.333 -0.328 -0.317 13.07188 13.04532-10.62782
 4.50 2.25 -0.293 -0.294 -0.292 -0.286 -0.274 13.31951 13.29790-10.37526
 4.50 2.50 -0.243 -0.245 -0.242 -0.236 -0.223 13.56714 13.55047-10.12269
 4.50 2.75 -0.185 -0.188 -0.185 -0.178 -0.164 13.81482 13.80298 -9.87024
 4.50 3.00 -0.118 -0.119 -0.117 -0.109 -0.094 14.06258 14.05538 -9.61798
 4.50 3.20 -0.055 -0.057 -0.054 -0.046 -0.030 14.26137 14.25653 -9.41677
 4.50 3.40  0.018  0.016  0.020  0.028  0.043 14.46041 14.45741 -9.21581
 4.50 3.60  0.105  0.103  0.105  0.114  0.130 14.65971 14.65801 -9.01512
 4.50 3.80  0.207  0.205  0.207  0.215  0.231 14.85918 14.85846 -8.81459
 4.50 4.00  0.325  0.323  0.326  0.333  0.348 15.05881 15.05881 -8.61422
 4.50 4.20  0.463  0.462  0.465  0.471  0.484 15.25862 15.25908 -8.41400
 4.50 4.40  0.618  0.616  0.618  0.624  0.636 15.45844 15.45932 -8.21379
 4.50 4.60  0.788  0.786  0.789  0.793  0.803 15.65821 15.65953 -8.01357
 4.50 4.80  0.971  0.970  0.972  0.976  0.985 15.85794 15.85974 -7.81336
 4.50 5.00  1.162  1.161  1.162  1.166  1.173 16.05767 16.05994 -7.61315
 4.50 5.20  1.365  1.364  1.365  1.368  1.375 16.25746 16.26016 -7.41293
 4.50 5.40  1.571  1.570  1.571  1.574  1.579 16.45725 16.46039 -7.21272
 4.50 5.60  1.782  1.781  1.782  1.784  1.789 16.65700 16.66065 -7.01245
 4.50 5.80  1.997  1.997  1.997  1.999  2.003 16.85662 16.86101 -6.81205
 4.50 6.00  2.214  2.213  2.214  2.215  2.218 17.05614 17.06145 -6.61154
 4.50 6.25  2.489  2.488  2.489  2.490  2.492 17.30532 17.31228 -6.36075
 4.50 6.50  2.763  2.763  2.763  2.764  2.766 17.55413 17.56348 -6.10964
 4.50 6.75  3.045  3.045  3.045  3.046  3.048 17.80229 17.81525 -5.85783
 4.50 7.00  3.329  3.329  3.329  3.329  3.330 18.04961 18.06782 -5.60520
 4.50 7.25  3.611  3.611  3.611  3.612  3.612 18.29552 18.32175 -5.35133
 4.50 7.50  3.890  3.890  3.890  3.890  3.890 18.53970 18.57726 -5.09593
 4.50 7.75  4.157  4.157  4.157  4.157  4.157 18.78106 18.83503 -4.83820
 4.50 8.00  4.409  4.408  4.409  4.409  4.409 19.01995 19.09482 -4.57840
 4.55-2.00 -0.447 -0.447 -0.447 -0.446 -0.443  9.02735  8.98976-14.68340
 4.55-1.50 -0.445 -0.445 -0.445 -0.444 -0.442  9.52724  9.48968-14.18343
 4.55-1.00 -0.443 -0.443 -0.443 -0.441 -0.438 10.02735  9.98976-13.68340
 4.55-0.50 -0.439 -0.439 -0.438 -0.437 -0.434 10.52724 10.48968-13.18343
 4.55 0.00 -0.434 -0.435 -0.434 -0.432 -0.428 11.02735 10.98981-12.68340
 4.55 0.50 -0.428 -0.429 -0.428 -0.425 -0.421 11.52711 11.48982-12.18336
 4.55 1.00 -0.419 -0.419 -0.418 -0.416 -0.409 12.02694 11.98994-11.68319
 4.55 1.25 -0.411 -0.412 -0.411 -0.408 -0.401 12.27696 12.24001-11.43314
 4.55 1.50 -0.401 -0.402 -0.400 -0.397 -0.389 12.52699 12.49010-11.18310
 4.55 1.75 -0.385 -0.386 -0.385 -0.381 -0.372 12.77684 12.74029-10.93290
 4.55 2.00 -0.362 -0.363 -0.362 -0.357 -0.348 13.02653 12.99061-10.68256
 4.55 2.25 -0.328 -0.329 -0.327 -0.322 -0.312 13.27605 13.24113-10.43207
 4.55 2.50 -0.281 -0.282 -0.280 -0.275 -0.263 13.52530 13.49192-10.18131
 4.55 2.75 -0.219 -0.220 -0.218 -0.211 -0.199 13.77409 13.74320 -9.92999
 4.55 3.00 -0.142 -0.143 -0.141 -0.134 -0.121 14.02243 13.99493 -9.67820
 4.55 3.20 -0.071 -0.072 -0.070 -0.063 -0.049 14.22049 14.19694 -9.47622
 4.55 3.40  0.006  0.005  0.008  0.015  0.029 14.41856 14.39896 -9.27422
 4.55 3.60  0.092  0.090  0.093  0.101  0.115 14.61663 14.60096 -9.07220
 4.55 3.80  0.187  0.186  0.188  0.196  0.211 14.81472 14.80289 -8.87019
 4.55 4.00  0.294  0.293  0.295  0.303  0.318 15.01284 15.00475 -8.66817
 4.55 4.20  0.417  0.415  0.418  0.425  0.439 15.21144 15.20618 -8.46682
 4.55 4.40  0.554  0.552  0.554  0.561  0.574 15.41033 15.40736 -8.26575
 4.55 4.60  0.706  0.706  0.707  0.714  0.724 15.60957 15.60826 -8.06499
 4.55 4.80  0.875  0.874  0.875  0.880  0.889 15.80903 15.80895 -7.86440
 4.55 5.00  1.053  1.052  1.053  1.057  1.065 16.00860 16.00945 -7.66394
 4.55 5.20  1.245  1.244  1.245  1.248  1.255 16.20824 16.20975 -7.46359
 4.55 5.40  1.442  1.442  1.442  1.445  1.450 16.40789 16.41002 -7.26326
 4.55 5.60  1.646  1.646  1.646  1.649  1.652 16.60756 16.61026 -7.06295
 4.55 5.80  1.856  1.856  1.856  1.858  1.862 16.80723 16.81049 -6.86265
 4.55 6.00  2.068  2.067  2.068  2.069  2.072 17.00690 17.01073 -6.66234
 4.55 6.25  2.339  2.339  2.339  2.340  2.342 17.25636 17.26126 -6.41180
 4.55 6.50  2.611  2.611  2.611  2.611  2.613 17.50570 17.51202 -6.16109
 4.55 6.75  2.887  2.887  2.887  2.888  2.889 17.75477 17.76307 -5.91011
 4.55 7.00  3.168  3.168  3.168  3.169  3.169 18.00346 18.01452 -5.65876
 4.55 7.25  3.453  3.453  3.453  3.453  3.453 18.25138 18.26650 -5.40677
 4.55 7.50  3.736  3.736  3.736  3.736  3.737 18.49831 18.51930 -5.15391
 4.55 7.75  4.015  4.015  4.015  4.015  4.015 18.74347 18.77383 -4.89943
 4.55 8.00  4.285  4.285  4.285  4.285  4.286 18.98713 19.02979 -4.64359
 4.60-2.00 -0.445 -0.445 -0.444 -0.444 -0.441  8.97727  8.93972-14.73353
 4.60-1.50 -0.444 -0.444 -0.444 -0.443 -0.440  9.47727  9.43965-14.23344
 4.60-1.00 -0.443 -0.443 -0.443 -0.442 -0.438  9.97727  9.93977-13.73330
 4.60-0.50 -0.441 -0.441 -0.441 -0.439 -0.436 10.47727 10.43981-13.23344
 4.60 0.00 -0.438 -0.438 -0.437 -0.436 -0.432 10.97727 10.93977-12.73330
 4.60 0.50 -0.433 -0.433 -0.433 -0.431 -0.426 11.47712 11.43981-12.23336
 4.60 1.00 -0.425 -0.425 -0.424 -0.422 -0.417 11.97717 11.93982-11.73330
 4.60 1.25 -0.419 -0.419 -0.418 -0.416 -0.409 12.22715 12.18981-11.48329
 4.60 1.50 -0.410 -0.412 -0.410 -0.407 -0.400 12.47712 12.43981-11.23329
 4.60 1.75 -0.400 -0.400 -0.399 -0.396 -0.388 12.72709 12.68989-10.98318
 4.60 2.00 -0.384 -0.385 -0.384 -0.379 -0.371 12.97704 12.93997-10.73306
 4.60 2.25 -0.361 -0.362 -0.360 -0.356 -0.347 13.22696 13.19005-10.48303
 4.60 2.50 -0.328 -0.329 -0.327 -0.322 -0.311 13.47683 13.44012-10.23299
 4.60 2.75 -0.280 -0.282 -0.279 -0.274 -0.262 13.72664 13.69037 -9.98276
 4.60 3.00 -0.216 -0.217 -0.215 -0.209 -0.196 13.97635 13.94077 -9.73236
 4.60 3.20 -0.150 -0.151 -0.149 -0.142 -0.128 14.17593 14.14120 -9.53194
 4.60 3.40 -0.070 -0.071 -0.069 -0.062 -0.048 14.37532 14.34180 -9.33135
 4.60 3.60  0.023  0.022  0.024  0.031  0.045 14.57450 14.54267 -9.13048
 4.60 3.80  0.130  0.129  0.130  0.138  0.151 14.77340 14.74389 -8.92924
 4.60 4.00  0.248  0.247  0.249  0.255  0.269 14.97202 14.94542 -8.72769
 4.60 4.20  0.378  0.376  0.379  0.384  0.397 15.17002 15.14748 -8.52565
 4.60 4.40  0.516  0.514  0.517  0.522  0.534 15.36802 15.34953 -8.32360
 4.60 4.60  0.663  0.661  0.663  0.669  0.679 15.56603 15.55158 -8.12156
 4.60 4.80  0.818  0.817  0.819  0.824  0.834 15.76410 15.75358 -7.91956
 4.60 5.00  0.983  0.982  0.983  0.987  0.996 15.96223 15.95554 -7.71760
 4.60 5.20  1.159  1.158  1.159  1.162  1.170 16.16084 16.15692 -7.51624
 4.60 5.40  1.342  1.341  1.342  1.345  1.351 16.35971 16.35803 -7.31513
 4.60 5.60  1.534  1.533  1.534  1.536  1.541 16.55891 16.55887 -7.11430
 4.60 5.80  1.733  1.733  1.733  1.735  1.739 16.75830 16.75954 -6.91364
 4.60 6.00  1.936  1.936  1.936  1.937  1.940 16.95775 16.96009 -6.71309
 4.60 6.25  2.199  2.198  2.199  2.200  2.202 17.20714 17.21065 -6.46253
 4.60 6.50  2.464  2.464  2.464  2.465  2.466 17.45652 17.46120 -6.21197
 4.60 6.75  2.729  2.729  2.729  2.730  2.731 17.70582 17.71191 -5.96127
 4.60 7.00  3.004  3.004  3.004  3.004  3.005 17.95502 17.96280 -5.71041
 4.60 7.25  3.282  3.282  3.282  3.282  3.283 18.20380 18.21396 -5.45923
 4.60 7.50  3.562  3.562  3.562  3.562  3.562 18.45209 18.46553 -5.20761
 4.60 7.75  3.841  3.840  3.841  3.841  3.841 18.69946 18.71808 -4.95508
 4.60 8.00  4.114  4.114  4.114  4.114  4.115 18.94606 18.97141 -4.70180
 4.65-2.00 -0.444 -0.444 -0.443 -0.442 -0.439  8.92732  8.88975-14.78331
 4.65-1.50 -0.442 -0.443 -0.442 -0.441 -0.437  9.42732  9.38970-14.28341
 4.65-1.00 -0.441 -0.441 -0.441 -0.440 -0.436  9.92727  9.88975-13.78331
 4.65-0.50 -0.440 -0.440 -0.440 -0.438 -0.435 10.42716 10.38970-13.28341
 4.65 0.00 -0.438 -0.438 -0.438 -0.436 -0.433 10.92727 10.88981-12.78331
 4.65 0.50 -0.435 -0.436 -0.435 -0.433 -0.430 11.42716 11.38970-12.28341
 4.65 1.00 -0.430 -0.431 -0.430 -0.428 -0.423 11.92722 11.88981-11.78331
 4.65 1.25 -0.426 -0.427 -0.426 -0.424 -0.419 12.17719 12.13984-11.53332
 4.65 1.50 -0.421 -0.422 -0.421 -0.419 -0.413 12.42716 12.38987-11.28333
 4.65 1.75 -0.414 -0.414 -0.414 -0.411 -0.405 12.67716 12.63990-11.03332
 4.65 2.00 -0.403 -0.404 -0.402 -0.400 -0.393 12.92717 12.88992-10.78331
 4.65 2.25 -0.388 -0.388 -0.387 -0.384 -0.376 13.17708 13.13990-10.53328
 4.65 2.50 -0.365 -0.366 -0.364 -0.361 -0.351 13.42700 13.38987-10.28325
 4.65 2.75 -0.332 -0.333 -0.332 -0.327 -0.316 13.67698 13.64001-10.03316
 4.65 3.00 -0.285 -0.286 -0.284 -0.279 -0.267 13.92696 13.89014 -9.78304
 4.65 3.20 -0.235 -0.236 -0.234 -0.228 -0.214 14.12688 14.09025 -9.58294
 4.65 3.40 -0.171 -0.172 -0.170 -0.163 -0.148 14.32676 14.29035 -9.38282
 4.65 3.60 -0.092 -0.093 -0.091 -0.084 -0.069 14.52658 14.49051 -9.18265
 4.65 3.80  0.002  0.001  0.003  0.010  0.027 14.72633 14.69080 -8.98237
 4.65 4.00  0.113  0.112  0.114  0.121  0.137 14.92598 14.89120 -8.78199
 4.65 4.20  0.242  0.240  0.243  0.250  0.265 15.12544 15.09178 -8.58143
 4.65 4.40  0.386  0.384  0.387  0.393  0.407 15.32469 15.29257 -8.38065
 4.65 4.60  0.545  0.543  0.545  0.551  0.564 15.52366 15.49368 -8.17953
 4.65 4.80  0.714  0.713  0.714  0.719  0.731 15.72229 15.69515 -7.97802
 4.65 5.00  0.889  0.888  0.889  0.894  0.903 15.92064 15.89691 -7.77625
 4.65 5.20  1.069  1.069  1.070  1.073  1.081 16.11851 16.09912 -7.57408
 4.65 5.40  1.251  1.251  1.252  1.254  1.261 16.31638 16.30133 -7.37192
 4.65 5.60  1.435  1.434  1.435  1.438  1.443 16.51431 16.50345 -7.16983
 4.65 5.80  1.622  1.622  1.623  1.625  1.629 16.71246 16.70534 -6.96795
 4.65 6.00  1.813  1.813  1.813  1.814  1.818 16.91078 16.90704 -6.76624
 4.65 6.25  2.060  2.060  2.060  2.062  2.064 17.15928 17.15855 -6.51471
 4.65 6.50  2.312  2.312  2.312  2.313  2.315 17.40807 17.40977 -6.26344
 4.65 6.75  2.567  2.567  2.567  2.567  2.569 17.65715 17.66068 -6.01243
 4.65 7.00  2.826  2.825  2.826  2.826  2.828 17.90623 17.91158 -5.76145
 4.65 7.25  3.094  3.093  3.094  3.094  3.095 18.15524 18.16256 -5.51051
 4.65 7.50  3.363  3.363  3.363  3.363  3.364 18.40415 18.41364 -5.25956
 4.65 7.75  3.633  3.633  3.633  3.633  3.634 18.65251 18.66525 -5.00798
 4.65 8.00  3.901  3.901  3.901  3.902  3.902 18.90048 18.91724 -4.75597
 4.70-2.00 -0.444 -0.443 -0.443 -0.442 -0.439  8.87731  8.83973-14.83357
 4.70-1.50 -0.441 -0.442 -0.441 -0.440 -0.436  9.37731  9.33965-14.33348
 4.70-1.00 -0.439 -0.440 -0.439 -0.438 -0.434  9.87726  9.83973-13.83327
 4.70-0.50 -0.438 -0.438 -0.438 -0.436 -0.433 10.37731 10.33965-13.33348
 4.70 0.00 -0.437 -0.436 -0.436 -0.435 -0.430 10.87726 10.83979-12.83327
 4.70 0.50 -0.434 -0.435 -0.434 -0.432 -0.428 11.37712 11.33965-12.33339
 4.70 1.00 -0.432 -0.431 -0.431 -0.430 -0.425 11.87720 11.83979-11.83327
 4.70 1.25 -0.429 -0.430 -0.429 -0.427 -0.422 12.12716 12.08983-11.58333
 4.70 1.50 -0.426 -0.426 -0.426 -0.423 -0.419 12.37712 12.33985-11.33339
 4.70 1.75 -0.422 -0.422 -0.421 -0.419 -0.414 12.62713 12.58985-11.08333
 4.70 2.00 -0.416 -0.416 -0.415 -0.413 -0.406 12.87714 12.83986-10.83327
 4.70 2.25 -0.406 -0.407 -0.406 -0.403 -0.396 13.12714 13.08985-10.58328
 4.70 2.50 -0.392 -0.393 -0.392 -0.389 -0.381 13.37712 13.33985-10.33329
 4.70 2.75 -0.371 -0.372 -0.371 -0.367 -0.359 13.62708 13.58995-10.08329
 4.70 3.00 -0.341 -0.342 -0.340 -0.336 -0.326 13.87703 13.84004 -9.83327
 4.70 3.20 -0.306 -0.307 -0.305 -0.301 -0.290 14.07699 14.04005 -9.63318
 4.70 3.40 -0.260 -0.261 -0.259 -0.254 -0.241 14.27696 14.24005 -9.43307
 4.70 3.60 -0.201 -0.201 -0.200 -0.194 -0.180 14.47692 14.44009 -9.23295
 4.70 3.80 -0.125 -0.127 -0.124 -0.118 -0.103 14.67684 14.64021 -9.03282
 4.70 4.00 -0.034 -0.035 -0.033 -0.026 -0.010 14.87674 14.84036 -8.83268
 4.70 4.20  0.074  0.073  0.075  0.083  0.100 15.07658 15.04052 -8.63255
 4.70 4.40  0.201  0.199  0.202  0.209  0.227 15.27635 15.24072 -8.43242
 4.70 4.60  0.344  0.343  0.345  0.353  0.370 15.47606 15.44100 -8.23222
 4.70 4.80  0.503  0.502  0.504  0.511  0.528 15.67568 15.64142 -8.03180
 4.70 5.00  0.676  0.674  0.676  0.683  0.697 15.87518 15.84198 -7.83121
 4.70 5.20  0.859  0.859  0.860  0.866  0.879 16.07440 16.04281 -7.63036
 4.70 5.40  1.052  1.050  1.052  1.056  1.067 16.27335 16.24393 -7.42923
 4.70 5.60  1.248  1.248  1.249  1.252  1.260 16.47192 16.44548 -7.22764
 4.70 5.80  1.447  1.446  1.447  1.450  1.457 16.67015 16.64740 -7.02570
 4.70 6.00  1.645  1.645  1.645  1.647  1.653 16.86817 16.84948 -6.82362
 4.70 6.25  1.892  1.892  1.892  1.894  1.898 17.11542 17.10228 -6.57087
 4.70 6.50  2.138  2.138  2.138  2.140  2.142 17.36267 17.35507 -6.31813
 4.70 6.75  2.386  2.386  2.386  2.388  2.389 17.61046 17.60731 -6.06584
 4.70 7.00  2.621  2.621  2.622  2.622  2.623 17.85860 17.85920 -5.81389
 4.70 7.25  2.876  2.876  2.876  2.876  2.878 18.10722 18.11056 -5.56256
 4.70 7.50  3.132  3.132  3.132  3.132  3.133 18.35583 18.36192 -5.31122
 4.70 7.75  3.390  3.390  3.390  3.391  3.392 18.60441 18.61332 -5.05978
 4.70 8.00  3.649  3.649  3.649  3.649  3.649 18.85297 18.86475 -4.80827
 4.75-2.00 -0.444 -0.444 -0.443 -0.442 -0.439  8.82730  8.78972-14.88339
 4.75-1.50 -0.443 -0.443 -0.442 -0.441 -0.437  9.32715  9.28981-14.38342
 4.75-1.00 -0.441 -0.441 -0.441 -0.439 -0.435  9.82730  9.78972-13.88339
 4.75-0.50 -0.438 -0.439 -0.438 -0.437 -0.433 10.32716 10.28981-13.38342
 4.75 0.00 -0.436 -0.436 -0.436 -0.434 -0.430 10.82724 10.78979-12.88339
 4.75 0.50 -0.433 -0.433 -0.432 -0.431 -0.426 11.32716 11.28981-12.38342
 4.75 1.00 -0.430 -0.430 -0.430 -0.428 -0.422 11.82724 11.78979-11.88339
 4.75 1.25 -0.428 -0.428 -0.428 -0.425 -0.420 12.07720 12.03980-11.63341
 4.75 1.50 -0.425 -0.426 -0.425 -0.423 -0.418 12.32716 12.28981-11.38342
 4.75 1.75 -0.422 -0.422 -0.422 -0.420 -0.414 12.57717 12.53984-11.13341
 4.75 2.00 -0.419 -0.419 -0.418 -0.416 -0.410 12.82718 12.78986-10.88339
 4.75 2.25 -0.413 -0.413 -0.413 -0.410 -0.404 13.07717 13.03984-10.63336
 4.75 2.50 -0.405 -0.406 -0.405 -0.402 -0.396 13.32715 13.28981-10.38331
 4.75 2.75 -0.393 -0.393 -0.392 -0.390 -0.383 13.57714 13.53991-10.13319
 4.75 3.00 -0.375 -0.375 -0.375 -0.372 -0.364 13.82711 13.79000 -9.88306
 4.75 3.20 -0.353 -0.354 -0.353 -0.350 -0.341 14.02705 13.99002 -9.68308
 4.75 3.40 -0.324 -0.325 -0.324 -0.320 -0.310 14.22698 14.19003 -9.48310
 4.75 3.60 -0.284 -0.285 -0.283 -0.279 -0.269 14.42693 14.39007 -9.28311
 4.75 3.80 -0.231 -0.233 -0.231 -0.226 -0.214 14.62689 14.59014 -9.08309
 4.75 4.00 -0.164 -0.165 -0.164 -0.158 -0.144 14.82685 14.79022 -8.88306
 4.75 4.20 -0.080 -0.081 -0.079 -0.073 -0.057 15.02681 14.99023 -8.68297
 4.75 4.40  0.022  0.021  0.023  0.029  0.046 15.22677 15.19025 -8.48286
 4.75 4.60  0.141  0.141  0.142  0.149  0.167 15.42669 15.39033 -8.28273
 4.75 4.80  0.279  0.278  0.281  0.287  0.305 15.62654 15.59053 -8.08258
 4.75 5.00  0.432  0.431  0.433  0.441  0.459 15.82633 15.79078 -7.88240
 4.75 5.20  0.600  0.599  0.601  0.608  0.625 16.02608 15.99105 -7.68213
 4.75 5.40  0.779  0.778  0.780  0.786  0.802 16.22573 16.19139 -7.48176
 4.75 5.60  0.967  0.966  0.967  0.973  0.987 16.42526 16.39187 -7.28123
 4.75 5.80  1.162  1.161  1.163  1.167  1.179 16.62461 16.59261 -7.08044
 4.75 6.00  1.362  1.361  1.362  1.366  1.377 16.82374 16.79358 -6.87943
 4.75 6.25  1.617  1.616  1.617  1.621  1.628 17.07207 17.04533 -6.62774
 4.75 6.50  1.876  1.876  1.876  1.878  1.884 17.31994 17.29754 -6.37562
 4.75 6.75  2.134  2.134  2.134  2.135  2.139 17.56719 17.55043 -6.12280
 4.75 7.00  2.378  2.378  2.378  2.379  2.382 17.81445 17.80332 -5.86999
 4.75 7.25  2.629  2.629  2.629  2.630  2.632 18.06177 18.05604 -5.61725
 4.75 7.50  2.879  2.879  2.879  2.880  2.881 18.30920 18.30857 -5.36462
 4.75 7.75  3.128  3.128  3.128  3.128  3.129 18.55713 18.56065 -5.11250
 4.75 8.00  3.376  3.376  3.376  3.376  3.377 18.80543 18.81238 -4.86075
 4.80-2.00 -0.443 -0.443 -0.443 -0.442 -0.439  8.77728  8.73973-14.93330
 4.80-1.50 -0.443 -0.443 -0.442 -0.441 -0.437  9.27715  9.23980-14.43344
 4.80-1.00 -0.441 -0.442 -0.441 -0.440 -0.436  9.77728  9.73973-13.93330
 4.80-0.50 -0.440 -0.440 -0.440 -0.438 -0.434 10.27715 10.23980-13.43344
 4.80 0.00 -0.437 -0.438 -0.437 -0.436 -0.432 10.77728 10.73973-12.93330
 4.80 0.50 -0.435 -0.435 -0.435 -0.433 -0.429 11.27715 11.23980-12.43344
 4.80 1.00 -0.431 -0.431 -0.431 -0.429 -0.424 11.77721 11.73981-11.93330
 4.80 1.25 -0.428 -0.429 -0.428 -0.426 -0.421 12.02718 11.98981-11.68331
 4.80 1.50 -0.425 -0.425 -0.425 -0.423 -0.417 12.27715 12.23980-11.43333
 4.80 1.75 -0.422 -0.422 -0.421 -0.420 -0.414 12.52718 12.48981-11.18331
 4.80 2.00 -0.418 -0.418 -0.418 -0.415 -0.409 12.77721 12.73981-10.93330
 4.80 2.25 -0.413 -0.414 -0.413 -0.411 -0.404 13.02718 12.98981-10.68331
 4.80 2.50 -0.408 -0.408 -0.407 -0.405 -0.397 13.27715 13.23980-10.43333
 4.80 2.75 -0.399 -0.400 -0.399 -0.396 -0.389 13.52714 13.48988-10.18332
 4.80 3.00 -0.388 -0.389 -0.388 -0.385 -0.378 13.77714 13.73997 -9.93330
 4.80 3.20 -0.376 -0.376 -0.375 -0.372 -0.364 13.97705 13.94000 -9.73328
 4.80 3.40 -0.358 -0.359 -0.358 -0.355 -0.346 14.17696 14.14003 -9.53324
 4.80 3.60 -0.334 -0.334 -0.333 -0.330 -0.321 14.37692 14.34007 -9.33315
 4.80 3.80 -0.300 -0.301 -0.300 -0.296 -0.286 14.57692 14.54010 -9.13304
 4.80 4.00 -0.256 -0.256 -0.255 -0.251 -0.241 14.77692 14.74013 -8.93293
 4.80 4.20 -0.197 -0.197 -0.196 -0.192 -0.180 14.97683 14.94019 -8.73295
 4.80 4.40 -0.122 -0.124 -0.122 -0.117 -0.104 15.17674 15.14026 -8.53296
 4.80 4.60 -0.030 -0.032 -0.030 -0.024 -0.010 15.37668 15.34034 -8.33289
 4.80 4.80  0.079  0.077  0.079  0.085  0.101 15.57665 15.54043 -8.13272
 4.80 5.00  0.206  0.205  0.206  0.213  0.230 15.77663 15.74052 -7.93256
 4.80 5.20  0.352  0.350  0.352  0.359  0.376 15.97650 15.94062 -7.73249
 4.80 5.40  0.513  0.511  0.513  0.520  0.536 16.17633 16.14074 -7.53242
 4.80 5.60  0.685  0.684  0.686  0.692  0.708 16.37614 16.34092 -7.33224
 4.80 5.80  0.868  0.866  0.868  0.874  0.889 16.57590 16.54123 -7.13189
 4.80 6.00  1.058  1.057  1.059  1.064  1.077 16.77561 16.74163 -6.93144
 4.80 6.25  1.303  1.301  1.303  1.307  1.318 17.02503 16.99222 -6.68083
 4.80 6.50  1.552  1.552  1.552  1.556  1.565 17.27416 17.24304 -6.43004
 4.80 6.75  1.808  1.807  1.808  1.811  1.818 17.52279 17.49454 -6.17860
 4.80 7.00  2.066  2.065  2.066  2.069  2.074 17.77093 17.74656 -5.92665
 4.80 7.25  2.321  2.321  2.321  2.323  2.327 18.01831 17.99926 -5.67400
 4.80 7.50  2.580  2.580  2.580  2.582  2.584 18.26553 18.25212 -5.42113
 4.80 7.75  2.833  2.833  2.833  2.834  2.836 18.51268 18.50505 -5.16817
 4.80 8.00  3.083  3.083  3.083  3.084  3.085 18.75974 18.75808 -4.91507
 4.85-2.00 -0.443 -0.443 -0.443 -0.442 -0.439  8.72730  8.68975-14.98339
 4.85-1.50 -0.442 -0.442 -0.442 -0.440 -0.437  9.22737  9.18977-14.48347
 4.85-1.00 -0.440 -0.441 -0.440 -0.439 -0.435  9.72730  9.68975-13.98339
 4.85-0.50 -0.439 -0.439 -0.439 -0.437 -0.434 10.22712 10.18977-13.48347
 4.85 0.00 -0.438 -0.438 -0.438 -0.436 -0.433 10.72730 10.68975-12.98339
 4.85 0.50 -0.436 -0.436 -0.436 -0.434 -0.430 11.22711 11.18977-12.48347
 4.85 1.00 -0.433 -0.434 -0.433 -0.432 -0.427 11.72722 11.68975-11.98338
 4.85 1.25 -0.432 -0.432 -0.431 -0.430 -0.425 11.97717 11.93976-11.73335
 4.85 1.50 -0.429 -0.430 -0.429 -0.427 -0.422 12.22712 12.18977-11.48333
 4.85 1.75 -0.426 -0.426 -0.426 -0.424 -0.419 12.47717 12.43981-11.23336
 4.85 2.00 -0.423 -0.422 -0.422 -0.420 -0.415 12.72722 12.68984-10.98339
 4.85 2.25 -0.417 -0.418 -0.417 -0.415 -0.409 12.97717 12.93981-10.73336
 4.85 2.50 -0.411 -0.411 -0.411 -0.408 -0.402 13.22712 13.18977-10.48333
 4.85 2.75 -0.402 -0.403 -0.402 -0.399 -0.393 13.47713 13.43985-10.23336
 4.85 3.00 -0.393 -0.393 -0.392 -0.390 -0.382 13.72713 13.68993 -9.98339
 4.85 3.20 -0.383 -0.383 -0.382 -0.379 -0.371 13.92713 13.88999 -9.78332
 4.85 3.40 -0.371 -0.371 -0.370 -0.367 -0.359 14.12712 14.09003 -9.58324
 4.85 3.60 -0.354 -0.355 -0.354 -0.351 -0.342 14.32709 14.29007 -9.38315
 4.85 3.80 -0.333 -0.333 -0.332 -0.329 -0.320 14.52703 14.49009 -9.18306
 4.85 4.00 -0.305 -0.305 -0.304 -0.301 -0.291 14.72697 14.69011 -8.98297
 4.85 4.20 -0.266 -0.267 -0.266 -0.261 -0.252 14.92693 14.89009 -8.78301
 4.85 4.40 -0.216 -0.217 -0.215 -0.212 -0.201 15.12688 15.09006 -8.58305
 4.85 4.60 -0.151 -0.152 -0.150 -0.147 -0.135 15.32683 15.29012 -8.38307
 4.85 4.80 -0.070 -0.071 -0.070 -0.065 -0.052 15.52678 15.49024 -8.18304
 4.85 5.00  0.027  0.026  0.027  0.032  0.045 15.72673 15.69037 -7.98297
 4.85 5.20  0.144  0.143  0.145  0.150  0.163 15.92657 15.89047 -7.78280
 4.85 5.40  0.278  0.277  0.279  0.284  0.299 16.12642 16.09056 -7.58263
 4.85 5.60  0.430  0.429  0.430  0.436  0.450 16.32631 16.29067 -7.38246
 4.85 5.80  0.597  0.595  0.597  0.602  0.616 16.52623 16.49082 -7.18230
 4.85 6.00  0.774  0.773  0.775  0.780  0.793 16.72616 16.69099 -6.98213
 4.85 6.25  1.008  1.007  1.008  1.013  1.025 16.97579 16.94130 -6.73186
 4.85 6.50  1.248  1.247  1.249  1.252  1.263 17.22531 17.19173 -6.48149
 4.85 6.75  1.492  1.492  1.493  1.496  1.505 17.47478 17.44234 -6.23091
 4.85 7.00  1.745  1.744  1.745  1.749  1.755 17.72411 17.69320 -5.98005
 4.85 7.25  1.994  1.994  1.994  1.997  2.003 17.97287 17.94445 -5.72873
 4.85 7.50  2.251  2.251  2.251  2.253  2.258 18.22116 18.19618 -5.47691
 4.85 7.75  2.506  2.506  2.506  2.508  2.511 18.46889 18.44860 -5.22446
 4.85 8.00  2.764  2.763  2.764  2.764  2.767 18.71609 18.70165 -4.97143
 4.90-2.00 -0.444 -0.444 -0.444 -0.443 -0.440  8.67733  8.63969-15.03344
 4.90-1.50 -0.443 -0.443 -0.443 -0.442 -0.438  9.17725  9.13956-14.53343
 4.90-1.00 -0.441 -0.441 -0.441 -0.440 -0.436  9.67733  9.63979-14.03344
 4.90-0.50 -0.439 -0.439 -0.439 -0.437 -0.434 10.17725 10.13956-13.53343
 4.90 0.00 -0.437 -0.437 -0.437 -0.436 -0.432 10.67724 10.63978-13.03339
 4.90 0.50 -0.435 -0.435 -0.435 -0.433 -0.429 11.17725 11.13988-12.53343
 4.90 1.00 -0.433 -0.433 -0.433 -0.431 -0.427 11.67724 11.63979-12.03339
 4.90 1.25 -0.432 -0.432 -0.431 -0.430 -0.425 11.92725 11.88983-11.78341
 4.90 1.50 -0.431 -0.431 -0.430 -0.429 -0.423 12.17725 12.13988-11.53343
 4.90 1.75 -0.429 -0.429 -0.429 -0.427 -0.421 12.42725 12.38983-11.28339
 4.90 2.00 -0.426 -0.426 -0.426 -0.424 -0.419 12.67724 12.63979-11.03334
 4.90 2.25 -0.423 -0.423 -0.422 -0.420 -0.415 12.92725 12.88983-10.78331
 4.90 2.50 -0.418 -0.419 -0.418 -0.416 -0.410 13.17725 13.13988-10.53328
 4.90 2.75 -0.412 -0.412 -0.411 -0.409 -0.403 13.42721 13.38988-10.28326
 4.90 3.00 -0.402 -0.403 -0.402 -0.400 -0.394 13.67715 13.63988-10.03325
 4.90 3.20 -0.393 -0.393 -0.393 -0.391 -0.384 13.87707 13.83988 -9.83326
 4.90 3.40 -0.382 -0.382 -0.381 -0.379 -0.371 14.07700 14.03988 -9.63327
 4.90 3.60 -0.367 -0.368 -0.367 -0.364 -0.356 14.27698 14.23989 -9.43325
 4.90 3.80 -0.349 -0.350 -0.349 -0.346 -0.338 14.47702 14.43993 -9.23318
 4.90 4.00 -0.327 -0.328 -0.327 -0.324 -0.315 14.67706 14.63998 -9.03311
 4.90 4.20 -0.300 -0.300 -0.299 -0.296 -0.286 14.87703 14.84007 -8.83312
 4.90 4.40 -0.264 -0.265 -0.264 -0.260 -0.250 15.07699 15.04015 -8.63313
 4.90 4.60 -0.219 -0.219 -0.218 -0.215 -0.204 15.27692 15.24021 -8.43308
 4.90 4.80 -0.161 -0.162 -0.161 -0.156 -0.146 15.47685 15.44025 -8.23298
 4.90 5.00 -0.090 -0.091 -0.090 -0.086 -0.074 15.67678 15.64028 -8.03287
 4.90 5.20 -0.002 -0.003 -0.001  0.003  0.015 15.87674 15.84037 -7.83280
 4.90 5.40  0.103  0.102  0.104  0.108  0.121 16.07669 16.04046 -7.63273
 4.90 5.60  0.228  0.226  0.228  0.232  0.245 16.27662 16.24056 -7.43264
 4.90 5.80  0.371  0.369  0.371  0.375  0.387 16.47649 16.44066 -7.23253
 4.90 6.00  0.528  0.527  0.528  0.532  0.544 16.67633 16.64078 -7.03241
 4.90 6.25  0.745  0.745  0.746  0.750  0.761 16.92607 16.89094 -6.78220
 4.90 6.50  0.977  0.976  0.977  0.981  0.991 17.17580 17.14114 -6.53195
 4.90 6.75  1.210  1.209  1.210  1.214  1.222 17.42553 17.39149 -6.28162
 4.90 7.00  1.458  1.457  1.458  1.461  1.468 17.67523 17.64197 -6.03119
 4.90 7.25  1.704  1.703  1.704  1.706  1.713 17.92463 17.89255 -5.78059
 4.90 7.50  1.954  1.954  1.954  1.956  1.962 18.17377 18.14333 -5.52974
 4.90 7.75  2.203  2.203  2.203  2.204  2.208 18.42254 18.39469 -5.27841
 4.90 8.00  2.456  2.455  2.456  2.457  2.460 18.67099 18.64650 -5.02669
 4.95-2.00 -0.445 -0.446 -0.445 -0.445 -0.442  8.62726  8.58973-15.08344
 4.95-1.50 -0.445 -0.445 -0.445 -0.444 -0.441  9.12710  9.08955-14.58353
 4.95-1.00 -0.443 -0.443 -0.443 -0.442 -0.440  9.62726  9.58973-14.08344
 4.95-0.50 -0.442 -0.442 -0.442 -0.441 -0.437 10.12711 10.08955-13.58353
 4.95 0.00 -0.439 -0.439 -0.439 -0.437 -0.434 10.62726 10.58973-13.08339
 4.95 0.50 -0.436 -0.436 -0.436 -0.434 -0.430 11.12710 11.08955-12.58336
 4.95 1.00 -0.433 -0.433 -0.432 -0.431 -0.426 11.62726 11.58973-12.08339
 4.95 1.25 -0.431 -0.431 -0.431 -0.429 -0.424 11.87718 11.83982-11.83337
 4.95 1.50 -0.429 -0.430 -0.429 -0.427 -0.422 12.12710 12.08991-11.58336
 4.95 1.75 -0.427 -0.427 -0.427 -0.425 -0.420 12.37718 12.33987-11.33335
 4.95 2.00 -0.425 -0.425 -0.424 -0.423 -0.418 12.62726 12.58984-11.08334
 4.95 2.25 -0.423 -0.423 -0.422 -0.420 -0.415 12.87718 12.83987-10.83335
 4.95 2.50 -0.420 -0.420 -0.419 -0.417 -0.412 13.12711 13.08991-10.58336
 4.95 2.75 -0.416 -0.416 -0.415 -0.414 -0.407 13.37713 13.33987-10.33332
 4.95 3.00 -0.410 -0.411 -0.410 -0.408 -0.402 13.62716 13.58984-10.08328
 4.95 3.20 -0.403 -0.404 -0.403 -0.401 -0.395 13.82714 13.78987 -9.88325
 4.95 3.40 -0.395 -0.395 -0.395 -0.393 -0.386 14.02712 13.98989 -9.68321
 4.95 3.60 -0.384 -0.384 -0.384 -0.381 -0.374 14.22710 14.18992 -9.48319
 4.95 3.80 -0.369 -0.370 -0.369 -0.366 -0.359 14.42708 14.38994 -9.28318
 4.95 4.00 -0.350 -0.351 -0.350 -0.348 -0.341 14.62706 14.58995 -9.08318
 4.95 4.20 -0.326 -0.327 -0.326 -0.323 -0.315 14.82695 14.78993 -8.88312
 4.95 4.40 -0.297 -0.298 -0.297 -0.294 -0.285 15.02684 14.98992 -8.68306
 4.95 4.60 -0.260 -0.260 -0.260 -0.257 -0.248 15.22680 15.18996 -8.48302
 4.95 4.80 -0.215 -0.216 -0.215 -0.212 -0.202 15.42682 15.39007 -8.28299
 4.95 5.00 -0.160 -0.160 -0.159 -0.156 -0.145 15.62685 15.59017 -8.08297
 4.95 5.20 -0.092 -0.092 -0.092 -0.088 -0.077 15.82685 15.79021 -7.88293
 4.95 5.40 -0.010 -0.012 -0.010 -0.006  0.005 16.02681 15.99024 -7.68289
 4.95 5.60  0.087  0.087  0.087  0.092  0.103 16.22671 16.19033 -7.48280
 4.95 5.80  0.204  0.203  0.204  0.208  0.219 16.42658 16.39048 -7.28268
 4.95 6.00  0.336  0.336  0.337  0.341  0.351 16.62644 16.59062 -7.08255
 4.95 6.25  0.529  0.529  0.530  0.533  0.543 16.87629 16.84079 -6.83238
 4.95 6.50  0.743  0.742  0.743  0.746  0.755 17.12613 17.09096 -6.58220
 4.95 6.75  0.961  0.961  0.962  0.964  0.972 17.37595 17.34121 -6.33198
 4.95 7.00  1.202  1.201  1.202  1.204  1.211 17.62572 17.59151 -6.08171
 4.95 7.25  1.445  1.445  1.446  1.447  1.454 17.87534 17.84189 -5.83135
 4.95 7.50  1.693  1.693  1.693  1.695  1.701 18.12483 18.09237 -5.58087
 4.95 7.75  1.939  1.939  1.939  1.941  1.945 18.37420 18.34307 -5.33016
 4.95 8.00  2.189  2.188  2.189  2.190  2.193 18.62346 18.59395 -5.07925
 5.00-2.00 -0.446 -0.445 -0.445 -0.445 -0.443  8.57726  8.53970-15.13342
 5.00-1.50 -0.445 -0.445 -0.445 -0.445 -0.443  9.07737  9.03981-14.63339
 5.00-1.00 -0.445 -0.445 -0.445 -0.444 -0.442  9.57726  9.53970-14.13342
 5.00-0.50 -0.444 -0.444 -0.444 -0.443 -0.441 10.07737 10.03981-13.63339
 5.00 0.00 -0.443 -0.442 -0.442 -0.442 -0.440 10.57726 10.53970-13.13342
 5.00 0.50 -0.440 -0.441 -0.440 -0.439 -0.436 11.07737 11.03981-12.63339
 5.00 1.00 -0.437 -0.437 -0.436 -0.435 -0.432 11.57726 11.53983-12.13342
 5.00 1.25 -0.435 -0.435 -0.435 -0.433 -0.429 11.82732 11.78982-11.88341
 5.00 1.50 -0.432 -0.432 -0.432 -0.431 -0.426 12.07737 12.03981-11.63339
 5.00 1.75 -0.430 -0.430 -0.430 -0.428 -0.423 12.32734 12.28982-11.38338
 5.00 2.00 -0.426 -0.426 -0.426 -0.424 -0.419 12.57726 12.53983-11.13336
 5.00 2.25 -0.423 -0.424 -0.423 -0.421 -0.416 12.82713 12.78982-10.88338
 5.00 2.50 -0.420 -0.420 -0.419 -0.418 -0.411 13.07701 13.03981-10.63339
 5.00 2.75 -0.416 -0.416 -0.416 -0.413 -0.407 13.32708 13.28982-10.38335
 5.00 3.00 -0.411 -0.411 -0.410 -0.408 -0.403 13.57715 13.53983-10.13330
 5.00 3.20 -0.406 -0.407 -0.406 -0.404 -0.397 13.77709 13.73982 -9.93326
 5.00 3.40 -0.401 -0.401 -0.400 -0.398 -0.391 13.97703 13.93981 -9.73322
 5.00 3.60 -0.393 -0.393 -0.393 -0.390 -0.383 14.17701 14.13983 -9.53319
 5.00 3.80 -0.383 -0.383 -0.383 -0.380 -0.373 14.37702 14.33988 -9.33318
 5.00 4.00 -0.369 -0.370 -0.369 -0.366 -0.360 14.57703 14.53995 -9.13318
 5.00 4.20 -0.351 -0.351 -0.351 -0.348 -0.341 14.77703 14.74006 -8.93319
 5.00 4.40 -0.328 -0.328 -0.327 -0.325 -0.317 14.97701 14.94016 -8.73320
 5.00 4.60 -0.298 -0.298 -0.298 -0.295 -0.287 15.17699 15.14021 -8.53316
 5.00 4.80 -0.260 -0.260 -0.260 -0.257 -0.249 15.37696 15.34021 -8.33308
 5.00 5.00 -0.215 -0.215 -0.214 -0.212 -0.203 15.57692 15.54020 -8.13300
 5.00 5.20 -0.157 -0.158 -0.157 -0.154 -0.146 15.77681 15.74020 -7.93293
 5.00 5.40 -0.090 -0.090 -0.089 -0.086 -0.077 15.97670 15.94021 -7.73287
 5.00 5.60 -0.009 -0.009 -0.008 -0.005  0.004 16.17663 16.14026 -7.53279
 5.00 5.80  0.087  0.086  0.087  0.091  0.101 16.37660 16.34035 -7.33272
 5.00 6.00  0.200  0.199  0.200  0.203  0.213 16.57657 16.54045 -7.13265
 5.00 6.25  0.365  0.365  0.366  0.369  0.378 16.82643 16.79053 -6.88256
 5.00 6.50  0.555  0.554  0.555  0.559  0.567 17.07628 17.04060 -6.63246
 5.00 6.75  0.765  0.764  0.765  0.767  0.775 17.32614 17.29090 -6.38222
 5.00 7.00  0.982  0.982  0.983  0.985  0.991 17.57600 17.54121 -6.13194
 5.00 7.25  1.220  1.219  1.220  1.222  1.227 17.82580 17.79150 -5.88166
 5.00 7.50  1.463  1.463  1.464  1.465  1.470 18.07555 18.04179 -5.63134
 5.00 7.75  1.708  1.707  1.708  1.709  1.713 18.32510 18.29225 -5.38090
 5.00 8.00  1.955  1.955  1.955  1.956  1.959 18.57449 18.54283 -5.13036
 5.05-2.00 -0.444 -0.444 -0.444 -0.443 -0.441  8.52724  8.48968-15.18343
 5.05-1.50 -0.444 -0.444 -0.444 -0.443 -0.441  9.02735  8.98967-14.68340
 5.05-1.00 -0.444 -0.444 -0.444 -0.443 -0.441  9.52724  9.48968-14.18343
 5.05-0.50 -0.443 -0.443 -0.443 -0.443 -0.441 10.02735  9.98972-13.68340
 5.05 0.00 -0.443 -0.443 -0.443 -0.442 -0.440 10.52724 10.48968-13.18343
 5.05 0.50 -0.442 -0.442 -0.442 -0.441 -0.439 11.02735 10.98972-12.68340
 5.05 1.00 -0.441 -0.441 -0.441 -0.440 -0.437 11.52724 11.48982-12.18343
 5.05 1.25 -0.439 -0.440 -0.439 -0.438 -0.436 11.77730 11.73977-11.93342
 5.05 1.50 -0.438 -0.438 -0.438 -0.437 -0.434 12.02735 11.98972-11.68340
 5.05 1.75 -0.436 -0.436 -0.435 -0.434 -0.432 12.27730 12.23977-11.43338
 5.05 2.00 -0.434 -0.434 -0.434 -0.432 -0.429 12.52724 12.48982-11.18336
 5.05 2.25 -0.431 -0.431 -0.430 -0.429 -0.425 12.77730 12.73979-10.93338
 5.05 2.50 -0.426 -0.427 -0.426 -0.425 -0.421 13.02735 12.98976-10.68340
 5.05 2.75 -0.422 -0.422 -0.422 -0.420 -0.416 13.27732 13.23979-10.43335
 5.05 3.00 -0.417 -0.417 -0.417 -0.414 -0.409 13.52724 13.48982-10.18330
 5.05 3.20 -0.412 -0.412 -0.411 -0.409 -0.404 13.72712 13.68983 -9.98334
 5.05 3.40 -0.406 -0.406 -0.405 -0.404 -0.397 13.92700 13.88984 -9.78338
 5.05 3.60 -0.399 -0.400 -0.399 -0.396 -0.390 14.12698 14.08987 -9.58337
 5.05 3.80 -0.391 -0.391 -0.390 -0.388 -0.381 14.32705 14.28992 -9.38330
 5.05 4.00 -0.380 -0.380 -0.380 -0.377 -0.370 14.52711 14.48996 -9.18323
 5.05 4.20 -0.367 -0.367 -0.367 -0.364 -0.356 14.72705 14.68997 -8.98321
 5.05 4.40 -0.349 -0.350 -0.349 -0.346 -0.338 14.92698 14.88998 -8.78320
 5.05 4.60 -0.326 -0.326 -0.326 -0.323 -0.315 15.12695 15.09001 -8.58316
 5.05 4.80 -0.296 -0.297 -0.296 -0.294 -0.286 15.32697 15.29005 -8.38309
 5.05 5.00 -0.260 -0.260 -0.259 -0.257 -0.249 15.52699 15.49010 -8.18303
 5.05 5.20 -0.212 -0.213 -0.212 -0.209 -0.202 15.72698 15.69014 -7.98301
 5.05 5.40 -0.156 -0.156 -0.155 -0.153 -0.145 15.92696 15.89018 -7.78299
 5.05 5.60 -0.087 -0.087 -0.087 -0.084 -0.076 16.12690 16.09023 -7.58294
 5.05 5.80 -0.005 -0.005 -0.005 -0.002  0.005 16.32681 16.29030 -7.38285
 5.05 6.00  0.091  0.091  0.091  0.094  0.102 16.52673 16.49038 -7.18277
 5.05 6.25  0.236  0.236  0.237  0.239  0.247 16.77663 16.74051 -6.93266
 5.05 6.50  0.406  0.406  0.406  0.409  0.417 17.02653 16.99065 -6.68256
 5.05 6.75  0.600  0.600  0.600  0.603  0.610 17.27631 17.24079 -6.43238
 5.05 7.00  0.800  0.799  0.800  0.802  0.809 17.52608 17.49094 -6.18217
 5.05 7.25  1.027  1.027  1.027  1.029  1.035 17.77590 17.74117 -5.93196
 5.05 7.50  1.264  1.264  1.264  1.266  1.270 18.02572 17.99145 -5.68173
 5.05 7.75  1.504  1.504  1.504  1.505  1.509 18.27542 18.24179 -5.43139
 5.05 8.00  1.749  1.748  1.749  1.750  1.752 18.52505 18.49220 -5.18098
 5.10-2.00 -0.440 -0.440 -0.440 -0.439 -0.438  8.47727  8.43965-15.23344
 5.10-1.50 -0.440 -0.440 -0.440 -0.439 -0.438  8.97727  8.93967-14.73353
 5.10-1.00 -0.440 -0.440 -0.440 -0.439 -0.438  9.47727  9.43981-14.23344
 5.10-0.50 -0.440 -0.440 -0.440 -0.439 -0.438  9.97727  9.93972-13.73353
 5.10 0.00 -0.440 -0.440 -0.440 -0.439 -0.438 10.47727 10.43981-13.23344
 5.10 0.50 -0.440 -0.440 -0.440 -0.439 -0.438 10.97722 10.93972-12.73353
 5.10 1.00 -0.439 -0.439 -0.439 -0.439 -0.437 11.47727 11.43981-12.23344
 5.10 1.25 -0.439 -0.439 -0.439 -0.438 -0.436 11.72724 11.68976-11.98349
 5.10 1.50 -0.438 -0.438 -0.438 -0.438 -0.436 11.97722 11.93972-11.73353
 5.10 1.75 -0.437 -0.437 -0.437 -0.436 -0.434 12.22724 12.18976-11.48345
 5.10 2.00 -0.436 -0.436 -0.436 -0.435 -0.433 12.47727 12.43981-11.23337
 5.10 2.25 -0.434 -0.434 -0.434 -0.433 -0.431 12.72722 12.68979-10.98332
 5.10 2.50 -0.433 -0.433 -0.432 -0.432 -0.429 12.97717 12.93977-10.73330
 5.10 2.75 -0.430 -0.430 -0.430 -0.429 -0.426 13.22722 13.18979-10.48333
 5.10 3.00 -0.427 -0.427 -0.427 -0.425 -0.421 13.47727 13.43981-10.23337
 5.10 3.20 -0.423 -0.423 -0.422 -0.421 -0.417 13.67721 13.63981-10.03334
 5.10 3.40 -0.418 -0.418 -0.418 -0.416 -0.412 13.87716 13.83982 -9.83331
 5.10 3.60 -0.412 -0.413 -0.412 -0.410 -0.406 14.07713 14.03985 -9.63328
 5.10 3.80 -0.405 -0.405 -0.405 -0.403 -0.398 14.27713 14.23991 -9.43325
 5.10 4.00 -0.395 -0.396 -0.395 -0.393 -0.387 14.47712 14.43996 -9.23322
 5.10 4.20 -0.384 -0.385 -0.384 -0.382 -0.375 14.67709 14.63997 -9.03325
 5.10 4.40 -0.369 -0.370 -0.369 -0.367 -0.360 14.87706 14.83997 -8.83328
 5.10 4.60 -0.351 -0.351 -0.350 -0.348 -0.341 15.07703 15.04000 -8.63325
 5.10 4.80 -0.327 -0.328 -0.327 -0.324 -0.317 15.27700 15.24006 -8.43316
 5.10 5.00 -0.296 -0.297 -0.296 -0.294 -0.285 15.47698 15.44012 -8.23307
 5.10 5.20 -0.258 -0.259 -0.258 -0.255 -0.247 15.67693 15.64014 -8.03307
 5.10 5.40 -0.210 -0.211 -0.210 -0.207 -0.199 15.87688 15.84016 -7.83306
 5.10 5.60 -0.152 -0.152 -0.151 -0.149 -0.141 16.07682 16.04018 -7.63302
 5.10 5.80 -0.081 -0.082 -0.081 -0.079 -0.071 16.27676 16.24022 -7.43294
 5.10 6.00  0.001  0.001  0.002  0.004  0.011 16.47669 16.44028 -7.23284
 5.10 6.25  0.128  0.127  0.128  0.130  0.136 16.72659 16.69038 -6.98272
 5.10 6.50  0.277  0.277  0.278  0.280  0.286 16.97649 16.94052 -6.73259
 5.10 6.75  0.455  0.455  0.455  0.457  0.463 17.22638 17.19071 -6.48246
 5.10 7.00  0.647  0.646  0.647  0.649  0.654 17.47625 17.44091 -6.23233
 5.10 7.25  0.861  0.860  0.861  0.863  0.867 17.72606 17.69106 -5.98212
 5.10 7.50  1.091  1.091  1.092  1.093  1.097 17.97585 17.94121 -5.73189
 5.10 7.75  1.327  1.326  1.327  1.328  1.331 18.22562 18.19149 -5.48164
 5.10 8.00  1.567  1.567  1.567  1.568  1.571 18.47538 18.44185 -5.23136
 5.15-2.00 -0.434 -0.434 -0.434 -0.434 -0.432  8.42732  8.38970-15.28341
 5.15-1.50 -0.434 -0.434 -0.434 -0.434 -0.432  8.92727  8.88969-14.78357
 5.15-1.00 -0.434 -0.434 -0.434 -0.434 -0.432  9.42732  9.38970-14.28341
 5.15-0.50 -0.434 -0.434 -0.434 -0.434 -0.432  9.92727  9.88969-13.78357
 5.15 0.00 -0.434 -0.434 -0.434 -0.434 -0.432 10.42732 10.38970-13.28341
 5.15 0.50 -0.434 -0.434 -0.434 -0.434 -0.432 10.92727 10.88969-12.78357
 5.15 1.00 -0.434 -0.434 -0.434 -0.433 -0.432 11.42732 11.38970-12.28341
 5.15 1.25 -0.434 -0.434 -0.434 -0.433 -0.432 11.67727 11.63972-12.03335
 5.15 1.50 -0.433 -0.434 -0.433 -0.433 -0.431 11.92722 11.88975-11.78331
 5.15 1.75 -0.433 -0.433 -0.433 -0.432 -0.431 12.17727 12.13972-11.53336
 5.15 2.00 -0.432 -0.433 -0.432 -0.432 -0.430 12.42732 12.38970-11.28341
 5.15 2.25 -0.432 -0.432 -0.432 -0.431 -0.429 12.67727 12.63971-11.03336
 5.15 2.50 -0.431 -0.431 -0.431 -0.430 -0.429 12.92722 12.88975-10.78331
 5.15 2.75 -0.430 -0.430 -0.430 -0.429 -0.427 13.17718 13.13981-10.53332
 5.15 3.00 -0.428 -0.428 -0.428 -0.428 -0.425 13.42716 13.38987-10.28333
 5.15 3.20 -0.426 -0.426 -0.426 -0.425 -0.424 13.62716 13.58985-10.08333
 5.15 3.40 -0.424 -0.424 -0.424 -0.423 -0.420 13.82716 13.78982 -9.88332
 5.15 3.60 -0.421 -0.421 -0.421 -0.420 -0.417 14.02717 13.98982 -9.68330
 5.15 3.80 -0.417 -0.417 -0.417 -0.416 -0.412 14.22716 14.18985 -9.48327
 5.15 4.00 -0.412 -0.412 -0.411 -0.410 -0.406 14.42716 14.38988 -9.28325
 5.15 4.20 -0.403 -0.404 -0.403 -0.402 -0.398 14.62712 14.58989 -9.08327
 5.15 4.40 -0.394 -0.394 -0.394 -0.392 -0.387 14.82708 14.78991 -8.88329
 5.15 4.60 -0.380 -0.380 -0.380 -0.378 -0.373 15.02705 14.98994 -8.68328
 5.15 4.80 -0.362 -0.363 -0.362 -0.360 -0.354 15.22703 15.19000 -8.48322
 5.15 5.00 -0.339 -0.339 -0.338 -0.336 -0.330 15.42700 15.39005 -8.28316
 5.15 5.20 -0.307 -0.308 -0.307 -0.305 -0.298 15.62696 15.59007 -8.08311
 5.15 5.40 -0.268 -0.267 -0.267 -0.265 -0.257 15.82693 15.79008 -7.88307
 5.15 5.60 -0.217 -0.218 -0.217 -0.214 -0.207 16.02689 15.99011 -7.68302
 5.15 5.80 -0.156 -0.157 -0.156 -0.153 -0.145 16.22687 16.19016 -7.48297
 5.15 6.00 -0.082 -0.083 -0.082 -0.079 -0.072 16.42684 16.39023 -7.28291
 5.15 6.25  0.028  0.028  0.028  0.031  0.038 16.67672 16.64032 -7.03285
 5.15 6.50  0.162  0.162  0.163  0.164  0.171 16.92660 16.89042 -6.78278
 5.15 6.75  0.321  0.321  0.322  0.324  0.330 17.17648 17.14059 -6.53260
 5.15 7.00  0.503  0.503  0.504  0.505  0.510 17.42635 17.39076 -6.28241
 5.15 7.25  0.698  0.697  0.698  0.699  0.704 17.67620 17.64090 -6.03233
 5.15 7.50  0.918  0.918  0.918  0.919  0.923 17.92603 17.89104 -5.78225
 5.15 7.75  1.148  1.148  1.148  1.149  1.152 18.17587 18.14123 -5.53198
 5.15 8.00  1.385  1.385  1.385  1.386  1.388 18.42570 18.39146 -5.28158
 5.20-2.00 -0.424 -0.424 -0.424 -0.423 -0.422  8.37731  8.33965-15.33339
 5.20-1.50 -0.424 -0.424 -0.424 -0.423 -0.422  8.87726  8.83967-14.83357
 5.20-1.00 -0.424 -0.424 -0.424 -0.423 -0.422  9.37731  9.33965-14.33339
 5.20-0.50 -0.424 -0.424 -0.424 -0.423 -0.422  9.87726  9.83967-13.83357
 5.20 0.00 -0.424 -0.424 -0.424 -0.423 -0.422 10.37731 10.33965-13.33339
 5.20 0.50 -0.424 -0.424 -0.424 -0.423 -0.422 10.87726 10.83973-12.83357
 5.20 1.00 -0.424 -0.424 -0.424 -0.423 -0.422 11.37731 11.33985-12.33339
 5.20 1.25 -0.424 -0.424 -0.424 -0.423 -0.422 11.62728 11.58979-12.08348
 5.20 1.50 -0.424 -0.424 -0.424 -0.423 -0.422 11.87726 11.83973-11.83357
 5.20 1.75 -0.424 -0.424 -0.424 -0.423 -0.422 12.12728 12.08979-11.58348
 5.20 2.00 -0.424 -0.424 -0.424 -0.423 -0.422 12.37731 12.33985-11.33339
 5.20 2.25 -0.424 -0.424 -0.423 -0.423 -0.422 12.62725 12.58979-11.08332
 5.20 2.50 -0.424 -0.423 -0.423 -0.423 -0.422 12.87720 12.83973-10.83327
 5.20 2.75 -0.423 -0.423 -0.423 -0.422 -0.421 13.12725 13.08979-10.58333
 5.20 3.00 -0.422 -0.422 -0.422 -0.422 -0.420 13.37731 13.33985-10.33339
 5.20 3.20 -0.421 -0.421 -0.421 -0.421 -0.419 13.57724 13.53983-10.13334
 5.20 3.40 -0.420 -0.420 -0.420 -0.420 -0.418 13.77717 13.73980 -9.93330
 5.20 3.60 -0.419 -0.419 -0.419 -0.418 -0.416 13.97714 13.93980 -9.73328
 5.20 3.80 -0.417 -0.417 -0.417 -0.416 -0.414 14.17713 14.13982 -9.53329
 5.20 4.00 -0.413 -0.414 -0.413 -0.413 -0.411 14.37712 14.33985 -9.33329
 5.20 4.20 -0.410 -0.410 -0.410 -0.409 -0.406 14.57711 14.53988 -9.13329
 5.20 4.40 -0.405 -0.404 -0.404 -0.404 -0.401 14.77709 14.73990 -8.93328
 5.20 4.60 -0.396 -0.397 -0.396 -0.395 -0.393 14.97709 14.93994 -8.73327
 5.20 4.80 -0.386 -0.386 -0.386 -0.385 -0.381 15.17711 15.14000 -8.53324
 5.20 5.00 -0.371 -0.371 -0.371 -0.370 -0.366 15.37712 15.34005 -8.33320
 5.20 5.20 -0.351 -0.351 -0.351 -0.349 -0.345 15.57704 15.54005 -8.13311
 5.20 5.40 -0.323 -0.323 -0.322 -0.321 -0.315 15.77695 15.74005 -7.93302
 5.20 5.60 -0.285 -0.285 -0.285 -0.283 -0.277 15.97692 15.94008 -7.73297
 5.20 5.80 -0.236 -0.237 -0.236 -0.234 -0.228 16.17693 16.14017 -7.53294
 5.20 6.00 -0.175 -0.175 -0.174 -0.172 -0.166 16.37694 16.34025 -7.33292
 5.20 6.25 -0.078 -0.078 -0.077 -0.075 -0.068 16.62681 16.59030 -7.08280
 5.20 6.50  0.043  0.042  0.043  0.045  0.052 16.87668 16.84036 -6.83268
 5.20 6.75  0.187  0.186  0.187  0.189  0.196 17.12663 17.09050 -6.58261
 5.20 7.00  0.356  0.356  0.356  0.358  0.364 17.37658 17.34064 -6.33255
 5.20 7.25  0.535  0.535  0.536  0.537  0.542 17.62637 17.59075 -6.08247
 5.20 7.50  0.745  0.744  0.745  0.746  0.750 17.87616 17.84086 -5.83239
 5.20 7.75  0.964  0.964  0.964  0.966  0.969 18.12599 18.09103 -5.58215
 5.20 8.00  1.192  1.193  1.193  1.193  1.197 18.37585 18.34124 -5.33180
 5.25-2.00 -0.409 -0.409 -0.409 -0.409 -0.407  8.32736  8.28981-15.38342
 5.25-1.50 -0.409 -0.409 -0.409 -0.409 -0.407  8.82724  8.78972-14.88339
 5.25-1.00 -0.409 -0.409 -0.409 -0.409 -0.407  9.32736  9.28981-14.38342
 5.25-0.50 -0.409 -0.409 -0.409 -0.409 -0.407  9.82724  9.78972-13.88339
 5.25 0.00 -0.409 -0.409 -0.409 -0.409 -0.407 10.32736 10.28981-13.38342
 5.25 0.50 -0.409 -0.409 -0.409 -0.409 -0.407 10.82724 10.78972-12.88339
 5.25 1.00 -0.409 -0.409 -0.409 -0.409 -0.407 11.32736 11.28981-12.38342
 5.25 1.25 -0.409 -0.409 -0.409 -0.409 -0.407 11.57730 11.53977-12.13341
 5.25 1.50 -0.409 -0.409 -0.409 -0.409 -0.407 11.82724 11.78972-11.88339
 5.25 1.75 -0.409 -0.409 -0.409 -0.409 -0.407 12.07730 12.03977-11.63341
 5.25 2.00 -0.409 -0.409 -0.409 -0.409 -0.407 12.32736 12.28981-11.38342
 5.25 2.25 -0.409 -0.409 -0.409 -0.409 -0.407 12.57730 12.53977-11.13341
 5.25 2.50 -0.409 -0.409 -0.409 -0.408 -0.407 12.82724 12.78972-10.88339
 5.25 2.75 -0.409 -0.409 -0.409 -0.408 -0.407 13.07719 13.03977-10.63335
 5.25 3.00 -0.408 -0.409 -0.408 -0.408 -0.407 13.32715 13.28981-10.38331
 5.25 3.20 -0.408 -0.408 -0.408 -0.408 -0.406 13.52716 13.48980-10.18335
 5.25 3.40 -0.408 -0.408 -0.408 -0.407 -0.406 13.72717 13.68980 -9.98338
 5.25 3.60 -0.407 -0.407 -0.407 -0.406 -0.405 13.92717 13.88979 -9.78338
 5.25 3.80 -0.405 -0.406 -0.405 -0.405 -0.403 14.12717 14.08980 -9.58335
 5.25 4.00 -0.404 -0.404 -0.404 -0.403 -0.402 14.32716 14.28981 -9.38332
 5.25 4.20 -0.402 -0.402 -0.402 -0.401 -0.400 14.52714 14.48983 -9.18335
 5.25 4.40 -0.399 -0.399 -0.399 -0.399 -0.397 14.72712 14.68985 -8.98338
 5.25 4.60 -0.395 -0.395 -0.395 -0.395 -0.393 14.92712 14.88990 -8.78336
 5.25 4.80 -0.389 -0.389 -0.389 -0.388 -0.386 15.12714 15.08997 -8.58328
 5.25 5.00 -0.381 -0.381 -0.381 -0.380 -0.378 15.32715 15.29003 -8.38321
 5.25 5.20 -0.369 -0.369 -0.369 -0.368 -0.365 15.52709 15.49002 -8.18314
 5.25 5.40 -0.351 -0.352 -0.351 -0.350 -0.348 15.72702 15.69001 -7.98309
 5.25 5.60 -0.327 -0.327 -0.327 -0.326 -0.323 15.92698 15.89005 -7.78305
 5.25 5.80 -0.295 -0.295 -0.295 -0.293 -0.290 16.12696 16.09016 -7.58302
 5.25 6.00 -0.251 -0.252 -0.251 -0.250 -0.246 16.32695 16.29026 -7.38300
 5.25 6.25 -0.178 -0.178 -0.177 -0.176 -0.172 16.57684 16.54027 -7.13286
 5.25 6.50 -0.080 -0.080 -0.080 -0.078 -0.073 16.82672 16.79029 -6.88273
 5.25 6.75  0.044  0.044  0.044  0.046  0.051 17.07663 17.04037 -6.63271
 5.25 7.00  0.196  0.196  0.196  0.198  0.203 17.32654 17.29048 -6.38269
 5.25 7.25  0.369  0.369  0.370  0.371  0.376 17.57642 17.54062 -6.13255
 5.25 7.50  0.560  0.559  0.560  0.561  0.566 17.82627 17.79078 -5.88240
 5.25 7.75  0.769  0.769  0.770  0.771  0.775 18.07611 18.04095 -5.63223
 5.25 8.00  0.989  0.989  0.990  0.991  0.994 18.32593 18.29115 -5.38206
 5.30-2.00 -0.387 -0.387 -0.387 -0.387 -0.385  8.27738  8.23980-15.43344
 5.30-1.50 -0.387 -0.387 -0.387 -0.387 -0.385  8.77728  8.73965-14.93330
 5.30-1.00 -0.387 -0.387 -0.387 -0.387 -0.385  9.27738  9.23980-14.43344
 5.30-0.50 -0.387 -0.387 -0.387 -0.387 -0.385  9.77728  9.73973-13.93330
 5.30 0.00 -0.387 -0.387 -0.387 -0.387 -0.385 10.27738 10.23980-13.43344
 5.30 0.50 -0.387 -0.387 -0.387 -0.387 -0.385 10.77728 10.73973-12.93330
 5.30 1.00 -0.387 -0.387 -0.387 -0.387 -0.385 11.27738 11.23980-12.43344
 5.30 1.25 -0.387 -0.387 -0.387 -0.387 -0.385 11.52730 11.48977-12.18337
 5.30 1.50 -0.387 -0.387 -0.387 -0.387 -0.385 11.77721 11.73973-11.93330
 5.30 1.75 -0.387 -0.387 -0.387 -0.387 -0.385 12.02730 11.98977-11.68337
 5.30 2.00 -0.387 -0.387 -0.387 -0.387 -0.385 12.27738 12.23980-11.43344
 5.30 2.25 -0.387 -0.387 -0.387 -0.387 -0.385 12.52730 12.48977-11.18337
 5.30 2.50 -0.387 -0.387 -0.387 -0.387 -0.385 12.77721 12.73973-10.93330
 5.30 2.75 -0.387 -0.387 -0.387 -0.387 -0.385 13.02717 12.98977-10.68331
 5.30 3.00 -0.387 -0.387 -0.387 -0.386 -0.385 13.27715 13.23980-10.43333
 5.30 3.20 -0.387 -0.387 -0.387 -0.386 -0.385 13.47717 13.43981-10.23332
 5.30 3.40 -0.387 -0.387 -0.387 -0.386 -0.385 13.67720 13.63981-10.03331
 5.30 3.60 -0.386 -0.386 -0.386 -0.386 -0.384 13.87720 13.83981 -9.83331
 5.30 3.80 -0.386 -0.386 -0.386 -0.385 -0.384 14.07717 14.03980 -9.63332
 5.30 4.00 -0.385 -0.385 -0.385 -0.385 -0.383 14.27715 14.23980 -9.43333
 5.30 4.20 -0.384 -0.384 -0.384 -0.383 -0.382 14.47714 14.43983 -9.23332
 5.30 4.40 -0.383 -0.383 -0.382 -0.382 -0.381 14.67714 14.63986 -9.03331
 5.30 4.60 -0.380 -0.380 -0.380 -0.380 -0.378 14.87714 14.83992 -8.83328
 5.30 4.80 -0.376 -0.376 -0.376 -0.376 -0.374 15.07715 15.03999 -8.63325
 5.30 5.00 -0.372 -0.372 -0.372 -0.371 -0.370 15.27715 15.24005 -8.43321
 5.30 5.20 -0.364 -0.364 -0.364 -0.364 -0.362 15.47709 15.44002 -8.23325
 5.30 5.40 -0.354 -0.354 -0.354 -0.353 -0.351 15.67702 15.63999 -8.03328
 5.30 5.60 -0.339 -0.339 -0.339 -0.339 -0.337 15.87698 15.83998 -7.83326
 5.30 5.80 -0.319 -0.319 -0.318 -0.318 -0.316 16.07695 16.04000 -7.63318
 5.30 6.00 -0.290 -0.291 -0.290 -0.289 -0.287 16.27692 16.24005 -7.43309
 5.30 6.25 -0.240 -0.240 -0.240 -0.239 -0.236 16.52685 16.49013 -7.18301
 5.30 6.50 -0.170 -0.170 -0.170 -0.169 -0.166 16.77677 16.74021 -6.93293
 5.30 6.75 -0.074 -0.075 -0.074 -0.073 -0.070 17.02673 16.99025 -6.68283
 5.30 7.00  0.047  0.046  0.047  0.048  0.052 17.27669 17.24030 -6.43274
 5.30 7.25  0.197  0.197  0.197  0.198  0.202 17.52655 17.49043 -6.18265
 5.30 7.50  0.365  0.365  0.365  0.367  0.370 17.77641 17.74060 -5.93256
 5.30 7.75  0.560  0.560  0.560  0.562  0.565 18.02631 17.99081 -5.68238
 5.30 8.00  0.770  0.770  0.771  0.772  0.775 18.27623 18.24105 -5.43215
