
 ROSSELAND MASS ABSORPTION COEFFICENTS
 logT logP  0km/s  1km/s  2km/s  4km/s  8km/s  log Ne   log Na  log rho IPloCM-1
 3.32-2.00 -6.477 -6.472 -6.464 -6.449 -6.429  2.54481 10.54033-13.13395
 3.32-1.50 -6.522 -6.517 -6.510 -6.496 -6.477  2.87754 11.04139-12.63302
 3.32-1.00 -6.547 -6.544 -6.536 -6.523 -6.504  3.21378 11.54419-12.13024
 3.32-0.50 -6.545 -6.541 -6.533 -6.519 -6.500  3.57738 12.05231-11.62197
 3.32 0.00 -6.516 -6.511 -6.503 -6.488 -6.467  3.99352 12.57380-11.10062
 3.32 0.50 -6.469 -6.464 -6.455 -6.438 -6.415  4.46894 13.11494-10.55956
 3.32 1.00 -6.413 -6.409 -6.400 -6.382 -6.358  4.96820 13.66829-10.00603
 3.32 1.25 -6.385 -6.380 -6.371 -6.354 -6.329  5.20953 13.94330 -9.73096
 3.32 1.50 -6.356 -6.352 -6.343 -6.327 -6.303  5.44373 14.21643 -9.45780
 3.32 1.75 -6.326 -6.322 -6.315 -6.299 -6.277  5.66719 14.48542 -9.18895
 3.32 2.00 -6.296 -6.292 -6.286 -6.272 -6.252  5.88361 14.75113 -8.92336
 3.32 2.25 -6.265 -6.262 -6.256 -6.244 -6.226  6.09302 15.01336 -8.66105
 3.32 2.50 -6.233 -6.231 -6.226 -6.215 -6.199  6.30016 15.27300 -8.40132
 3.32 2.75 -6.201 -6.199 -6.195 -6.186 -6.172  6.50560 15.53044 -8.14382
 3.32 3.00 -6.168 -6.166 -6.162 -6.154 -6.142  6.71105 15.78618 -7.88807
 3.32 3.20 -6.140 -6.139 -6.135 -6.128 -6.117  6.87682 15.98972 -7.68460
 3.32 3.40 -6.112 -6.110 -6.108 -6.102 -6.092  7.04259 16.19260 -7.48177
 3.32 3.60 -6.084 -6.083 -6.080 -6.075 -6.067  7.20748 16.39489 -7.27951
 3.32 3.80 -6.056 -6.055 -6.053 -6.048 -6.040  7.36947 16.59677 -7.07764
 3.32 4.00 -6.026 -6.025 -6.023 -6.019 -6.013  7.52879 16.79824 -6.87615
 3.32 4.20 -5.998 -5.997 -5.996 -5.992 -5.985  7.68084 16.99933 -6.67499
 3.32 4.40 -5.968 -5.967 -5.965 -5.962 -5.955  7.82748 17.20022 -6.47405
 3.32 4.60 -5.935 -5.935 -5.933 -5.929 -5.922  7.96793 17.40096 -6.27331
 3.32 4.80 -5.900 -5.899 -5.897 -5.893 -5.886  8.10322 17.60159 -6.07271
 3.32 5.00 -5.860 -5.860 -5.858 -5.853 -5.846  8.23452 17.80209 -5.87225
 3.32 5.20 -5.816 -5.815 -5.813 -5.809 -5.802  8.36158 18.00238 -5.67192
 3.32 5.40 -5.765 -5.764 -5.762 -5.758 -5.751  8.48780 18.20264 -5.47163
 3.32 5.60 -5.708 -5.707 -5.706 -5.701 -5.693  8.61320 18.40289 -5.27138
 3.32 5.80 -5.642 -5.641 -5.640 -5.636 -5.628  8.73841 18.60312 -5.07115
 3.32 6.00 -5.566 -5.565 -5.563 -5.559 -5.552  8.86362 18.80332 -4.87096
 3.32 6.25 -5.449 -5.449 -5.447 -5.443 -5.437  9.02304 19.05350 -4.62087
 3.32 6.50 -5.299 -5.299 -5.297 -5.294 -5.288  9.18441 19.30363 -4.37080
 3.32 6.75 -5.098 -5.098 -5.096 -5.094 -5.089  9.34868 19.55368 -4.12071
 3.32 7.00 -4.943 -4.943 -4.942 -4.940 -4.936  9.51295 19.80373 -3.87063
 3.32 7.25 -4.839 -4.839 -4.838 -4.836 -4.833  9.67499 20.05379 -3.62060
 3.32 7.50 -4.735 -4.735 -4.734 -4.733 -4.730  9.83449 20.30384 -3.37059
 3.32 7.75 -4.630 -4.630 -4.630 -4.628 -4.626  9.98825 20.55387 -3.12060
 3.32 8.00 -4.524 -4.524 -4.523 -4.522 -4.521 10.13735 20.80387 -2.87063
 3.34-2.00 -6.328 -6.323 -6.313 -6.296 -6.271  2.78469 10.51996-13.15441
 3.34-1.50 -6.371 -6.366 -6.357 -6.340 -6.316  3.14922 11.02036-12.65404
 3.34-1.00 -6.405 -6.400 -6.392 -6.375 -6.353  3.49108 11.52114-12.15323
 3.34-0.50 -6.418 -6.413 -6.405 -6.388 -6.366  3.82308 12.02366-11.65053
 3.34 0.00 -6.401 -6.396 -6.387 -6.370 -6.346  4.16554 12.53199-11.14237
 3.34 0.50 -6.353 -6.348 -6.338 -6.320 -6.294  4.54617 13.05269-10.62160
 3.34 1.00 -6.286 -6.281 -6.271 -6.252 -6.225  4.98829 13.59329-10.08103
 3.34 1.25 -6.250 -6.245 -6.236 -6.217 -6.191  5.23184 13.87002 -9.80435
 3.34 1.50 -6.216 -6.211 -6.203 -6.185 -6.160  5.47538 14.14675 -9.52768
 3.34 1.75 -6.183 -6.179 -6.171 -6.155 -6.132  5.71701 14.42190 -9.25256
 3.34 2.00 -6.152 -6.149 -6.142 -6.128 -6.107  5.95588 14.69522 -8.97922
 3.34 2.25 -6.124 -6.121 -6.115 -6.102 -6.084  6.18307 14.96434 -8.71007
 3.34 2.50 -6.097 -6.094 -6.089 -6.078 -6.062  6.40278 15.23019 -8.44418
 3.34 2.75 -6.070 -6.068 -6.063 -6.054 -6.040  6.61486 15.49267 -8.18173
 3.34 3.00 -6.044 -6.042 -6.038 -6.030 -6.018  6.82269 15.75251 -7.92191
 3.34 3.20 -6.022 -6.020 -6.017 -6.010 -5.999  6.98569 15.95863 -7.71578
 3.34 3.40 -5.999 -5.997 -5.995 -5.989 -5.978  7.14869 16.16366 -7.51073
 3.34 3.60 -5.975 -5.974 -5.971 -5.965 -5.957  7.31171 16.36765 -7.30666
 3.34 3.80 -5.949 -5.948 -5.946 -5.941 -5.933  7.47475 16.57094 -7.10331
 3.34 4.00 -5.920 -5.919 -5.918 -5.914 -5.907  7.63779 16.77357 -6.90066
 3.34 4.20 -5.893 -5.893 -5.891 -5.886 -5.879  7.79971 16.97567 -6.69870
 3.34 4.40 -5.864 -5.864 -5.862 -5.857 -5.850  7.96015 17.17737 -6.49709
 3.34 4.60 -5.833 -5.832 -5.830 -5.826 -5.819  8.11720 17.37867 -6.29579
 3.34 4.80 -5.800 -5.800 -5.798 -5.794 -5.786  8.26834 17.57972 -6.09469
 3.34 5.00 -5.767 -5.766 -5.764 -5.759 -5.751  8.41464 17.78053 -5.89381
 3.34 5.20 -5.731 -5.730 -5.728 -5.723 -5.715  8.55418 17.98119 -5.69319
 3.34 5.40 -5.693 -5.692 -5.691 -5.686 -5.679  8.68934 18.18172 -5.49267
 3.34 5.60 -5.655 -5.654 -5.652 -5.647 -5.639  8.81964 18.38215 -5.29220
 3.34 5.80 -5.614 -5.613 -5.611 -5.607 -5.599  8.94714 18.58250 -5.09178
 3.34 6.00 -5.571 -5.570 -5.568 -5.564 -5.556  9.07298 18.78276 -4.89144
 3.34 6.25 -5.514 -5.513 -5.512 -5.508 -5.500  9.22849 19.03292 -4.64129
 3.34 6.50 -5.453 -5.453 -5.451 -5.447 -5.440  9.38400 19.28308 -4.39115
 3.34 6.75 -5.387 -5.387 -5.385 -5.381 -5.375  9.54111 19.53328 -4.14096
 3.34 7.00 -5.317 -5.316 -5.315 -5.311 -5.305  9.69949 19.78348 -3.89076
 3.34 7.25 -5.241 -5.241 -5.240 -5.236 -5.231  9.86013 20.03350 -3.64073
 3.34 7.50 -5.161 -5.161 -5.160 -5.157 -5.152 10.02078 20.28353 -3.39073
 3.34 7.75 -5.079 -5.078 -5.077 -5.075 -5.071 10.17939 20.53359 -3.14073
 3.34 8.00 -4.995 -4.994 -4.993 -4.991 -4.988 10.33666 20.78369 -2.89076
 3.36-2.00 -6.207 -6.201 -6.191 -6.171 -6.145  2.93202 10.49996-13.17444
 3.36-1.50 -6.235 -6.229 -6.219 -6.200 -6.174  3.34557 10.99996-12.67448
 3.36-1.00 -6.263 -6.258 -6.247 -6.228 -6.202  3.72989 11.50024-12.17406
 3.36-0.50 -6.278 -6.272 -6.262 -6.242 -6.217  4.08600 12.00130-11.67325
 3.36 0.00 -6.266 -6.261 -6.250 -6.230 -6.202  4.42308 12.50406-11.17031
 3.36 0.50 -6.224 -6.218 -6.207 -6.186 -6.157  4.75785 13.01242-10.66214
 3.36 1.00 -6.159 -6.154 -6.143 -6.122 -6.093  5.11561 13.53339-10.14092
 3.36 1.25 -6.123 -6.118 -6.108 -6.089 -6.060  5.31369 13.80201 -9.87237
 3.36 1.50 -6.089 -6.084 -6.075 -6.057 -6.031  5.52504 14.07445 -9.59998
 3.36 1.75 -6.055 -6.050 -6.043 -6.027 -6.003  5.75457 14.35116 -9.32323
 3.36 2.00 -6.024 -6.020 -6.013 -6.000 -5.979  5.98909 14.62788 -9.04648
 3.36 2.25 -5.996 -5.992 -5.986 -5.974 -5.956  6.22724 14.90292 -8.77142
 3.36 2.50 -5.969 -5.966 -5.961 -5.951 -5.935  6.46538 15.17609 -8.49826
 3.36 2.75 -5.944 -5.942 -5.937 -5.927 -5.913  6.69407 15.44513 -8.22917
 3.36 3.00 -5.919 -5.917 -5.912 -5.904 -5.892  6.91609 15.71088 -7.96337
 3.36 3.20 -5.898 -5.896 -5.893 -5.885 -5.873  7.08766 15.92086 -7.75338
 3.36 3.40 -5.876 -5.874 -5.871 -5.865 -5.854  7.25594 16.12919 -7.54506
 3.36 3.60 -5.853 -5.851 -5.849 -5.843 -5.833  7.42070 16.33597 -7.33840
 3.36 3.80 -5.828 -5.827 -5.825 -5.819 -5.809  7.58358 16.54158 -7.13292
 3.36 4.00 -5.800 -5.799 -5.797 -5.792 -5.784  7.74539 16.74609 -6.92849
 3.36 4.20 -5.773 -5.772 -5.770 -5.765 -5.757  7.90679 16.94956 -6.72488
 3.36 4.40 -5.743 -5.742 -5.740 -5.735 -5.727  8.06754 17.15240 -6.52191
 3.36 4.60 -5.710 -5.709 -5.707 -5.702 -5.694  8.22788 17.35467 -6.31956
 3.36 4.80 -5.675 -5.674 -5.672 -5.667 -5.659  8.38750 17.55657 -6.11764
 3.36 5.00 -5.637 -5.636 -5.634 -5.629 -5.621  8.54605 17.75808 -5.91614
 3.36 5.20 -5.598 -5.597 -5.595 -5.590 -5.582  8.69973 17.95923 -5.71504
 3.36 5.40 -5.557 -5.556 -5.554 -5.550 -5.542  8.84921 18.16016 -5.51413
 3.36 5.60 -5.515 -5.514 -5.512 -5.508 -5.500  8.99334 18.36091 -5.31337
 3.36 5.80 -5.471 -5.471 -5.469 -5.464 -5.456  9.13191 18.56153 -5.11272
 3.36 6.00 -5.426 -5.425 -5.423 -5.419 -5.411  9.26600 18.76200 -4.91222
 3.36 6.25 -5.366 -5.365 -5.364 -5.360 -5.353  9.42724 19.01237 -4.66189
 3.36 6.50 -5.303 -5.302 -5.301 -5.297 -5.290  9.58501 19.26269 -4.41162
 3.36 6.75 -5.236 -5.235 -5.234 -5.230 -5.224  9.73969 19.51300 -4.16136
 3.36 7.00 -5.163 -5.162 -5.161 -5.157 -5.152  9.89437 19.76328 -3.91116
 3.36 7.25 -5.084 -5.084 -5.083 -5.080 -5.075 10.04952 20.01334 -3.66104
 3.36 7.50 -5.000 -5.000 -4.999 -4.996 -4.992 10.20520 20.26340 -3.41094
 3.36 7.75 -4.912 -4.912 -4.911 -4.909 -4.905 10.36214 20.51351 -3.16086
 3.36 8.00 -4.821 -4.820 -4.820 -4.818 -4.815 10.52009 20.76365 -2.91080
 3.38-2.00 -6.114 -6.109 -6.098 -6.077 -6.049  3.00561 10.47986-13.19450
 3.38-1.50 -6.128 -6.122 -6.112 -6.091 -6.063  3.45773 10.97987-12.69443
 3.38-1.00 -6.142 -6.137 -6.126 -6.104 -6.076  3.88677 11.48001-12.19436
 3.38-0.50 -6.148 -6.141 -6.131 -6.109 -6.080  4.28959 11.98028-11.69400
 3.38 0.00 -6.132 -6.126 -6.114 -6.092 -6.061  4.66257 12.48130-11.19308
 3.38 0.50 -6.089 -6.083 -6.071 -6.048 -6.017  5.01030 12.98430-10.69016
 3.38 1.00 -6.027 -6.021 -6.010 -5.988 -5.958  5.34616 13.49318-10.18125
 3.38 1.25 -5.992 -5.987 -5.977 -5.956 -5.928  5.51721 13.75227 -9.92211
 3.38 1.50 -5.959 -5.955 -5.945 -5.927 -5.901  5.69232 14.01536 -9.65896
 3.38 1.75 -5.928 -5.924 -5.916 -5.900 -5.876  5.87897 14.28468 -9.38965
 3.38 2.00 -5.900 -5.896 -5.889 -5.875 -5.855  6.07664 14.55763 -9.11674
 3.38 2.25 -5.873 -5.870 -5.864 -5.852 -5.834  6.29054 14.83445 -8.83997
 3.38 2.50 -5.848 -5.845 -5.840 -5.829 -5.813  6.51322 15.11126 -8.56320
 3.38 2.75 -5.822 -5.819 -5.814 -5.804 -5.790  6.74474 15.38608 -8.28835
 3.38 3.00 -5.794 -5.792 -5.788 -5.779 -5.766  6.97626 15.65877 -8.01556
 3.38 3.20 -5.771 -5.769 -5.765 -5.757 -5.745  7.15821 15.87386 -7.80052
 3.38 3.40 -5.747 -5.745 -5.742 -5.734 -5.722  7.33735 16.08685 -7.58757
 3.38 3.60 -5.721 -5.720 -5.716 -5.710 -5.699  7.51238 16.29765 -7.37682
 3.38 3.80 -5.694 -5.692 -5.690 -5.684 -5.674  7.68292 16.50660 -7.16790
 3.38 4.00 -5.665 -5.664 -5.662 -5.656 -5.647  7.85009 16.71391 -6.96059
 3.38 4.20 -5.637 -5.636 -5.634 -5.629 -5.620  8.01397 16.91977 -6.75462
 3.38 4.40 -5.607 -5.606 -5.604 -5.599 -5.590  8.17609 17.12458 -6.54974
 3.38 4.60 -5.575 -5.574 -5.571 -5.566 -5.558  8.33663 17.32842 -6.34594
 3.38 4.80 -5.540 -5.539 -5.537 -5.532 -5.523  8.49622 17.53157 -6.14289
 3.38 5.00 -5.502 -5.501 -5.499 -5.494 -5.485  8.65485 17.73408 -5.94044
 3.38 5.20 -5.461 -5.460 -5.458 -5.453 -5.445  8.81319 17.93605 -5.73840
 3.38 5.40 -5.417 -5.416 -5.414 -5.409 -5.401  8.97033 18.13764 -5.53673
 3.38 5.60 -5.370 -5.370 -5.368 -5.363 -5.355  9.12539 18.33888 -5.33546
 3.38 5.80 -5.321 -5.321 -5.319 -5.314 -5.307  9.27655 18.53988 -5.13445
 3.38 6.00 -5.271 -5.270 -5.269 -5.264 -5.257  9.42407 18.74068 -4.93367
 3.38 6.25 -5.204 -5.203 -5.201 -5.198 -5.191  9.59986 18.99146 -4.68297
 3.38 6.50 -5.134 -5.134 -5.132 -5.129 -5.123  9.76871 19.24205 -4.43239
 3.38 6.75 -5.060 -5.059 -5.058 -5.055 -5.050  9.93042 19.49247 -4.18186
 3.38 7.00 -4.982 -4.982 -4.981 -4.978 -4.973 10.08814 19.74280 -3.93144
 3.38 7.25 -4.900 -4.900 -4.899 -4.896 -4.892 10.24222 19.99308 -3.68127
 3.38 7.50 -4.814 -4.813 -4.812 -4.810 -4.806 10.39585 20.24329 -3.43109
 3.38 7.75 -4.723 -4.723 -4.722 -4.720 -4.717 10.54935 20.49343 -3.18090
 3.38 8.00 -4.629 -4.629 -4.628 -4.626 -4.623 10.70260 20.74351 -2.93070
 3.40-2.00 -6.047 -6.041 -6.029 -6.008 -5.980  3.02036 10.45984-13.21446
 3.40-1.50 -6.048 -6.041 -6.030 -6.008 -5.979  3.50420 10.95985-12.71444
 3.40-1.00 -6.048 -6.042 -6.031 -6.009 -5.979  3.97039 11.46000-12.21446
 3.40-0.50 -6.042 -6.036 -6.024 -6.001 -5.970  4.41296 11.96000-11.71444
 3.40 0.00 -6.017 -6.011 -5.999 -5.975 -5.943  4.83123 12.46045-11.21396
 3.40 0.50 -5.969 -5.962 -5.950 -5.926 -5.894  5.22063 12.96147-10.71287
 3.40 1.00 -5.905 -5.899 -5.887 -5.865 -5.836  5.58172 13.46494-10.20950
 3.40 1.25 -5.869 -5.864 -5.854 -5.834 -5.807  5.75295 13.71868 -9.95577
 3.40 1.50 -5.835 -5.830 -5.821 -5.804 -5.779  5.92418 13.97460 -9.69984
 3.40 1.75 -5.802 -5.798 -5.790 -5.774 -5.753  6.09560 14.23463 -9.43976
 3.40 2.00 -5.772 -5.768 -5.761 -5.748 -5.728  6.26741 14.49886 -9.17548
 3.40 2.25 -5.745 -5.741 -5.735 -5.723 -5.706  6.44790 14.76929 -8.90515
 3.40 2.50 -5.719 -5.716 -5.711 -5.700 -5.684  6.63639 15.04297 -8.63153
 3.40 2.75 -5.694 -5.691 -5.686 -5.675 -5.661  6.83746 15.31984 -8.35461
 3.40 3.00 -5.666 -5.663 -5.659 -5.649 -5.636  7.04766 15.59671 -8.07769
 3.40 3.20 -5.641 -5.638 -5.635 -5.626 -5.613  7.22503 15.81640 -7.85803
 3.40 3.40 -5.614 -5.612 -5.608 -5.600 -5.587  7.40240 16.03453 -7.63995
 3.40 3.60 -5.585 -5.583 -5.580 -5.572 -5.561  7.57973 16.25051 -7.42400
 3.40 3.80 -5.554 -5.552 -5.550 -5.543 -5.532  7.75685 16.46395 -7.21053
 3.40 4.00 -5.521 -5.520 -5.518 -5.512 -5.503  7.93374 16.67532 -6.99913
 3.40 4.20 -5.491 -5.490 -5.488 -5.482 -5.473  8.10517 16.88462 -6.78987
 3.40 4.40 -5.459 -5.458 -5.456 -5.450 -5.441  8.27365 17.09235 -6.58215
 3.40 4.60 -5.425 -5.424 -5.422 -5.417 -5.408  8.43897 17.29854 -6.37588
 3.40 4.80 -5.390 -5.389 -5.387 -5.382 -5.373  8.60178 17.50360 -6.17071
 3.40 5.00 -5.351 -5.351 -5.349 -5.344 -5.335  8.76253 17.70766 -5.96658
 3.40 5.20 -5.311 -5.310 -5.308 -5.303 -5.295  8.92169 17.91086 -5.76342
 3.40 5.40 -5.266 -5.265 -5.263 -5.259 -5.251  9.07959 18.11349 -5.56085
 3.40 5.60 -5.218 -5.217 -5.215 -5.211 -5.203  9.23662 18.31558 -5.35885
 3.40 5.80 -5.165 -5.164 -5.162 -5.158 -5.151  9.39263 18.51730 -5.15719
 3.40 6.00 -5.109 -5.108 -5.106 -5.103 -5.096  9.54716 18.71867 -4.95585
 3.40 6.25 -5.033 -5.033 -5.031 -5.028 -5.022  9.73605 18.96994 -4.70448
 3.40 6.50 -4.953 -4.952 -4.951 -4.948 -4.942  9.91971 19.22089 -4.45346
 3.40 6.75 -4.869 -4.869 -4.868 -4.865 -4.860 10.09504 19.47159 -4.20284
 3.40 7.00 -4.783 -4.782 -4.781 -4.779 -4.775 10.26364 19.72214 -3.95234
 3.40 7.25 -4.694 -4.693 -4.693 -4.690 -4.687 10.42501 19.97262 -3.70187
 3.40 7.50 -4.603 -4.602 -4.602 -4.599 -4.596 10.58206 20.22298 -3.45149
 3.40 7.75 -4.510 -4.510 -4.509 -4.507 -4.504 10.73639 20.47320 -3.20126
 3.40 8.00 -4.416 -4.416 -4.415 -4.413 -4.411 10.88745 20.72329 -2.95117
 3.42-2.00 -5.992 -5.986 -5.975 -5.954 -5.926  3.03342 10.43996-13.23441
 3.42-1.50 -5.988 -5.981 -5.970 -5.948 -5.918  3.51188 10.93992-12.73448
 3.42-1.00 -5.978 -5.972 -5.960 -5.937 -5.907  3.99686 11.43996-12.23441
 3.42-0.50 -5.960 -5.954 -5.941 -5.918 -5.886  4.47261 11.93997-11.73448
 3.42 0.00 -5.926 -5.919 -5.906 -5.882 -5.850  4.92773 12.44012-11.23426
 3.42 0.50 -5.870 -5.863 -5.851 -5.827 -5.795  5.35851 12.94052-10.73377
 3.42 1.00 -5.800 -5.794 -5.784 -5.762 -5.734  5.76268 13.44185-10.23255
 3.42 1.25 -5.762 -5.756 -5.747 -5.728 -5.702  5.95338 13.69333 -9.98108
 3.42 1.50 -5.724 -5.719 -5.711 -5.694 -5.671  6.13767 13.94576 -9.72862
 3.42 1.75 -5.685 -5.681 -5.674 -5.659 -5.638  6.31495 14.20019 -9.47419
 3.42 2.00 -5.649 -5.645 -5.639 -5.625 -5.607  6.48982 14.45713 -9.21724
 3.42 2.25 -5.614 -5.610 -5.604 -5.593 -5.575  6.66285 14.71841 -8.95598
 3.42 2.50 -5.581 -5.578 -5.572 -5.561 -5.545  6.83588 14.98403 -8.69037
 3.42 2.75 -5.550 -5.547 -5.542 -5.531 -5.516  7.01393 15.25601 -8.41834
 3.42 3.00 -5.520 -5.517 -5.513 -5.503 -5.489  7.19701 15.53058 -8.14375
 3.42 3.20 -5.495 -5.493 -5.488 -5.479 -5.466  7.34991 15.75204 -7.92235
 3.42 3.40 -5.468 -5.466 -5.462 -5.454 -5.441  7.50768 15.97349 -7.70094
 3.42 3.60 -5.439 -5.437 -5.434 -5.426 -5.415  7.67167 16.19399 -7.48047
 3.42 3.80 -5.407 -5.406 -5.403 -5.397 -5.386  7.83989 16.41218 -7.26225
 3.42 4.00 -5.373 -5.372 -5.369 -5.364 -5.354  8.01030 16.62859 -7.04581
 3.42 4.20 -5.339 -5.338 -5.336 -5.330 -5.321  8.18261 16.84226 -6.83213
 3.42 4.40 -5.303 -5.302 -5.300 -5.295 -5.287  8.35491 17.05390 -6.62048
 3.42 4.60 -5.266 -5.265 -5.263 -5.259 -5.250  8.52587 17.26347 -6.41090
 3.42 4.80 -5.228 -5.227 -5.225 -5.220 -5.212  8.69388 17.47137 -6.20297
 3.42 5.00 -5.187 -5.186 -5.184 -5.179 -5.171  8.85974 17.67779 -5.99654
 3.42 5.20 -5.143 -5.143 -5.141 -5.136 -5.129  9.02271 17.88294 -5.79143
 3.42 5.40 -5.097 -5.096 -5.095 -5.091 -5.083  9.18367 18.08717 -5.58722
 3.42 5.60 -5.047 -5.046 -5.044 -5.040 -5.033  9.34274 18.29051 -5.38383
 3.42 5.80 -4.992 -4.991 -4.990 -4.986 -4.979  9.50028 18.49324 -5.18102
 3.42 6.00 -4.933 -4.932 -4.931 -4.927 -4.921  9.65629 18.69539 -4.97881
 3.42 6.25 -4.852 -4.852 -4.850 -4.847 -4.842  9.84984 18.94738 -4.72686
 3.42 6.50 -4.765 -4.765 -4.764 -4.761 -4.756 10.04060 19.19893 -4.47534
 3.42 6.75 -4.672 -4.672 -4.671 -4.668 -4.664 10.22736 19.45024 -4.22405
 3.42 7.00 -4.576 -4.576 -4.575 -4.573 -4.569 10.40909 19.70122 -3.97306
 3.42 7.25 -4.478 -4.478 -4.477 -4.475 -4.472 10.58284 19.95176 -3.72243
 3.42 7.50 -4.381 -4.380 -4.379 -4.378 -4.375 10.75004 20.20222 -3.47198
 3.42 7.75 -4.284 -4.283 -4.283 -4.281 -4.279 10.91113 20.45265 -3.22164
 3.42 8.00 -4.188 -4.187 -4.187 -4.185 -4.184 11.06595 20.70303 -2.97143
 3.44-2.00 -5.905 -5.900 -5.891 -5.873 -5.849  3.21617 10.41996-13.25446
 3.44-1.50 -5.922 -5.917 -5.906 -5.886 -5.858  3.59649 10.91991-12.75449
 3.44-1.00 -5.919 -5.913 -5.902 -5.879 -5.850  4.02857 11.41996-12.25446
 3.44-0.50 -5.898 -5.891 -5.878 -5.855 -5.824  4.49471 11.91991-11.75449
 3.44 0.00 -5.855 -5.848 -5.835 -5.811 -5.778  4.97011 12.41996-11.25438
 3.44 0.50 -5.792 -5.785 -5.773 -5.749 -5.717  5.43409 12.92012-10.75424
 3.44 1.00 -5.714 -5.709 -5.699 -5.678 -5.650  5.87552 13.42062-10.25368
 3.44 1.25 -5.672 -5.667 -5.658 -5.639 -5.615  6.08708 13.67120-10.00305
 3.44 1.50 -5.629 -5.624 -5.616 -5.600 -5.578  6.29204 13.92221 -9.75203
 3.44 1.75 -5.584 -5.580 -5.573 -5.558 -5.538  6.48952 14.17408 -9.50021
 3.44 2.00 -5.539 -5.535 -5.528 -5.515 -5.497  6.68043 14.42716 -9.24726
 3.44 2.25 -5.493 -5.490 -5.483 -5.471 -5.454  6.86423 14.68240 -8.99206
 3.44 2.50 -5.448 -5.445 -5.439 -5.427 -5.412  7.04415 14.94047 -8.73400
 3.44 2.75 -5.404 -5.401 -5.396 -5.385 -5.370  7.22035 15.20356 -8.47088
 3.44 3.00 -5.363 -5.360 -5.355 -5.346 -5.331  7.39655 15.47114 -8.20329
 3.44 3.20 -5.331 -5.329 -5.324 -5.315 -5.302  7.53878 15.69014 -7.98443
 3.44 3.40 -5.301 -5.299 -5.295 -5.286 -5.274  7.68244 15.91006 -7.76455
 3.44 3.60 -5.270 -5.268 -5.265 -5.258 -5.247  7.82847 16.13089 -7.54365
 3.44 3.80 -5.238 -5.237 -5.234 -5.228 -5.218  7.97834 16.35194 -7.32249
 3.44 4.00 -5.205 -5.204 -5.201 -5.196 -5.187  8.13162 16.57299 -7.10133
 3.44 4.20 -5.172 -5.171 -5.168 -5.163 -5.155  8.29012 16.79122 -6.88309
 3.44 4.40 -5.135 -5.134 -5.132 -5.128 -5.120  8.45150 17.00752 -6.66681
 3.44 4.60 -5.095 -5.094 -5.092 -5.088 -5.080  8.61640 17.22155 -6.45282
 3.44 4.80 -5.053 -5.053 -5.051 -5.047 -5.039  8.78268 17.43328 -6.24110
 3.44 5.00 -5.008 -5.007 -5.006 -5.002 -4.995  8.94895 17.64306 -6.03133
 3.44 5.20 -4.960 -4.960 -4.958 -4.954 -4.948  9.11416 17.85092 -5.82343
 3.44 5.40 -4.910 -4.909 -4.908 -4.904 -4.898  9.27833 18.05742 -5.61689
 3.44 5.60 -4.857 -4.856 -4.854 -4.851 -4.845  9.44092 18.26266 -5.41168
 3.44 5.80 -4.799 -4.798 -4.797 -4.794 -4.788  9.60141 18.46699 -5.20740
 3.44 6.00 -4.738 -4.737 -4.736 -4.733 -4.728  9.76020 18.67043 -5.00397
 3.44 6.25 -4.655 -4.655 -4.654 -4.651 -4.646  9.95631 18.92364 -4.75064
 3.44 6.50 -4.566 -4.565 -4.564 -4.562 -4.558 10.14983 19.17609 -4.49812
 3.44 6.75 -4.470 -4.470 -4.469 -4.466 -4.462 10.34115 19.42805 -4.24624
 3.44 7.00 -4.368 -4.368 -4.367 -4.365 -4.362 10.52930 19.67952 -3.99482
 3.44 7.25 -4.264 -4.264 -4.263 -4.261 -4.259 10.71324 19.93049 -3.74377
 3.44 7.50 -4.160 -4.159 -4.159 -4.157 -4.155 10.89204 20.18127 -3.49295
 3.44 7.75 -4.057 -4.057 -4.056 -4.055 -4.053 11.06342 20.43196 -3.24230
 3.44 8.00 -3.957 -3.957 -3.957 -3.955 -3.953 11.22814 20.68251 -2.99183
 3.46-2.00 -5.737 -5.733 -5.728 -5.717 -5.701  3.63979 10.39985-13.27450
 3.46-1.50 -5.792 -5.789 -5.781 -5.766 -5.744  3.92962 10.89988-12.77443
 3.46-1.00 -5.826 -5.820 -5.811 -5.792 -5.766  4.24822 11.39985-12.27442
 3.46-0.50 -5.828 -5.822 -5.810 -5.788 -5.759  4.61045 11.89988-11.77443
 3.46 0.00 -5.794 -5.788 -5.776 -5.752 -5.720  5.02408 12.39985-11.27442
 3.46 0.50 -5.729 -5.722 -5.711 -5.687 -5.656  5.47553 12.89998-10.77443
 3.46 1.00 -5.646 -5.640 -5.630 -5.610 -5.582  5.93732 13.40019-10.27417
 3.46 1.25 -5.599 -5.594 -5.585 -5.568 -5.543  6.16357 13.65042-10.02397
 3.46 1.50 -5.551 -5.547 -5.539 -5.522 -5.501  6.38561 13.90081 -9.77366
 3.46 1.75 -5.500 -5.496 -5.488 -5.474 -5.455  6.60154 14.15160 -9.52286
 3.46 2.00 -5.446 -5.443 -5.436 -5.422 -5.405  6.81151 14.40295 -9.27148
 3.46 2.25 -5.390 -5.386 -5.381 -5.368 -5.351  7.01486 14.65521 -9.01918
 3.46 2.50 -5.333 -5.329 -5.323 -5.312 -5.297  7.21192 14.90886 -8.76548
 3.46 2.75 -5.274 -5.271 -5.266 -5.256 -5.241  7.40202 15.16536 -8.50896
 3.46 3.00 -5.216 -5.213 -5.209 -5.199 -5.186  7.58749 15.42521 -8.24911
 3.46 3.20 -5.170 -5.168 -5.164 -5.155 -5.143  7.73229 15.63709 -8.03726
 3.46 3.40 -5.126 -5.124 -5.121 -5.114 -5.103  7.87647 15.85179 -7.82260
 3.46 3.60 -5.085 -5.083 -5.080 -5.073 -5.063  8.02002 16.07050 -7.60390
 3.46 3.80 -5.045 -5.043 -5.041 -5.035 -5.027  8.16344 16.29112 -7.38325
 3.46 4.00 -5.007 -5.006 -5.004 -4.999 -4.991  8.30685 16.51175 -7.16260
 3.46 4.20 -4.970 -4.969 -4.967 -4.963 -4.956  8.45212 16.73232 -6.94202
 3.46 4.40 -4.933 -4.932 -4.930 -4.927 -4.920  8.59914 16.95277 -6.72155
 3.46 4.60 -4.893 -4.893 -4.891 -4.887 -4.881  8.74878 17.17181 -6.50253
 3.46 4.80 -4.851 -4.850 -4.849 -4.845 -4.839  8.90172 17.38796 -6.28639
 3.46 5.00 -4.805 -4.804 -4.803 -4.800 -4.794  9.05729 17.60206 -6.07232
 3.46 5.20 -4.756 -4.755 -4.754 -4.750 -4.745  9.21667 17.81359 -5.86081
 3.46 5.40 -4.703 -4.703 -4.701 -4.698 -4.693  9.37655 18.02328 -5.65114
 3.46 5.60 -4.647 -4.646 -4.645 -4.642 -4.637  9.53689 18.23113 -5.44327
 3.46 5.80 -4.587 -4.587 -4.586 -4.583 -4.578  9.69732 18.43761 -5.23677
 3.46 6.00 -4.524 -4.523 -4.522 -4.520 -4.515  9.85775 18.64286 -5.03152
 3.46 6.25 -4.441 -4.440 -4.439 -4.437 -4.433 10.05591 18.89804 -4.77637
 3.46 6.50 -4.351 -4.351 -4.350 -4.347 -4.344 10.25212 19.15198 -4.52245
 3.46 6.75 -4.256 -4.256 -4.255 -4.253 -4.250 10.44603 19.40488 -4.26950
 3.46 7.00 -4.156 -4.155 -4.155 -4.153 -4.150 10.63739 19.65706 -4.01728
 3.46 7.25 -4.051 -4.051 -4.050 -4.049 -4.046 10.82603 19.90863 -3.76567
 3.46 7.50 -3.945 -3.944 -3.944 -3.942 -3.940 11.01115 20.15987 -3.51442
 3.46 7.75 -3.839 -3.838 -3.838 -3.837 -3.834 11.19124 20.41091 -3.26340
 3.46 8.00 -3.735 -3.734 -3.734 -3.733 -3.731 11.36680 20.66172 -3.01265
 3.48-2.00 -5.505 -5.503 -5.502 -5.498 -5.492  4.14922 10.37967-13.29474
 3.48-1.50 -5.590 -5.588 -5.585 -5.577 -5.567  4.41010 10.87955-12.79480
 3.48-1.00 -5.659 -5.655 -5.650 -5.638 -5.622  4.67961 11.37967-12.29473
 3.48-0.50 -5.700 -5.696 -5.688 -5.672 -5.650  4.96365 11.87955-11.79480
 3.48 0.00 -5.703 -5.698 -5.687 -5.668 -5.641  5.27277 12.37967-11.29474
 3.48 0.50 -5.661 -5.655 -5.644 -5.623 -5.595  5.62086 12.87961-10.79480
 3.48 1.00 -5.585 -5.580 -5.570 -5.551 -5.525  6.01745 13.37967-10.29465
 3.48 1.25 -5.538 -5.534 -5.525 -5.507 -5.484  6.23273 13.62977-10.04459
 3.48 1.50 -5.487 -5.483 -5.474 -5.458 -5.437  6.45179 13.87996 -9.79453
 3.48 1.75 -5.431 -5.427 -5.420 -5.406 -5.387  6.67369 14.13033 -9.54417
 3.48 2.00 -5.371 -5.368 -5.361 -5.348 -5.331  6.89559 14.38094 -9.29354
 3.48 2.25 -5.307 -5.304 -5.299 -5.286 -5.270  7.11297 14.63189 -9.04258
 3.48 2.50 -5.240 -5.237 -5.231 -5.220 -5.206  7.32634 14.88344 -8.79102
 3.48 2.75 -5.168 -5.166 -5.160 -5.151 -5.137  7.53400 15.13643 -8.53802
 3.48 3.00 -5.093 -5.091 -5.086 -5.078 -5.066  7.73624 15.39129 -8.28316
 3.48 3.20 -5.031 -5.029 -5.025 -5.018 -5.007  7.89349 15.59749 -8.07690
 3.48 3.40 -4.969 -4.967 -4.964 -4.958 -4.948  8.04762 15.80610 -7.86821
 3.48 3.60 -4.908 -4.907 -4.904 -4.899 -4.890  8.19858 16.01801 -7.65629
 3.48 3.80 -4.849 -4.848 -4.846 -4.841 -4.834  8.34717 16.23332 -7.44104
 3.48 4.00 -4.794 -4.793 -4.791 -4.787 -4.780  8.49374 16.45117 -7.22323
 3.48 4.20 -4.743 -4.742 -4.741 -4.737 -4.731  8.63812 16.67243 -7.00193
 3.48 4.40 -4.695 -4.695 -4.693 -4.690 -4.685  8.78207 16.89369 -6.78064
 3.48 4.60 -4.650 -4.649 -4.648 -4.645 -4.640  8.92560 17.11464 -6.55968
 3.48 4.80 -4.605 -4.605 -4.604 -4.601 -4.596  9.06903 17.33452 -6.33983
 3.48 5.00 -4.560 -4.559 -4.558 -4.556 -4.551  9.21245 17.55340 -6.12102
 3.48 5.20 -4.512 -4.512 -4.511 -4.508 -4.504  9.35858 17.76916 -5.90525
 3.48 5.40 -4.462 -4.462 -4.460 -4.458 -4.454  9.50663 17.98281 -5.69158
 3.48 5.60 -4.408 -4.408 -4.407 -4.405 -4.401  9.65740 18.19422 -5.48014
 3.48 5.80 -4.351 -4.350 -4.349 -4.347 -4.344  9.81040 18.40371 -5.27063
 3.48 6.00 -4.290 -4.290 -4.289 -4.286 -4.283  9.96468 18.61151 -5.06283
 3.48 6.25 -4.209 -4.209 -4.208 -4.206 -4.203 10.15911 18.86921 -4.80520
 3.48 6.50 -4.123 -4.123 -4.122 -4.120 -4.117 10.35353 19.12516 -4.54929
 3.48 6.75 -4.032 -4.031 -4.030 -4.029 -4.026 10.54723 19.37963 -4.29473
 3.48 7.00 -3.935 -3.935 -3.934 -3.932 -3.930 10.74005 19.63307 -4.04125
 3.48 7.25 -3.835 -3.834 -3.834 -3.832 -3.830 10.93081 19.88569 -3.78866
 3.48 7.50 -3.731 -3.731 -3.731 -3.729 -3.727 11.11926 20.13767 -3.53671
 3.48 7.75 -3.626 -3.626 -3.625 -3.624 -3.622 11.30414 20.38919 -3.28518
 3.48 8.00 -3.521 -3.521 -3.521 -3.519 -3.517 11.48586 20.64018 -3.03414
 3.50-2.00 -5.240 -5.239 -5.239 -5.238 -5.237  4.64611 10.36003-13.31444
 3.50-1.50 -5.345 -5.344 -5.343 -5.341 -5.339  4.89933 10.85992-12.81446
 3.50-1.00 -5.437 -5.436 -5.434 -5.430 -5.424  5.15503 11.36003-12.31444
 3.50-0.50 -5.509 -5.507 -5.504 -5.497 -5.486  5.41531 11.85992-11.81446
 3.50 0.00 -5.549 -5.546 -5.541 -5.529 -5.513  5.68359 12.36003-11.31444
 3.50 0.50 -5.545 -5.542 -5.534 -5.520 -5.500  5.96553 12.85992-10.81446
 3.50 1.00 -5.497 -5.493 -5.486 -5.471 -5.451  6.27091 13.36003-10.31435
 3.50 1.25 -5.460 -5.456 -5.449 -5.434 -5.416  6.43654 13.61006-10.06427
 3.50 1.50 -5.414 -5.410 -5.404 -5.390 -5.372  6.61204 13.86010 -9.81418
 3.50 1.75 -5.362 -5.359 -5.352 -5.339 -5.322  6.79999 14.11020 -9.56406
 3.50 2.00 -5.302 -5.299 -5.293 -5.281 -5.265  6.99726 14.36040 -9.31390
 3.50 2.25 -5.236 -5.234 -5.228 -5.217 -5.202  7.20467 14.61086 -9.06349
 3.50 2.50 -5.163 -5.161 -5.156 -5.146 -5.131  7.41481 14.86166 -8.81276
 3.50 2.75 -5.084 -5.082 -5.077 -5.068 -5.055  7.62686 15.11304 -8.56135
 3.50 3.00 -4.996 -4.994 -4.991 -4.983 -4.972  7.83891 15.36530 -8.30901
 3.50 3.20 -4.921 -4.919 -4.916 -4.909 -4.900  8.00580 15.56834 -8.10595
 3.50 3.40 -4.842 -4.841 -4.838 -4.833 -4.824  8.17055 15.77287 -7.90142
 3.50 3.60 -4.761 -4.760 -4.757 -4.753 -4.746  8.33274 15.97944 -7.69487
 3.50 3.80 -4.679 -4.678 -4.676 -4.672 -4.666  8.49182 16.18896 -7.48536
 3.50 4.00 -4.598 -4.598 -4.596 -4.593 -4.588  8.64807 16.40123 -7.27311
 3.50 4.20 -4.523 -4.523 -4.522 -4.519 -4.514  8.80120 16.61787 -7.05646
 3.50 4.40 -4.453 -4.453 -4.452 -4.449 -4.445  8.95157 16.83642 -6.83791
 3.50 4.60 -4.390 -4.389 -4.388 -4.386 -4.382  9.09890 17.05714 -6.61719
 3.50 4.80 -4.332 -4.332 -4.331 -4.329 -4.325  9.24389 17.27862 -6.39572
 3.50 5.00 -4.279 -4.278 -4.277 -4.275 -4.272  9.38703 17.50010 -6.17425
 3.50 5.20 -4.229 -4.228 -4.228 -4.226 -4.222  9.52799 17.71959 -5.95481
 3.50 5.40 -4.180 -4.179 -4.178 -4.177 -4.174  9.66894 17.93742 -5.73702
 3.50 5.60 -4.130 -4.130 -4.129 -4.127 -4.124  9.81030 18.15301 -5.52144
 3.50 5.80 -4.079 -4.078 -4.078 -4.076 -4.073  9.95289 18.36606 -5.30836
 3.50 6.00 -4.025 -4.025 -4.024 -4.022 -4.019 10.09656 18.57703 -5.09734
 3.50 6.25 -3.953 -3.953 -3.952 -3.950 -3.948 10.27986 18.83797 -4.83636
 3.50 6.50 -3.875 -3.875 -3.874 -3.873 -3.871 10.46538 19.09656 -4.57774
 3.50 6.75 -3.793 -3.792 -3.792 -3.790 -3.788 10.65322 19.35321 -4.32113
 3.50 7.00 -3.705 -3.704 -3.704 -3.702 -3.700 10.84142 19.60831 -4.06606
 3.50 7.25 -3.612 -3.612 -3.611 -3.610 -3.608 11.02985 19.86207 -3.81229
 3.50 7.50 -3.515 -3.515 -3.514 -3.513 -3.511 11.21827 20.11494 -3.55941
 3.50 7.75 -3.415 -3.415 -3.414 -3.413 -3.411 11.40447 20.36725 -3.30710
 3.50 8.00 -3.314 -3.313 -3.313 -3.312 -3.310 11.58917 20.61889 -3.05547
 3.52-2.00 -4.952 -4.952 -4.952 -4.952 -4.952  5.13577 10.33985-13.33442
 3.52-1.50 -5.074 -5.074 -5.074 -5.074 -5.074  5.38668 10.83992-12.83446
 3.52-1.00 -5.186 -5.185 -5.185 -5.184 -5.182  5.63839 11.33985-12.33442
 3.52-0.50 -5.280 -5.280 -5.278 -5.276 -5.274  5.89154 11.83992-11.83446
 3.52 0.00 -5.348 -5.347 -5.344 -5.341 -5.335  6.14706 12.33985-11.33442
 3.52 0.50 -5.375 -5.374 -5.370 -5.364 -5.356  6.40705 12.83992-10.83446
 3.52 1.00 -5.356 -5.354 -5.350 -5.343 -5.333  6.67468 13.34005-10.33442
 3.52 1.25 -5.331 -5.329 -5.325 -5.317 -5.306  6.81297 13.59001-10.08444
 3.52 1.50 -5.297 -5.294 -5.290 -5.282 -5.270  6.95535 13.83998 -9.83446
 3.52 1.75 -5.254 -5.252 -5.247 -5.239 -5.227  7.10337 14.09009 -9.58434
 3.52 2.00 -5.203 -5.201 -5.196 -5.187 -5.176  7.25792 14.34025 -9.33414
 3.52 2.25 -5.144 -5.142 -5.137 -5.129 -5.117  7.42107 14.59042 -9.08390
 3.52 2.50 -5.076 -5.073 -5.069 -5.061 -5.050  7.59295 14.84067 -8.83357
 3.52 2.75 -4.996 -4.994 -4.991 -4.984 -4.974  7.77549 15.09131 -8.58294
 3.52 3.00 -4.906 -4.904 -4.901 -4.895 -4.886  7.96581 15.34242 -8.33189
 3.52 3.20 -4.826 -4.824 -4.821 -4.816 -4.808  8.12416 15.54387 -8.13046
 3.52 3.40 -4.737 -4.736 -4.734 -4.729 -4.722  8.28434 15.74610 -7.92823
 3.52 3.60 -4.643 -4.642 -4.640 -4.636 -4.630  8.44644 15.94940 -7.72494
 3.52 3.80 -4.543 -4.542 -4.541 -4.538 -4.533  8.60909 16.15460 -7.51975
 3.52 4.00 -4.441 -4.441 -4.440 -4.437 -4.433  8.77173 16.36173 -7.31265
 3.52 4.20 -4.341 -4.341 -4.340 -4.337 -4.334  8.93289 16.57225 -7.10210
 3.52 4.40 -4.244 -4.244 -4.243 -4.241 -4.238  9.09250 16.78562 -6.88871
 3.52 4.60 -4.154 -4.154 -4.153 -4.152 -4.149  9.24979 17.00299 -6.67136
 3.52 4.80 -4.073 -4.072 -4.072 -4.070 -4.068  9.40358 17.22277 -6.45163
 3.52 5.00 -4.000 -4.000 -3.999 -3.997 -3.995  9.55425 17.44326 -6.23114
 3.52 5.20 -3.936 -3.935 -3.935 -3.933 -3.931  9.70053 17.66425 -6.01013
 3.52 5.40 -3.879 -3.879 -3.878 -3.877 -3.874  9.84405 17.88523 -5.78911
 3.52 5.60 -3.826 -3.826 -3.825 -3.824 -3.822  9.98402 18.10497 -5.56938
 3.52 5.80 -3.776 -3.776 -3.776 -3.774 -3.773 10.12252 18.32195 -5.35242
 3.52 6.00 -3.728 -3.727 -3.727 -3.726 -3.724 10.26103 18.53694 -5.13745
 3.52 6.25 -3.666 -3.665 -3.665 -3.664 -3.662 10.43420 18.80200 -4.87229
 3.52 6.50 -3.600 -3.600 -3.600 -3.598 -3.596 10.60746 19.06409 -4.61013
 3.52 6.75 -3.531 -3.530 -3.530 -3.529 -3.527 10.78395 19.32356 -4.35072
 3.52 7.00 -3.456 -3.456 -3.455 -3.454 -3.452 10.96237 19.58092 -4.09340
 3.52 7.25 -3.375 -3.375 -3.374 -3.373 -3.372 11.14281 19.83639 -3.83781
 3.52 7.50 -3.290 -3.289 -3.289 -3.288 -3.286 11.32428 20.09061 -3.58353
 3.52 7.75 -3.200 -3.200 -3.199 -3.198 -3.196 11.50634 20.34403 -3.33018
 3.52 8.00 -3.107 -3.106 -3.106 -3.105 -3.103 11.68913 20.59649 -3.07790
 3.54-2.00 -4.650 -4.650 -4.650 -4.650 -4.650  5.60531 10.31994-13.35438
 3.54-1.50 -4.788 -4.788 -4.788 -4.788 -4.787  5.85558 10.81987-12.85449
 3.54-1.00 -4.914 -4.914 -4.914 -4.914 -4.914  6.10619 11.31994-12.35438
 3.54-0.50 -5.026 -5.026 -5.026 -5.025 -5.025  6.35717 11.81987-11.85449
 3.54 0.00 -5.116 -5.116 -5.115 -5.115 -5.113  6.60906 12.31994-11.35438
 3.54 0.50 -5.168 -5.168 -5.167 -5.166 -5.163  6.86219 12.81994-10.85449
 3.54 1.00 -5.172 -5.172 -5.170 -5.168 -5.164  7.11793 13.31994-10.35438
 3.54 1.25 -5.155 -5.155 -5.153 -5.150 -5.147  7.24730 13.56994-10.10444
 3.54 1.50 -5.128 -5.128 -5.126 -5.123 -5.118  7.37803 13.81994 -9.85449
 3.54 1.75 -5.092 -5.092 -5.090 -5.086 -5.081  7.51065 14.07004 -9.60439
 3.54 2.00 -5.047 -5.047 -5.044 -5.041 -5.035  7.64562 14.32015 -9.35428
 3.54 2.25 -4.994 -4.993 -4.990 -4.987 -4.981  7.78383 14.57021 -9.10423
 3.54 2.50 -4.931 -4.930 -4.928 -4.923 -4.918  7.92598 14.82027 -8.85418
 3.54 2.75 -4.858 -4.857 -4.854 -4.850 -4.845  8.07344 15.07060 -8.60383
 3.54 3.00 -4.772 -4.771 -4.769 -4.765 -4.759  8.22686 15.32119 -8.35320
 3.54 3.20 -4.694 -4.693 -4.691 -4.687 -4.682  8.35500 15.52186 -8.15250
 3.54 3.40 -4.606 -4.605 -4.604 -4.601 -4.596  8.48793 15.72289 -7.95144
 3.54 3.60 -4.511 -4.510 -4.509 -4.505 -4.501  8.62616 15.92447 -7.74987
 3.54 3.80 -4.407 -4.407 -4.405 -4.403 -4.399  8.76938 16.12718 -7.54720
 3.54 4.00 -4.297 -4.297 -4.296 -4.294 -4.290  8.91698 16.33102 -7.34342
 3.54 4.20 -4.185 -4.185 -4.184 -4.182 -4.179  9.06938 16.53692 -7.13751
 3.54 4.40 -4.072 -4.071 -4.071 -4.069 -4.066  9.22387 16.74516 -6.92923
 3.54 4.60 -3.962 -3.961 -3.960 -3.959 -3.956  9.38067 16.95661 -6.71773
 3.54 4.80 -3.856 -3.856 -3.855 -3.854 -3.852  9.53821 17.17149 -6.50283
 3.54 5.00 -3.760 -3.759 -3.759 -3.758 -3.756  9.69574 17.38899 -6.28534
 3.54 5.20 -3.674 -3.674 -3.673 -3.672 -3.670  9.85023 17.61014 -6.06424
 3.54 5.40 -3.598 -3.598 -3.597 -3.596 -3.594 10.00208 17.83129 -5.84314
 3.54 5.60 -3.532 -3.531 -3.531 -3.530 -3.528 10.15005 18.05220 -5.62226
 3.54 5.80 -3.473 -3.473 -3.472 -3.472 -3.470 10.29370 18.27227 -5.40218
 3.54 6.00 -3.421 -3.421 -3.420 -3.420 -3.418 10.43409 18.49150 -5.18290
 3.54 6.25 -3.361 -3.361 -3.360 -3.359 -3.358 10.60449 18.76128 -4.91313
 3.54 6.50 -3.303 -3.302 -3.302 -3.301 -3.300 10.77357 19.02776 -4.64666
 3.54 6.75 -3.244 -3.244 -3.243 -3.243 -3.241 10.94174 19.29072 -4.38367
 3.54 7.00 -3.183 -3.183 -3.182 -3.181 -3.180 11.10992 19.55096 -4.12338
 3.54 7.25 -3.117 -3.116 -3.116 -3.115 -3.114 11.27976 19.80877 -3.86551
 3.54 7.50 -3.047 -3.046 -3.046 -3.045 -3.044 11.45086 20.06483 -3.60942
 3.54 7.75 -2.971 -2.971 -2.971 -2.970 -2.969 11.62344 20.31967 -3.35460
 3.54 8.00 -2.892 -2.891 -2.891 -2.890 -2.888 11.79741 20.57310 -3.10122
 3.56-2.00 -4.333 -4.333 -4.333 -4.333 -4.333  6.05614 10.29994-13.37448
 3.56-1.50 -4.486 -4.486 -4.486 -4.486 -4.486  6.30643 10.79982-12.87452
 3.56-1.00 -4.628 -4.628 -4.628 -4.628 -4.628  6.55654 11.29994-12.37448
 3.56-0.50 -4.756 -4.756 -4.756 -4.756 -4.756  6.80693 11.79982-11.87452
 3.56 0.00 -4.863 -4.863 -4.863 -4.863 -4.862  7.05767 12.29994-11.37448
 3.56 0.50 -4.935 -4.935 -4.935 -4.935 -4.934  7.30857 12.79982-10.87452
 3.56 1.00 -4.957 -4.957 -4.957 -4.956 -4.956  7.56062 13.29994-10.37448
 3.56 1.25 -4.946 -4.946 -4.946 -4.945 -4.944  7.68708 13.54988-10.12450
 3.56 1.50 -4.922 -4.922 -4.922 -4.921 -4.920  7.81398 13.79982 -9.87452
 3.56 1.75 -4.887 -4.886 -4.885 -4.885 -4.884  7.94159 14.04988 -9.62451
 3.56 2.00 -4.840 -4.839 -4.839 -4.838 -4.837  8.07004 14.29994 -9.37448
 3.56 2.25 -4.783 -4.783 -4.782 -4.781 -4.780  8.19954 14.54999 -9.12434
 3.56 2.50 -4.717 -4.717 -4.716 -4.714 -4.713  8.33041 14.80003 -8.87419
 3.56 2.75 -4.641 -4.640 -4.640 -4.638 -4.636  8.46326 15.05015 -8.62408
 3.56 3.00 -4.554 -4.554 -4.553 -4.552 -4.550  8.59846 15.30038 -8.37397
 3.56 3.20 -4.477 -4.476 -4.476 -4.475 -4.472  8.70879 15.50072 -8.17359
 3.56 3.40 -4.393 -4.392 -4.392 -4.390 -4.388  8.82144 15.70126 -7.97297
 3.56 3.60 -4.302 -4.301 -4.300 -4.299 -4.297  8.93664 15.90206 -7.77212
 3.56 3.80 -4.204 -4.203 -4.203 -4.201 -4.199  9.05513 16.10341 -7.57081
 3.56 4.00 -4.099 -4.099 -4.098 -4.098 -4.095  9.17696 16.30535 -7.36896
 3.56 4.20 -3.991 -3.990 -3.990 -3.989 -3.987  9.30288 16.50850 -7.16584
 3.56 4.40 -3.879 -3.879 -3.879 -3.877 -3.876  9.43303 16.71319 -6.96116
 3.56 4.60 -3.766 -3.766 -3.766 -3.765 -3.764  9.56798 16.91992 -6.75441
 3.56 4.80 -3.656 -3.656 -3.655 -3.654 -3.652  9.70760 17.12960 -6.54471
 3.56 5.00 -3.548 -3.548 -3.547 -3.546 -3.545  9.85126 17.34203 -6.33227
 3.56 5.20 -3.447 -3.446 -3.446 -3.445 -3.444 10.00088 17.55895 -6.11545
 3.56 5.40 -3.353 -3.353 -3.353 -3.352 -3.351 10.15050 17.77768 -5.89678
 3.56 5.60 -3.271 -3.271 -3.270 -3.269 -3.268 10.29993 17.99846 -5.67600
 3.56 5.80 -3.197 -3.197 -3.197 -3.196 -3.195 10.44853 18.21992 -5.45449
 3.56 6.00 -3.133 -3.133 -3.133 -3.132 -3.131 10.59627 18.44138 -5.23299
 3.56 6.25 -3.064 -3.064 -3.064 -3.063 -3.061 10.77330 18.71525 -4.95907
 3.56 6.50 -3.003 -3.003 -3.003 -3.002 -3.001 10.94542 18.98646 -4.68782
 3.56 6.75 -2.948 -2.948 -2.947 -2.946 -2.945 11.11220 19.25362 -4.42069
 3.56 7.00 -2.894 -2.894 -2.893 -2.892 -2.891 11.27669 19.51759 -4.15677
 3.56 7.25 -2.839 -2.839 -2.839 -2.837 -2.836 11.43927 19.77849 -3.89598
 3.56 7.50 -2.783 -2.783 -2.782 -2.781 -2.779 11.60184 20.03703 -3.63752
 3.56 7.75 -2.723 -2.722 -2.722 -2.721 -2.719 11.76468 20.29377 -3.38076
 3.56 8.00 -2.659 -2.659 -2.658 -2.657 -2.655 11.92768 20.54851 -3.12592
 3.58-2.00 -4.003 -4.003 -4.003 -4.003 -4.003  6.48544 10.27990-13.39459
 3.58-1.50 -4.173 -4.173 -4.173 -4.173 -4.173  6.73552 10.77981-12.89449
 3.58-1.00 -4.330 -4.330 -4.330 -4.330 -4.329  6.98561 11.27989-12.39448
 3.58-0.50 -4.471 -4.471 -4.471 -4.471 -4.471  7.23578 11.77981-11.89449
 3.58 0.00 -4.592 -4.592 -4.592 -4.592 -4.592  7.48601 12.27989-11.39448
 3.58 0.50 -4.679 -4.679 -4.678 -4.678 -4.678  7.73632 12.77981-10.89449
 3.58 1.00 -4.712 -4.712 -4.712 -4.712 -4.712  7.98704 13.27990-10.39448
 3.58 1.25 -4.704 -4.704 -4.704 -4.704 -4.703  8.11259 13.52989-10.14449
 3.58 1.50 -4.679 -4.679 -4.679 -4.679 -4.678  8.23830 13.77989 -9.89449
 3.58 1.75 -4.639 -4.639 -4.639 -4.639 -4.639  8.36420 14.02989 -9.64449
 3.58 2.00 -4.585 -4.585 -4.585 -4.584 -4.584  8.49038 14.27989 -9.39448
 3.58 2.25 -4.519 -4.518 -4.518 -4.518 -4.518  8.61701 14.52992 -9.14449
 3.58 2.50 -4.442 -4.442 -4.442 -4.441 -4.441  8.74414 14.77996 -8.89449
 3.58 2.75 -4.357 -4.357 -4.356 -4.356 -4.355  8.87187 15.03002 -8.64437
 3.58 3.00 -4.262 -4.262 -4.262 -4.262 -4.262  9.00043 15.28012 -8.39416
 3.58 3.20 -4.182 -4.182 -4.182 -4.181 -4.181  9.10418 15.48029 -8.19395
 3.58 3.40 -4.097 -4.097 -4.097 -4.096 -4.096  9.20883 15.68057 -7.99365
 3.58 3.60 -4.008 -4.008 -4.008 -4.007 -4.006  9.31446 15.88097 -7.79325
 3.58 3.80 -3.915 -3.915 -3.915 -3.914 -3.913  9.42140 16.08165 -7.59261
 3.58 4.00 -3.818 -3.818 -3.818 -3.817 -3.816  9.52969 16.28262 -7.39169
 3.58 4.20 -3.719 -3.718 -3.718 -3.717 -3.716  9.63964 16.48427 -7.19011
 3.58 4.40 -3.616 -3.615 -3.615 -3.615 -3.613  9.75157 16.68683 -6.98763
 3.58 4.60 -3.512 -3.512 -3.511 -3.510 -3.510  9.86560 16.89058 -6.78393
 3.58 4.80 -3.407 -3.407 -3.407 -3.406 -3.405  9.98240 17.09640 -6.57811
 3.58 5.00 -3.304 -3.304 -3.303 -3.303 -3.302 10.10209 17.30428 -6.37018
 3.58 5.20 -3.205 -3.204 -3.204 -3.203 -3.202 10.22560 17.51577 -6.15859
 3.58 5.40 -3.109 -3.109 -3.109 -3.108 -3.107 10.35299 17.73007 -5.94420
 3.58 5.60 -3.021 -3.021 -3.021 -3.020 -3.019 10.48573 17.94839 -5.72583
 3.58 5.80 -2.941 -2.941 -2.941 -2.940 -2.939 10.62235 18.16877 -5.50546
 3.58 6.00 -2.868 -2.868 -2.868 -2.867 -2.866 10.76087 18.38935 -5.28492
 3.58 6.25 -2.788 -2.788 -2.788 -2.787 -2.785 10.93607 18.66521 -5.00911
 3.58 6.50 -2.719 -2.719 -2.719 -2.718 -2.716 11.11126 18.94107 -4.73330
 3.58 6.75 -2.659 -2.659 -2.659 -2.658 -2.656 11.28125 19.21243 -4.46189
 3.58 7.00 -2.605 -2.605 -2.604 -2.603 -2.602 11.44747 19.48058 -4.19368
 3.58 7.25 -2.555 -2.555 -2.554 -2.553 -2.552 11.60893 19.74497 -3.92927
 3.58 7.50 -2.507 -2.506 -2.506 -2.505 -2.503 11.76760 20.00647 -3.66776
 3.58 7.75 -2.458 -2.458 -2.457 -2.456 -2.454 11.92446 20.26564 -3.40861
 3.58 8.00 -2.408 -2.408 -2.407 -2.406 -2.404 12.07918 20.52231 -3.15200
 3.60-2.00 -3.664 -3.664 -3.664 -3.664 -3.664  6.89542 10.25983-13.41465
 3.60-1.50 -3.849 -3.849 -3.849 -3.849 -3.849  7.14551 10.75974-12.91471
 3.60-1.00 -4.021 -4.021 -4.021 -4.021 -4.020  7.39568 11.25983-12.41454
 3.60-0.50 -4.175 -4.175 -4.175 -4.175 -4.175  7.64562 11.75982-11.91435
 3.60 0.00 -4.307 -4.307 -4.307 -4.306 -4.306  7.89575 12.25983-11.41443
 3.60 0.50 -4.401 -4.401 -4.401 -4.401 -4.401  8.14582 12.75982-10.91435
 3.60 1.00 -4.438 -4.438 -4.438 -4.438 -4.438  8.39620 13.25983-10.41443
 3.60 1.25 -4.429 -4.429 -4.429 -4.429 -4.429  8.52140 13.50986-10.16439
 3.60 1.50 -4.401 -4.401 -4.401 -4.400 -4.400  8.64660 13.75990 -9.91435
 3.60 1.75 -4.354 -4.354 -4.354 -4.354 -4.354  8.77197 14.00986 -9.66439
 3.60 2.00 -4.292 -4.292 -4.291 -4.291 -4.291  8.89746 14.25983 -9.41443
 3.60 2.25 -4.215 -4.215 -4.215 -4.215 -4.215  9.02310 14.50985 -9.16439
 3.60 2.50 -4.130 -4.130 -4.129 -4.129 -4.129  9.14891 14.75989 -8.91435
 3.60 2.75 -4.035 -4.035 -4.035 -4.035 -4.034  9.27492 15.00997 -8.66433
 3.60 3.00 -3.934 -3.934 -3.934 -3.934 -3.934  9.40123 15.26007 -8.41431
 3.60 3.20 -3.850 -3.850 -3.850 -3.850 -3.849  9.50261 15.46016 -8.21424
 3.60 3.40 -3.763 -3.763 -3.763 -3.763 -3.762  9.60434 15.66028 -8.01409
 3.60 3.60 -3.673 -3.673 -3.673 -3.673 -3.673  9.70644 15.86048 -7.81388
 3.60 3.80 -3.582 -3.582 -3.582 -3.581 -3.581  9.80903 16.06090 -7.61351
 3.60 4.00 -3.489 -3.488 -3.488 -3.487 -3.487  9.91212 16.26150 -7.41296
 3.60 4.20 -3.393 -3.393 -3.393 -3.392 -3.392 10.01579 16.46235 -7.21205
 3.60 4.40 -3.296 -3.296 -3.296 -3.295 -3.295 10.12016 16.66366 -7.01064
 3.60 4.60 -3.199 -3.199 -3.199 -3.198 -3.197 10.22527 16.86560 -6.80861
 3.60 4.80 -3.101 -3.101 -3.101 -3.100 -3.100 10.33130 17.06886 -6.60539
 3.60 5.00 -3.005 -3.005 -3.005 -3.004 -3.003 10.43823 17.27346 -6.40088
 3.60 5.20 -2.911 -2.911 -2.910 -2.910 -2.908 10.54600 17.48062 -6.19374
 3.60 5.40 -2.820 -2.820 -2.819 -2.819 -2.817 10.65513 17.69037 -5.98398
 3.60 5.60 -2.735 -2.735 -2.734 -2.734 -2.733 10.76586 17.90362 -5.77072
 3.60 5.80 -2.657 -2.657 -2.657 -2.656 -2.655 10.87910 18.12010 -5.55422
 3.60 6.00 -2.587 -2.587 -2.586 -2.585 -2.584 10.99493 18.33885 -5.33545
 3.60 6.25 -2.508 -2.508 -2.508 -2.507 -2.506 11.14606 18.61570 -5.05859
 3.60 6.50 -2.439 -2.439 -2.439 -2.438 -2.437 11.30168 18.89254 -4.78173
 3.60 6.75 -2.379 -2.378 -2.378 -2.377 -2.375 11.46267 19.16727 -4.50700
 3.60 7.00 -2.324 -2.324 -2.323 -2.322 -2.320 11.62366 19.43981 -4.23448
 3.60 7.25 -2.275 -2.275 -2.274 -2.273 -2.271 11.78305 19.70816 -3.96619
 3.60 7.50 -2.230 -2.230 -2.229 -2.228 -2.226 11.94067 19.97327 -3.70115
 3.60 7.75 -2.187 -2.187 -2.186 -2.185 -2.183 12.09452 20.23539 -3.43905
 3.60 8.00 -2.146 -2.146 -2.145 -2.144 -2.142 12.24527 20.49443 -3.18000
 3.62-2.00 -3.318 -3.318 -3.318 -3.318 -3.318  7.28825 10.23930-13.43498
 3.62-1.50 -3.518 -3.518 -3.518 -3.518 -3.517  7.53832 10.73957-12.93479
 3.62-1.00 -3.704 -3.704 -3.704 -3.704 -3.703  7.78852 11.23980-12.43462
 3.62-0.50 -3.872 -3.872 -3.872 -3.872 -3.871  8.03862 11.73973-11.93479
 3.62 0.00 -4.013 -4.013 -4.013 -4.012 -4.012  8.28870 12.23980-11.43451
 3.62 0.50 -4.111 -4.111 -4.111 -4.111 -4.111  8.53870 12.73981-10.93442
 3.62 1.00 -4.146 -4.146 -4.146 -4.146 -4.146  8.78888 13.23980-10.43451
 3.62 1.25 -4.134 -4.134 -4.134 -4.134 -4.133  8.91395 13.48981-10.18446
 3.62 1.50 -4.101 -4.101 -4.101 -4.101 -4.100  9.03902 13.73981 -9.93442
 3.62 1.75 -4.049 -4.049 -4.048 -4.048 -4.048  9.16416 13.98981 -9.68446
 3.62 2.00 -3.979 -3.979 -3.979 -3.979 -3.978  9.28937 14.23980 -9.43451
 3.62 2.25 -3.897 -3.897 -3.896 -3.896 -3.896  9.41463 14.48980 -9.18446
 3.62 2.50 -3.805 -3.804 -3.804 -3.804 -3.804  9.53995 14.73981 -8.93442
 3.62 2.75 -3.705 -3.705 -3.705 -3.704 -3.704  9.66534 14.98993 -8.68440
 3.62 3.00 -3.600 -3.600 -3.600 -3.600 -3.600  9.79085 15.24005 -8.43439
 3.62 3.20 -3.514 -3.514 -3.514 -3.514 -3.513  9.89144 15.44005 -8.23440
 3.62 3.40 -3.426 -3.425 -3.425 -3.425 -3.425  9.99216 15.64005 -8.03441
 3.62 3.60 -3.336 -3.335 -3.335 -3.335 -3.334 10.09300 15.84009 -7.83433
 3.62 3.80 -3.244 -3.244 -3.244 -3.244 -3.243 10.19398 16.04026 -7.63407
 3.62 4.00 -3.152 -3.151 -3.151 -3.150 -3.150 10.29513 16.24055 -7.43368
 3.62 4.20 -3.058 -3.058 -3.057 -3.057 -3.056 10.39651 16.44104 -7.23323
 3.62 4.40 -2.963 -2.963 -2.963 -2.962 -2.961 10.49812 16.64183 -7.03259
 3.62 4.60 -2.868 -2.868 -2.868 -2.867 -2.865 10.60001 16.84297 -6.83155
 3.62 4.80 -2.773 -2.772 -2.772 -2.771 -2.770 10.70209 17.04484 -6.62964
 3.62 5.00 -2.678 -2.678 -2.678 -2.677 -2.676 10.80428 17.24748 -6.42690
 3.62 5.20 -2.585 -2.585 -2.584 -2.584 -2.583 10.90654 17.45167 -6.22271
 3.62 5.40 -2.496 -2.495 -2.495 -2.494 -2.493 11.00881 17.65774 -6.01666
 3.62 5.60 -2.411 -2.411 -2.410 -2.409 -2.408 11.11085 17.86638 -5.80799
 3.62 5.80 -2.333 -2.333 -2.333 -2.332 -2.331 11.21268 18.07833 -5.59598
 3.62 6.00 -2.264 -2.263 -2.263 -2.262 -2.261 11.31450 18.29314 -5.38111
 3.62 6.25 -2.190 -2.189 -2.189 -2.188 -2.187 11.44262 18.56748 -5.10696
 3.62 6.50 -2.128 -2.128 -2.127 -2.126 -2.125 11.57194 18.84298 -4.83150
 3.62 6.75 -2.076 -2.076 -2.076 -2.075 -2.073 11.70614 19.11924 -4.55518
 3.62 7.00 -2.030 -2.030 -2.029 -2.028 -2.026 11.84429 19.39550 -4.27885
 3.62 7.25 -1.989 -1.989 -1.988 -1.987 -1.985 11.98835 19.66767 -4.00676
 3.62 7.50 -1.951 -1.950 -1.950 -1.948 -1.945 12.13354 19.93672 -3.73779
 3.62 7.75 -1.915 -1.914 -1.913 -1.912 -1.909 12.27913 20.20212 -3.47234
 3.62 8.00 -1.880 -1.880 -1.879 -1.877 -1.875 12.42537 20.46404 -3.21028
 3.64-2.00 -2.970 -2.970 -2.970 -2.970 -2.969  7.66134 10.21880-13.45568
 3.64-1.50 -3.182 -3.182 -3.182 -3.182 -3.181  7.91190 10.71917-12.95507
 3.64-1.00 -3.381 -3.381 -3.381 -3.381 -3.381  8.16227 11.21958-12.45482
 3.64-0.50 -3.563 -3.562 -3.562 -3.562 -3.562  8.41246 11.71966-11.95468
 3.64 0.00 -3.715 -3.714 -3.714 -3.714 -3.714  8.66257 12.21985-11.45457
 3.64 0.50 -3.818 -3.818 -3.818 -3.818 -3.817  8.91259 12.71983-10.95468
 3.64 1.00 -3.850 -3.850 -3.850 -3.850 -3.850  9.16256 13.21985-10.45445
 3.64 1.25 -3.835 -3.835 -3.835 -3.834 -3.834  9.28768 13.46984-10.20456
 3.64 1.50 -3.798 -3.798 -3.798 -3.798 -3.797  9.41280 13.71983 -9.95468
 3.64 1.75 -3.741 -3.741 -3.741 -3.741 -3.740  9.53787 13.96983 -9.70456
 3.64 2.00 -3.668 -3.668 -3.668 -3.668 -3.667  9.66295 14.21985 -9.45445
 3.64 2.25 -3.582 -3.582 -3.582 -3.581 -3.581  9.78803 14.46988 -9.20435
 3.64 2.50 -3.487 -3.487 -3.486 -3.486 -3.485  9.91313 14.71991 -8.95429
 3.64 2.75 -3.385 -3.384 -3.384 -3.384 -3.384 10.03827 14.96988 -8.70437
 3.64 3.00 -3.278 -3.278 -3.278 -3.278 -3.277 10.16346 15.21985 -8.45445
 3.64 3.20 -3.191 -3.191 -3.191 -3.190 -3.189 10.26369 15.41988 -8.25441
 3.64 3.40 -3.102 -3.101 -3.101 -3.100 -3.100 10.36397 15.61995 -8.05434
 3.64 3.60 -3.011 -3.011 -3.011 -3.010 -3.009 10.46432 15.82005 -7.85424
 3.64 3.80 -2.920 -2.919 -2.919 -2.919 -2.917 10.56473 16.02018 -7.65412
 3.64 4.00 -2.827 -2.827 -2.826 -2.825 -2.824 10.66521 16.22037 -7.45395
 3.64 4.20 -2.733 -2.733 -2.732 -2.731 -2.730 10.76577 16.42062 -7.25372
 3.64 4.40 -2.639 -2.639 -2.638 -2.638 -2.636 10.86639 16.62100 -7.05335
 3.64 4.60 -2.544 -2.544 -2.543 -2.542 -2.541 10.96707 16.82160 -6.85276
 3.64 4.80 -2.449 -2.449 -2.448 -2.447 -2.446 11.06779 17.02269 -6.65169
 3.64 5.00 -2.354 -2.353 -2.353 -2.352 -2.351 11.16850 17.22428 -6.45014
 3.64 5.20 -2.260 -2.260 -2.259 -2.258 -2.257 11.26901 17.42668 -6.24777
 3.64 5.40 -2.168 -2.168 -2.168 -2.166 -2.165 11.36926 17.63030 -6.04419
 3.64 5.60 -2.080 -2.080 -2.080 -2.079 -2.078 11.46905 17.83563 -5.83887
 3.64 5.80 -1.998 -1.998 -1.997 -1.997 -1.995 11.56789 18.04369 -5.63077
 3.64 6.00 -1.924 -1.923 -1.923 -1.922 -1.920 11.66586 18.25431 -5.42010
 3.64 6.25 -1.844 -1.844 -1.844 -1.842 -1.840 11.78594 18.52308 -5.15131
 3.64 6.50 -1.781 -1.781 -1.781 -1.780 -1.777 11.90461 18.79560 -4.87877
 3.64 6.75 -1.734 -1.734 -1.733 -1.732 -1.730 12.02177 19.07234 -4.60200
 3.64 7.00 -1.698 -1.698 -1.697 -1.696 -1.694 12.13893 19.34908 -4.32523
 3.64 7.25 -1.670 -1.670 -1.669 -1.668 -1.665 12.25890 19.62410 -4.05027
 3.64 7.50 -1.645 -1.645 -1.644 -1.643 -1.640 12.38148 19.89719 -3.77728
 3.64 7.75 -1.622 -1.622 -1.621 -1.620 -1.617 12.50810 20.16608 -3.50837
 3.64 8.00 -1.600 -1.599 -1.599 -1.597 -1.595 12.63829 20.43152 -3.24283
 3.66-2.00 -2.623 -2.623 -2.623 -2.623 -2.622  8.01828 10.19701-13.47730
 3.66-1.50 -2.845 -2.845 -2.845 -2.845 -2.844  8.26951 10.69827-12.97593
 3.66-1.00 -3.056 -3.056 -3.056 -3.056 -3.055  8.52035 11.19893-12.47534
 3.66-0.50 -3.250 -3.250 -3.250 -3.250 -3.249  8.77078 11.69932-11.97510
 3.66 0.00 -3.414 -3.414 -3.414 -3.414 -3.413  9.02119 12.19948-11.47483
 3.66 0.50 -3.526 -3.526 -3.526 -3.526 -3.525  9.27114 12.69967-10.97469
 3.66 1.00 -3.559 -3.559 -3.559 -3.559 -3.559  9.52127 13.19976-10.47457
 3.66 1.25 -3.542 -3.542 -3.542 -3.542 -3.541  9.64632 13.44980-10.22463
 3.66 1.50 -3.503 -3.503 -3.503 -3.503 -3.502  9.77137 13.69984 -9.97469
 3.66 1.75 -3.444 -3.444 -3.444 -3.444 -3.443  9.89649 13.94980 -9.72457
 3.66 2.00 -3.369 -3.369 -3.369 -3.368 -3.367 10.02160 14.19976 -9.47444
 3.66 2.25 -3.281 -3.281 -3.281 -3.280 -3.279 10.14661 14.44978 -9.22457
 3.66 2.50 -3.184 -3.184 -3.184 -3.183 -3.182 10.27161 14.69984 -8.97469
 3.66 2.75 -3.081 -3.081 -3.081 -3.080 -3.079 10.39669 14.94993 -8.72457
 3.66 3.00 -2.974 -2.974 -2.973 -2.973 -2.972 10.52179 15.20003 -8.47444
 3.66 3.20 -2.885 -2.885 -2.885 -2.884 -2.884 10.62188 15.39999 -8.27437
 3.66 3.40 -2.796 -2.796 -2.795 -2.795 -2.793 10.72197 15.59995 -8.07431
 3.66 3.60 -2.705 -2.705 -2.704 -2.703 -2.702 10.82209 15.79992 -7.87426
 3.66 3.80 -2.613 -2.613 -2.612 -2.611 -2.610 10.92225 15.99995 -7.67422
 3.66 4.00 -2.519 -2.519 -2.519 -2.518 -2.517 11.02243 16.20003 -7.47418
 3.66 4.20 -2.426 -2.425 -2.425 -2.424 -2.423 11.12265 16.40019 -7.27410
 3.66 4.40 -2.331 -2.331 -2.331 -2.329 -2.328 11.22288 16.60045 -7.07396
 3.66 4.60 -2.236 -2.236 -2.235 -2.234 -2.232 11.32312 16.80081 -6.87367
 3.66 4.80 -2.141 -2.140 -2.139 -2.138 -2.137 11.42337 17.00139 -6.67299
 3.66 5.00 -2.045 -2.045 -2.044 -2.043 -2.041 11.52362 17.20222 -6.47198
 3.66 5.20 -1.950 -1.950 -1.949 -1.948 -1.946 11.62364 17.40366 -6.27054
 3.66 5.40 -1.856 -1.856 -1.855 -1.855 -1.852 11.72341 17.60590 -6.06835
 3.66 5.60 -1.765 -1.764 -1.764 -1.762 -1.761 11.82280 17.80915 -5.86514
 3.66 5.80 -1.677 -1.676 -1.676 -1.675 -1.673 11.92138 18.01422 -5.66005
 3.66 6.00 -1.595 -1.595 -1.594 -1.593 -1.591 12.01912 18.22116 -5.45309
 3.66 6.25 -1.504 -1.504 -1.504 -1.502 -1.500 12.13892 18.48464 -5.18974
 3.66 6.50 -1.430 -1.430 -1.429 -1.428 -1.426 12.25600 18.75259 -4.92191
 3.66 6.75 -1.375 -1.375 -1.374 -1.372 -1.371 12.36887 19.02668 -4.64761
 3.66 7.00 -1.337 -1.337 -1.336 -1.335 -1.333 12.47914 19.30211 -4.37212
 3.66 7.25 -1.314 -1.314 -1.314 -1.312 -1.310 12.58652 19.57845 -4.09586
 3.66 7.50 -1.301 -1.300 -1.299 -1.298 -1.296 12.69390 19.85479 -3.81959
 3.66 7.75 -1.292 -1.292 -1.292 -1.290 -1.287 12.80250 20.12691 -3.54747
 3.66 8.00 -1.286 -1.285 -1.285 -1.283 -1.280 12.91190 20.39620 -3.27811
 3.68-2.00 -2.280 -2.280 -2.280 -2.280 -2.280  8.35603 10.17348-13.50100
 3.68-1.50 -2.510 -2.510 -2.510 -2.510 -2.509  8.60906 10.67614-12.99827
 3.68-1.00 -2.730 -2.730 -2.730 -2.730 -2.729  8.86082 11.17783-12.49648
 3.68-0.50 -2.935 -2.935 -2.935 -2.935 -2.934  9.11193 11.67870-11.99568
 3.68 0.00 -3.112 -3.112 -3.112 -3.111 -3.111  9.36229 12.17927-11.49512
 3.68 0.50 -3.236 -3.236 -3.235 -3.235 -3.235  9.61268 12.67952-10.99482
 3.68 1.00 -3.276 -3.276 -3.275 -3.275 -3.274  9.86285 13.17984-10.49458
 3.68 1.25 -3.259 -3.259 -3.259 -3.259 -3.258  9.98789 13.42982-10.24447
 3.68 1.50 -3.220 -3.220 -3.220 -3.219 -3.218 10.11294 13.67979 -9.99439
 3.68 1.75 -3.160 -3.160 -3.160 -3.159 -3.158 10.23799 13.92982 -9.74442
 3.68 2.00 -3.084 -3.084 -3.084 -3.083 -3.082 10.36305 14.17984 -9.49444
 3.68 2.25 -2.996 -2.996 -2.995 -2.995 -2.994 10.48807 14.42986 -9.24442
 3.68 2.50 -2.899 -2.899 -2.898 -2.897 -2.896 10.61310 14.67988 -8.99439
 3.68 2.75 -2.795 -2.795 -2.794 -2.793 -2.793 10.73818 14.92986 -8.74442
 3.68 3.00 -2.687 -2.687 -2.686 -2.685 -2.685 10.86326 15.17984 -8.49444
 3.68 3.20 -2.598 -2.598 -2.598 -2.597 -2.596 10.96327 15.37984 -8.29443
 3.68 3.40 -2.508 -2.508 -2.507 -2.507 -2.505 11.06327 15.57986 -8.09441
 3.68 3.60 -2.417 -2.417 -2.416 -2.415 -2.413 11.16334 15.77993 -7.89438
 3.68 3.80 -2.324 -2.324 -2.324 -2.322 -2.320 11.26348 15.98003 -7.69435
 3.68 4.00 -2.231 -2.231 -2.230 -2.229 -2.227 11.36361 16.18013 -7.49431
 3.68 4.20 -2.137 -2.136 -2.136 -2.134 -2.133 11.46371 16.38021 -7.29421
 3.68 4.40 -2.041 -2.041 -2.040 -2.039 -2.038 11.56380 16.58029 -7.09406
 3.68 4.60 -1.946 -1.946 -1.945 -1.944 -1.942 11.66389 16.78044 -6.89384
 3.68 4.80 -1.850 -1.850 -1.850 -1.848 -1.846 11.76397 16.98077 -6.69347
 3.68 5.00 -1.754 -1.754 -1.753 -1.752 -1.750 11.86404 17.18127 -6.49295
 3.68 5.20 -1.658 -1.658 -1.657 -1.656 -1.654 11.96399 17.38212 -6.29216
 3.68 5.40 -1.562 -1.562 -1.561 -1.560 -1.559 12.06378 17.58345 -6.09091
 3.68 5.60 -1.469 -1.468 -1.468 -1.466 -1.465 12.16329 17.78543 -5.88903
 3.68 5.80 -1.377 -1.376 -1.376 -1.375 -1.373 12.26217 17.98863 -5.68585
 3.68 6.00 -1.288 -1.288 -1.288 -1.287 -1.285 12.36040 18.19312 -5.48135
 3.68 6.25 -1.188 -1.187 -1.187 -1.185 -1.184 12.48144 18.45216 -5.22218
 3.68 6.50 -1.099 -1.099 -1.099 -1.098 -1.095 12.60010 18.71517 -4.95900
 3.68 6.75 -1.030 -1.029 -1.029 -1.028 -1.026 12.71467 18.98436 -4.68990
 3.68 7.00 -0.979 -0.979 -0.979 -0.978 -0.975 12.82536 19.25720 -4.41714
 3.68 7.25 -0.949 -0.949 -0.949 -0.948 -0.945 12.93114 19.53399 -4.14037
 3.68 7.50 -0.935 -0.935 -0.935 -0.933 -0.930 13.03383 19.81077 -3.86360
 3.68 7.75 -0.933 -0.932 -0.931 -0.930 -0.928 13.13438 20.08537 -3.58901
 3.68 8.00 -0.937 -0.936 -0.936 -0.934 -0.931 13.23249 20.35851 -3.31587
 3.70-2.00 -1.945 -1.945 -1.945 -1.945 -1.944  8.67532 10.14551-13.52900
 3.70-1.50 -2.180 -2.180 -2.179 -2.179 -2.178  8.93207 10.65167-13.02273
 3.70-1.00 -2.406 -2.406 -2.406 -2.406 -2.405  9.18583 11.15534-12.51913
 3.70-0.50 -2.620 -2.620 -2.620 -2.619 -2.618  9.43807 11.65725-12.01714
 3.70 0.00 -2.808 -2.807 -2.807 -2.807 -2.806  9.68931 12.15836-11.51599
 3.70 0.50 -2.944 -2.944 -2.944 -2.944 -2.943  9.93992 12.65906-11.01534
 3.70 1.00 -2.996 -2.996 -2.995 -2.995 -2.994 10.19033 13.15957-10.51499
 3.70 1.25 -2.983 -2.983 -2.983 -2.982 -2.981 10.31548 13.40960-10.26486
 3.70 1.50 -2.946 -2.946 -2.945 -2.945 -2.944 10.44059 13.65963-10.01475
 3.70 1.75 -2.888 -2.887 -2.887 -2.886 -2.885 10.56567 13.90975 -9.76465
 3.70 2.00 -2.812 -2.812 -2.812 -2.811 -2.810 10.69073 14.15987 -9.51456
 3.70 2.25 -2.724 -2.724 -2.724 -2.723 -2.722 10.81577 14.40980 -9.26457
 3.70 2.50 -2.627 -2.627 -2.626 -2.625 -2.624 10.94081 14.65973 -9.01457
 3.70 2.75 -2.524 -2.523 -2.523 -2.522 -2.521 11.06585 14.90980 -8.76457
 3.70 3.00 -2.416 -2.415 -2.415 -2.414 -2.412 11.19089 15.15987 -8.51456
 3.70 3.20 -2.327 -2.326 -2.326 -2.325 -2.323 11.29096 15.35985 -8.31455
 3.70 3.40 -2.236 -2.236 -2.236 -2.235 -2.233 11.39103 15.55983 -8.11454
 3.70 3.60 -2.145 -2.144 -2.144 -2.143 -2.141 11.49109 15.75982 -7.91451
 3.70 3.80 -2.052 -2.052 -2.051 -2.050 -2.048 11.59113 15.95983 -7.71447
 3.70 4.00 -1.959 -1.958 -1.958 -1.956 -1.954 11.69117 16.15987 -7.51442
 3.70 4.20 -1.864 -1.864 -1.863 -1.862 -1.860 11.79123 16.35993 -7.31437
 3.70 4.40 -1.769 -1.769 -1.768 -1.767 -1.765 11.89128 16.56004 -7.11430
 3.70 4.60 -1.674 -1.673 -1.672 -1.671 -1.669 11.99134 16.76019 -6.91418
 3.70 4.80 -1.577 -1.577 -1.576 -1.575 -1.573 12.09140 16.96043 -6.71393
 3.70 5.00 -1.481 -1.480 -1.480 -1.479 -1.476 12.19145 17.16077 -6.51357
 3.70 5.20 -1.384 -1.384 -1.383 -1.382 -1.380 12.29134 17.36126 -6.31307
 3.70 5.40 -1.288 -1.288 -1.287 -1.285 -1.284 12.39109 17.56200 -6.11232
 3.70 5.60 -1.192 -1.191 -1.191 -1.190 -1.188 12.49070 17.76313 -5.91118
 3.70 5.80 -1.097 -1.097 -1.096 -1.095 -1.094 12.59000 17.96509 -5.70922
 3.70 6.00 -1.005 -1.005 -1.005 -1.004 -1.002 12.68896 18.16791 -5.50640
 3.70 6.25 -0.897 -0.896 -0.896 -0.895 -0.893 12.81131 18.42383 -5.25046
 3.70 6.50 -0.797 -0.797 -0.796 -0.795 -0.794 12.93186 18.68287 -4.99140
 3.70 6.75 -0.712 -0.712 -0.712 -0.711 -0.709 13.04918 18.94718 -4.72720
 3.70 7.00 -0.645 -0.645 -0.645 -0.644 -0.642 13.16286 19.21590 -4.45855
 3.70 7.25 -0.600 -0.600 -0.599 -0.599 -0.597 13.27132 19.49060 -4.18360
 3.70 7.50 -0.576 -0.575 -0.575 -0.574 -0.571 13.37530 19.76619 -3.90798
 3.70 7.75 -0.568 -0.568 -0.568 -0.566 -0.564 13.47503 20.04209 -3.63215
 3.70 8.00 -0.573 -0.573 -0.572 -0.570 -0.568 13.57043 20.31848 -3.35596
 3.73-2.00 -1.463 -1.463 -1.463 -1.462 -1.461  9.10585 10.08672-13.58754
 3.73-1.50 -1.698 -1.698 -1.697 -1.697 -1.696  9.37694 10.60498-13.06941
 3.73-1.00 -1.928 -1.928 -1.927 -1.927 -1.926  9.63879 11.11561-12.55862
 3.73-0.50 -2.147 -2.147 -2.147 -2.147 -2.145  9.89542 11.62180-12.05257
 3.73 0.00 -2.346 -2.346 -2.345 -2.345 -2.344 10.14922 12.12548-11.54898
 3.73 0.50 -2.499 -2.499 -2.499 -2.498 -2.497 10.40123 12.62726-11.04706
 3.73 1.00 -2.572 -2.572 -2.571 -2.570 -2.569 10.65254 13.12840-10.54592
 3.73 1.25 -2.569 -2.568 -2.568 -2.567 -2.566 10.77792 13.37881-10.29556
 3.73 1.50 -2.539 -2.539 -2.539 -2.538 -2.536 10.90320 13.62910-10.04528
 3.73 1.75 -2.487 -2.487 -2.486 -2.485 -2.484 11.02836 13.87924 -9.79503
 3.73 2.00 -2.416 -2.416 -2.415 -2.414 -2.413 11.15351 14.12937 -9.54485
 3.73 2.25 -2.331 -2.331 -2.330 -2.329 -2.328 11.27866 14.37950 -9.29480
 3.73 2.50 -2.236 -2.236 -2.235 -2.234 -2.233 11.40381 14.62961 -9.04475
 3.73 2.75 -2.134 -2.134 -2.133 -2.132 -2.131 11.52890 14.87965 -8.79465
 3.73 3.00 -2.028 -2.027 -2.027 -2.026 -2.024 11.65398 15.12969 -8.54455
 3.73 3.20 -1.940 -1.940 -1.939 -1.938 -1.936 11.75404 15.32973 -8.34455
 3.73 3.40 -1.851 -1.850 -1.850 -1.849 -1.847 11.85409 15.52979 -8.14455
 3.73 3.60 -1.760 -1.760 -1.759 -1.758 -1.756 11.95418 15.72986 -7.94452
 3.73 3.80 -1.669 -1.668 -1.668 -1.666 -1.664 12.05430 15.92993 -7.74446
 3.73 4.00 -1.576 -1.576 -1.575 -1.573 -1.571 12.15442 16.13001 -7.54439
 3.73 4.20 -1.482 -1.482 -1.482 -1.480 -1.478 12.25438 16.33002 -7.34438
 3.73 4.40 -1.388 -1.388 -1.387 -1.385 -1.383 12.35434 16.53002 -7.14437
 3.73 4.60 -1.293 -1.293 -1.292 -1.290 -1.288 12.45435 16.73005 -6.94433
 3.73 4.80 -1.197 -1.197 -1.196 -1.194 -1.193 12.55441 16.93016 -6.74424
 3.73 5.00 -1.101 -1.100 -1.099 -1.098 -1.097 12.65447 17.13033 -6.54409
 3.73 5.20 -1.004 -1.003 -1.003 -1.002 -1.000 12.75448 17.33056 -6.34385
 3.73 5.40 -0.907 -0.907 -0.906 -0.905 -0.903 12.85443 17.53092 -6.14346
 3.73 5.60 -0.810 -0.810 -0.809 -0.809 -0.806 12.95432 17.73146 -5.94288
 3.73 5.80 -0.714 -0.714 -0.713 -0.712 -0.710 13.05401 17.93244 -5.74189
 3.73 6.00 -0.619 -0.618 -0.618 -0.617 -0.615 13.15351 18.13386 -5.54046
 3.73 6.25 -0.503 -0.502 -0.502 -0.501 -0.499 13.27718 18.38690 -5.28743
 3.73 6.50 -0.391 -0.391 -0.391 -0.390 -0.388 13.39985 18.64177 -5.03259
 3.73 6.75 -0.290 -0.290 -0.289 -0.288 -0.287 13.52064 18.90010 -4.77430
 3.73 7.00 -0.201 -0.201 -0.200 -0.200 -0.198 13.63899 19.16227 -4.51216
 3.73 7.25 -0.131 -0.131 -0.130 -0.129 -0.127 13.75312 19.43032 -4.24394
 3.73 7.50 -0.081 -0.081 -0.081 -0.079 -0.078 13.86285 19.70234 -3.97184
 3.73 7.75 -0.054 -0.054 -0.053 -0.052 -0.050 13.96699 19.97738 -3.69688
 3.73 8.00 -0.045 -0.045 -0.044 -0.044 -0.042 14.06595 20.25575 -3.41873
 3.76-2.00 -1.024 -1.024 -1.023 -1.023 -1.022  9.44963  9.98994-13.68445
 3.76-1.50 -1.243 -1.242 -1.242 -1.242 -1.241  9.75899 10.53224-13.14213
 3.76-1.00 -1.465 -1.465 -1.465 -1.464 -1.463 10.04297 11.05994-12.61439
 3.76-0.50 -1.681 -1.681 -1.681 -1.680 -1.679 10.31239 11.57692-12.09745
 3.76 0.00 -1.880 -1.880 -1.879 -1.879 -1.877 10.57334 12.08672-11.58754
 3.76 0.50 -2.041 -2.041 -2.040 -2.040 -2.038 10.82943 12.59251-11.08192
 3.76 1.00 -2.131 -2.131 -2.130 -2.130 -2.128 11.08279 13.09587-10.57856
 3.76 1.25 -2.139 -2.139 -2.139 -2.138 -2.137 11.20895 13.34676-10.32760
 3.76 1.50 -2.121 -2.121 -2.121 -2.120 -2.119 11.33486 13.59748-10.07686
 3.76 1.75 -2.079 -2.079 -2.078 -2.077 -2.077 11.46053 13.84813 -9.82625
 3.76 2.00 -2.017 -2.017 -2.016 -2.015 -2.014 11.58602 14.09864 -9.57577
 3.76 2.25 -1.939 -1.939 -1.938 -1.937 -1.936 11.71137 14.34893 -9.32546
 3.76 2.50 -1.850 -1.850 -1.849 -1.849 -1.847 11.83664 14.59912 -9.07520
 3.76 2.75 -1.754 -1.753 -1.753 -1.752 -1.750 11.96188 14.84923 -8.82497
 3.76 3.00 -1.652 -1.651 -1.651 -1.650 -1.648 12.08707 15.09934 -8.57479
 3.76 3.20 -1.567 -1.567 -1.566 -1.565 -1.563 12.18715 15.29947 -8.37475
 3.76 3.40 -1.481 -1.481 -1.480 -1.479 -1.477 12.28722 15.49960 -8.17471
 3.76 3.60 -1.394 -1.393 -1.393 -1.392 -1.389 12.38733 15.69967 -7.97464
 3.76 3.80 -1.305 -1.305 -1.304 -1.303 -1.301 12.48746 15.89968 -7.77455
 3.76 4.00 -1.215 -1.215 -1.214 -1.213 -1.211 12.58760 16.09968 -7.57447
 3.76 4.20 -1.124 -1.124 -1.123 -1.122 -1.120 12.68766 16.29976 -7.37447
 3.76 4.40 -1.032 -1.032 -1.031 -1.029 -1.028 12.78770 16.49984 -7.17448
 3.76 4.60 -0.939 -0.939 -0.938 -0.936 -0.935 12.88773 16.69991 -6.97446
 3.76 4.80 -0.845 -0.845 -0.844 -0.842 -0.841 12.98776 16.89997 -6.77440
 3.76 5.00 -0.750 -0.750 -0.749 -0.748 -0.746 13.08778 17.10003 -6.57430
 3.76 5.20 -0.655 -0.654 -0.654 -0.652 -0.651 13.18789 17.30017 -6.37418
 3.76 5.40 -0.559 -0.558 -0.557 -0.556 -0.555 13.28800 17.50040 -6.17399
 3.76 5.60 -0.462 -0.462 -0.461 -0.460 -0.459 13.38807 17.70069 -5.97370
 3.76 5.80 -0.365 -0.365 -0.364 -0.364 -0.362 13.48801 17.90113 -5.77322
 3.76 6.00 -0.269 -0.268 -0.268 -0.267 -0.266 13.58782 18.10175 -5.57251
 3.76 6.25 -0.149 -0.149 -0.149 -0.148 -0.147 13.71229 18.35332 -5.32096
 3.76 6.50 -0.033 -0.033 -0.032 -0.032 -0.031 13.83626 18.60595 -5.06839
 3.76 6.75  0.078  0.078  0.078  0.079  0.080 13.95917 18.86051 -4.81384
 3.76 7.00  0.182  0.182  0.182  0.183  0.184 14.08063 19.11760 -4.55674
 3.76 7.25  0.273  0.273  0.273  0.274  0.276 14.19941 19.37928 -4.29509
 3.76 7.50  0.347  0.348  0.348  0.349  0.350 14.31492 19.64532 -4.02905
 3.76 7.75  0.401  0.401  0.401  0.402  0.404 14.42503 19.91640 -3.75795
 3.76 8.00  0.432  0.432  0.433  0.433  0.434 14.53046 20.19229 -3.48201
 3.79-2.00 -0.700 -0.700 -0.699 -0.699 -0.698  9.64856  9.86303-13.81135
 3.79-1.50 -0.850 -0.850 -0.850 -0.850 -0.848 10.03623 10.41963-13.25477
 3.79-1.00 -1.037 -1.037 -1.037 -1.036 -1.035 10.37346 10.97234-12.70202
 3.79-0.50 -1.233 -1.233 -1.232 -1.232 -1.231 10.67505 11.51068-12.16368
 3.79 0.00 -1.418 -1.418 -1.418 -1.418 -1.416 10.95453 12.03543-11.63903
 3.79 0.50 -1.574 -1.574 -1.573 -1.573 -1.572 11.22115 12.54998-11.12442
 3.79 1.00 -1.671 -1.671 -1.670 -1.670 -1.669 11.48058 13.05843-10.61583
 3.79 1.25 -1.688 -1.688 -1.688 -1.687 -1.686 11.60862 13.31129-10.36305
 3.79 1.50 -1.682 -1.682 -1.682 -1.681 -1.680 11.73592 13.56348-10.11092
 3.79 1.75 -1.653 -1.653 -1.652 -1.652 -1.651 11.86266 13.81511 -9.85925
 3.79 2.00 -1.604 -1.603 -1.603 -1.602 -1.601 11.98896 14.06633 -9.60801
 3.79 2.25 -1.537 -1.537 -1.537 -1.536 -1.535 12.11483 14.31717 -9.35721
 3.79 2.50 -1.459 -1.459 -1.458 -1.457 -1.456 12.24055 14.56785 -9.10657
 3.79 2.75 -1.371 -1.371 -1.370 -1.369 -1.368 12.36622 14.81846 -8.85600
 3.79 3.00 -1.277 -1.277 -1.276 -1.275 -1.274 12.49178 15.06893 -8.60555
 3.79 3.20 -1.198 -1.198 -1.197 -1.197 -1.195 12.59202 15.26906 -8.40535
 3.79 3.40 -1.118 -1.117 -1.117 -1.116 -1.114 12.69223 15.46919 -8.20520
 3.79 3.60 -1.035 -1.035 -1.034 -1.033 -1.031 12.79243 15.66934 -8.00506
 3.79 3.80 -0.951 -0.951 -0.950 -0.950 -0.947 12.89263 15.86950 -7.80495
 3.79 4.00 -0.866 -0.866 -0.865 -0.864 -0.862 12.99282 16.06967 -7.60485
 3.79 4.20 -0.779 -0.779 -0.779 -0.778 -0.776 13.09301 16.26969 -7.40478
 3.79 4.40 -0.692 -0.692 -0.691 -0.690 -0.688 13.19320 16.46971 -7.20472
 3.79 4.60 -0.603 -0.603 -0.602 -0.601 -0.599 13.29335 16.66979 -7.00465
 3.79 4.80 -0.512 -0.512 -0.512 -0.510 -0.509 13.39348 16.86991 -6.80458
 3.79 5.00 -0.421 -0.421 -0.420 -0.419 -0.417 13.49360 17.07004 -6.60450
 3.79 5.20 -0.328 -0.328 -0.328 -0.326 -0.325 13.59372 17.27005 -6.40441
 3.79 5.40 -0.235 -0.234 -0.234 -0.232 -0.231 13.69384 17.47007 -6.20431
 3.79 5.60 -0.140 -0.140 -0.139 -0.138 -0.137 13.79396 17.67014 -6.00415
 3.79 5.80 -0.044 -0.044 -0.044 -0.043 -0.042 13.89406 17.87039 -5.80386
 3.79 6.00  0.051  0.051  0.051  0.052  0.053 13.99414 18.07078 -5.60345
 3.79 6.25  0.170  0.170  0.171  0.171  0.172 14.11908 18.32161 -5.35266
 3.79 6.50  0.289  0.289  0.290  0.290  0.291 14.24378 18.57299 -5.10139
 3.79 6.75  0.406  0.406  0.406  0.407  0.408 14.36796 18.82536 -4.84896
 3.79 7.00  0.519  0.519  0.519  0.520  0.520 14.49136 19.07918 -4.59500
 3.79 7.25  0.624  0.624  0.624  0.625  0.625 14.61317 19.33600 -4.33824
 3.79 7.50  0.718  0.718  0.718  0.719  0.719 14.73288 19.59627 -4.07811
 3.79 7.75  0.795  0.795  0.795  0.796  0.796 14.84843 19.86190 -3.81250
 3.79 8.00  0.852  0.852  0.852  0.853  0.853 14.96052 20.13226 -3.54212
 3.82-2.00 -0.567 -0.567 -0.566 -0.566 -0.564  9.69810  9.77612-13.89825
 3.82-1.50 -0.612 -0.611 -0.611 -0.610 -0.609 10.16227 10.30406-13.37039
 3.82-1.00 -0.702 -0.702 -0.702 -0.701 -0.700 10.58365 10.85297-12.82131
 3.82-0.50 -0.835 -0.834 -0.834 -0.834 -0.832 10.95168 11.41027-12.26416
 3.82 0.00 -0.981 -0.981 -0.981 -0.981 -0.980 11.27416 11.95818-11.71625
 3.82 0.50 -1.113 -1.112 -1.112 -1.112 -1.111 11.56620 12.49108-11.18330
 3.82 1.00 -1.201 -1.201 -1.200 -1.200 -1.199 11.84023 13.01157-10.66274
 3.82 1.25 -1.221 -1.221 -1.221 -1.220 -1.219 11.97297 13.26838-10.40594
 3.82 1.50 -1.223 -1.223 -1.222 -1.222 -1.221 12.10380 13.52362-10.15070
 3.82 1.75 -1.205 -1.205 -1.205 -1.204 -1.203 12.23309 13.77757 -9.89666
 3.82 2.00 -1.169 -1.169 -1.169 -1.168 -1.167 12.36135 14.03060 -9.64359
 3.82 2.25 -1.118 -1.118 -1.117 -1.117 -1.116 12.48883 14.28290 -9.39140
 3.82 2.50 -1.053 -1.053 -1.053 -1.052 -1.051 12.61574 14.53466 -9.13972
 3.82 2.75 -0.978 -0.978 -0.977 -0.977 -0.976 12.74221 14.78602 -8.88836
 3.82 3.00 -0.895 -0.895 -0.895 -0.894 -0.893 12.86835 15.03703 -8.63733
 3.82 3.20 -0.825 -0.825 -0.825 -0.824 -0.823 12.96907 15.23756 -8.43677
 3.82 3.40 -0.752 -0.752 -0.751 -0.750 -0.750 13.06966 15.43801 -8.23632
 3.82 3.60 -0.677 -0.677 -0.676 -0.675 -0.674 13.17014 15.63839 -8.03598
 3.82 3.80 -0.600 -0.599 -0.599 -0.598 -0.597 13.27054 15.83874 -7.83569
 3.82 4.00 -0.521 -0.521 -0.520 -0.519 -0.518 13.37088 16.03902 -7.63545
 3.82 4.20 -0.441 -0.440 -0.440 -0.439 -0.437 13.47118 16.23914 -7.43526
 3.82 4.40 -0.359 -0.359 -0.358 -0.357 -0.356 13.57146 16.43927 -7.23509
 3.82 4.60 -0.275 -0.275 -0.275 -0.274 -0.272 13.67172 16.63943 -7.03494
 3.82 4.80 -0.191 -0.190 -0.190 -0.189 -0.187 13.77197 16.83962 -6.83481
 3.82 5.00 -0.104 -0.104 -0.104 -0.103 -0.101 13.87221 17.03981 -6.63470
 3.82 5.20 -0.016 -0.016 -0.016 -0.015 -0.013 13.97248 17.23982 -6.43464
 3.82 5.40  0.072  0.072  0.073  0.074  0.075 14.07274 17.43983 -6.23457
 3.82 5.60  0.163  0.163  0.164  0.165  0.166 14.17300 17.63987 -6.03449
 3.82 5.80  0.256  0.256  0.256  0.257  0.258 14.27324 17.84000 -5.83434
 3.82 6.00  0.349  0.349  0.349  0.350  0.352 14.37346 18.04021 -5.63414
 3.82 6.25  0.467  0.467  0.467  0.468  0.469 14.49871 18.29063 -5.38371
 3.82 6.50  0.585  0.585  0.585  0.586  0.587 14.62387 18.54133 -5.13300
 3.82 6.75  0.703  0.703  0.703  0.704  0.705 14.74878 18.79254 -4.88174
 3.82 7.00  0.820  0.820  0.820  0.821  0.822 14.87332 19.04454 -4.62967
 3.82 7.25  0.933  0.933  0.933  0.933  0.935 14.99705 19.29824 -4.37601
 3.82 7.50  1.040  1.040  1.040  1.040  1.041 15.11959 19.55413 -4.12022
 3.82 7.75  1.135  1.135  1.135  1.136  1.137 15.23925 19.81418 -3.86015
 3.82 8.00  1.216  1.216  1.216  1.217  1.218 15.35660 20.07773 -3.59654
 3.85-2.00 -0.540 -0.540 -0.539 -0.539 -0.537  9.68458  9.73199-13.94233
 3.85-1.50 -0.539 -0.539 -0.538 -0.537 -0.536 10.17696 10.23855-13.43581
 3.85-1.00 -0.542 -0.542 -0.542 -0.541 -0.539 10.65533 10.75656-12.91793
 3.85-0.50 -0.565 -0.565 -0.565 -0.564 -0.562 11.10209 11.29469-12.37976
 3.85 0.00 -0.620 -0.620 -0.620 -0.619 -0.618 11.49859 11.85003-11.82449
 3.85 0.50 -0.690 -0.690 -0.689 -0.689 -0.688 11.84354 12.40449-11.26995
 3.85 1.00 -0.743 -0.743 -0.743 -0.743 -0.742 12.15014 12.94542-10.72886
 3.85 1.25 -0.756 -0.756 -0.756 -0.756 -0.755 12.29353 13.21015-10.46410
 3.85 1.50 -0.756 -0.756 -0.756 -0.756 -0.755 12.43249 13.47188-10.20239
 3.85 1.75 -0.744 -0.744 -0.743 -0.743 -0.742 12.56795 13.73099 -9.94335
 3.85 2.00 -0.717 -0.717 -0.717 -0.717 -0.716 12.70088 13.98807 -9.68634
 3.85 2.25 -0.679 -0.678 -0.678 -0.678 -0.677 12.83183 14.24339 -9.43102
 3.85 2.50 -0.628 -0.628 -0.628 -0.628 -0.627 12.96133 14.49748 -9.17692
 3.85 2.75 -0.568 -0.568 -0.568 -0.567 -0.566 13.08965 14.75065 -8.92378
 3.85 3.00 -0.500 -0.500 -0.500 -0.499 -0.498 13.21722 15.00303 -8.67142
 3.85 3.20 -0.441 -0.441 -0.440 -0.440 -0.438 13.31889 15.20440 -8.47003
 3.85 3.40 -0.378 -0.378 -0.377 -0.377 -0.375 13.42027 15.40550 -8.26891
 3.85 3.60 -0.312 -0.312 -0.311 -0.310 -0.309 13.52135 15.60640 -8.06804
 3.85 3.80 -0.243 -0.243 -0.243 -0.242 -0.241 13.62223 15.80715 -7.86733
 3.85 4.00 -0.173 -0.173 -0.172 -0.171 -0.170 13.72296 16.00775 -7.66675
 3.85 4.20 -0.100 -0.100 -0.100 -0.099 -0.098 13.82360 16.20819 -7.46627
 3.85 4.40 -0.026 -0.026 -0.025 -0.025 -0.024 13.92416 16.40854 -7.26587
 3.85 4.60  0.049  0.049  0.050  0.050  0.051 14.02467 16.60874 -7.06557
 3.85 4.80  0.127  0.127  0.127  0.128  0.129 14.12514 16.80888 -6.86533
 3.85 5.00  0.206  0.207  0.207  0.208  0.209 14.22557 17.00903 -6.66514
 3.85 5.20  0.288  0.288  0.289  0.289  0.290 14.32596 17.20926 -6.46501
 3.85 5.40  0.372  0.372  0.372  0.373  0.374 14.42635 17.40949 -6.26488
 3.85 5.60  0.457  0.457  0.458  0.458  0.459 14.52676 17.60966 -6.06472
 3.85 5.80  0.545  0.545  0.545  0.545  0.546 14.62719 17.80977 -5.86453
 3.85 6.00  0.634  0.634  0.634  0.634  0.635 14.72762 18.00988 -5.66434
 3.85 6.25  0.747  0.747  0.747  0.748  0.749 14.85316 18.26015 -5.41410
 3.85 6.50  0.862  0.862  0.863  0.863  0.864 14.97868 18.51055 -5.16387
 3.85 6.75  0.979  0.979  0.979  0.979  0.980 15.10412 18.76111 -4.91322
 3.85 7.00  1.096  1.096  1.096  1.096  1.097 15.22943 19.01199 -4.66214
 3.85 7.25  1.212  1.212  1.212  1.213  1.213 15.35431 19.26385 -4.41035
 3.85 7.50  1.326  1.326  1.326  1.327  1.327 15.47857 19.51693 -4.15745
 3.85 7.75  1.433  1.434  1.434  1.434  1.434 15.60111 19.77252 -3.90188
 3.85 8.00  1.532  1.532  1.533  1.533  1.533 15.72231 20.03020 -3.64417
 3.88-2.00 -0.537 -0.537 -0.537 -0.536 -0.535  9.65744  9.69932-13.97511
 3.88-1.50 -0.529 -0.529 -0.529 -0.528 -0.526 10.15594 10.20058-13.47379
 3.88-1.00 -0.509 -0.509 -0.508 -0.507 -0.506 10.65138 10.70475-12.96940
 3.88-0.50 -0.470 -0.470 -0.470 -0.468 -0.467 11.13767 11.21643-12.45780
 3.88 0.00 -0.419 -0.419 -0.418 -0.417 -0.416 11.60097 11.74492-11.92959
 3.88 0.50 -0.376 -0.375 -0.375 -0.375 -0.374 12.02119 12.29425-11.38007
 3.88 1.00 -0.346 -0.346 -0.346 -0.346 -0.345 12.38810 12.85150-10.82275
 3.88 1.25 -0.333 -0.333 -0.332 -0.332 -0.332 12.55346 13.12671-10.54755
 3.88 1.50 -0.315 -0.315 -0.315 -0.315 -0.314 12.70978 13.39898-10.27532
 3.88 1.75 -0.294 -0.294 -0.294 -0.293 -0.293 12.85831 13.66702-10.00738
 3.88 2.00 -0.266 -0.266 -0.266 -0.266 -0.265 13.00130 13.93166 -9.74280
 3.88 2.25 -0.232 -0.232 -0.232 -0.232 -0.231 13.13995 14.19295 -9.48142
 3.88 2.50 -0.191 -0.191 -0.191 -0.191 -0.190 13.27531 14.45179 -9.22250
 3.88 2.75 -0.144 -0.143 -0.143 -0.143 -0.142 13.40800 14.70863 -8.96565
 3.88 3.00 -0.089 -0.089 -0.089 -0.089 -0.088 13.53883 14.96388 -8.71041
 3.88 3.20 -0.041 -0.041 -0.041 -0.041 -0.040 13.64242 15.16705 -8.50726
 3.88 3.40  0.009  0.009  0.009  0.010  0.011 13.74535 15.36963 -8.30470
 3.88 3.60  0.064  0.064  0.064  0.065  0.066 13.84766 15.57169 -8.10266
 3.88 3.80  0.122  0.122  0.122  0.123  0.124 13.94958 15.77339 -7.90096
 3.88 4.00  0.182  0.183  0.183  0.184  0.185 14.05115 15.97474 -7.69962
 3.88 4.20  0.245  0.246  0.246  0.247  0.248 14.15244 16.17579 -7.49860
 3.88 4.40  0.311  0.311  0.311  0.312  0.313 14.25356 16.37663 -7.29777
 3.88 4.60  0.378  0.378  0.378  0.379  0.380 14.35453 16.57729 -7.09713
 3.88 4.80  0.447  0.447  0.448  0.449  0.449 14.45540 16.77784 -6.89659
 3.88 5.00  0.519  0.519  0.519  0.520  0.521 14.55618 16.97827 -6.69616
 3.88 5.20  0.592  0.593  0.593  0.594  0.594 14.65686 17.17861 -6.49581
 3.88 5.40  0.669  0.669  0.669  0.670  0.670 14.75754 17.37888 -6.29551
 3.88 5.60  0.747  0.747  0.747  0.748  0.749 14.85821 17.57910 -6.09526
 3.88 5.80  0.828  0.828  0.828  0.828  0.829 14.95889 17.77929 -5.89505
 3.88 6.00  0.911  0.911  0.911  0.911  0.912 15.05956 17.97946 -5.69486
 3.88 6.25  1.017  1.018  1.018  1.018  1.018 15.18544 18.22966 -5.44468
 3.88 6.50  1.127  1.127  1.128  1.128  1.128 15.31133 18.47986 -5.19450
 3.88 6.75  1.240  1.240  1.240  1.240  1.241 15.43723 18.73020 -4.94413
 3.88 7.00  1.354  1.354  1.354  1.355  1.355 15.56313 18.98069 -4.69358
 3.88 7.25  1.470  1.470  1.470  1.470  1.471 15.68883 19.23147 -4.44279
 3.88 7.50  1.586  1.586  1.586  1.586  1.587 15.81425 19.48273 -4.19159
 3.88 7.75  1.699  1.699  1.700  1.700  1.700 15.93862 19.73532 -3.93898
 3.88 8.00  1.810  1.810  1.810  1.810  1.810 16.06221 19.98896 -3.68529
 3.91-2.00 -0.538 -0.538 -0.538 -0.538 -0.537  9.62808  9.66876-14.00555
 3.91-1.50 -0.531 -0.531 -0.531 -0.531 -0.529 10.12775 10.16909-13.50529
 3.91-1.00 -0.512 -0.512 -0.512 -0.511 -0.509 10.62675 10.66997-13.00436
 3.91-0.50 -0.466 -0.466 -0.465 -0.464 -0.463 11.12353 11.17290-12.50155
 3.91 0.00 -0.376 -0.376 -0.375 -0.374 -0.373 11.61426 11.68106-11.99353
 3.91 0.50 -0.241 -0.241 -0.241 -0.240 -0.239 12.08778 12.20249-11.47198
 3.91 1.00 -0.090 -0.090 -0.090 -0.089 -0.088 12.52556 12.74484-10.92959
 3.91 1.25 -0.021 -0.021 -0.021 -0.021 -0.020 12.72476 13.02315-10.65122
 3.91 1.50  0.040  0.040  0.041  0.041  0.041 12.91126 13.30146-10.37284
 3.91 1.75  0.094  0.094  0.094  0.095  0.095 13.08455 13.57849-10.09580
 3.91 2.00  0.144  0.144  0.144  0.144  0.145 13.24748 13.85388 -9.82045
 3.91 2.25  0.189  0.189  0.189  0.189  0.189 13.40115 14.12452 -9.54980
 3.91 2.50  0.233  0.233  0.233  0.233  0.234 13.54814 14.39164 -9.28266
 3.91 2.75  0.277  0.277  0.278  0.278  0.278 13.68977 14.65518 -9.01914
 3.91 3.00  0.324  0.324  0.324  0.325  0.325 13.82743 14.91587 -8.75845
 3.91 3.20  0.364  0.364  0.364  0.364  0.365 13.93518 15.12250 -8.55180
 3.91 3.40  0.406  0.406  0.406  0.406  0.407 14.04150 15.32795 -8.34633
 3.91 3.60  0.451  0.451  0.451  0.451  0.452 14.14649 15.53231 -8.14202
 3.91 3.80  0.498  0.498  0.498  0.499  0.500 14.25061 15.73590 -7.93848
 3.91 4.00  0.548  0.548  0.548  0.549  0.550 14.35392 15.93877 -7.73565
 3.91 4.20  0.601  0.601  0.601  0.602  0.603 14.45654 16.14101 -7.53339
 3.91 4.40  0.656  0.656  0.656  0.657  0.658 14.55875 16.34282 -7.33154
 3.91 4.60  0.713  0.713  0.714  0.714  0.715 14.66058 16.54425 -7.13007
 3.91 4.80  0.773  0.773  0.774  0.774  0.775 14.76220 16.74543 -6.92886
 3.91 5.00  0.835  0.836  0.836  0.837  0.838 14.86362 16.94636 -6.72793
 3.91 5.20  0.900  0.900  0.901  0.901  0.902 14.96490 17.14709 -6.52727
 3.91 5.40  0.967  0.968  0.968  0.968  0.969 15.06607 17.34769 -6.32673
 3.91 5.60  1.037  1.037  1.038  1.038  1.039 15.16709 17.54815 -6.12630
 3.91 5.80  1.110  1.110  1.110  1.111  1.112 15.26806 17.74851 -5.92592
 3.91 6.00  1.185  1.185  1.186  1.186  1.187 15.36903 17.94880 -5.72561
 3.91 6.25  1.283  1.283  1.283  1.284  1.284 15.49529 18.19907 -5.47533
 3.91 6.50  1.385  1.385  1.385  1.386  1.386 15.62159 18.44933 -5.22505
 3.91 6.75  1.491  1.491  1.491  1.491  1.492 15.74798 18.69959 -4.97476
 3.91 7.00  1.600  1.600  1.600  1.601  1.601 15.87437 18.94988 -4.72446
 3.91 7.25  1.712  1.712  1.712  1.713  1.713 16.00074 19.20024 -4.47411
 3.91 7.50  1.826  1.826  1.827  1.827  1.827 16.12710 19.45071 -4.22366
 3.91 7.75  1.942  1.942  1.942  1.942  1.942 16.25286 19.70167 -3.97274
 3.91 8.00  2.057  2.057  2.057  2.057  2.057 16.37822 19.95299 -3.72147
 3.94-2.00 -0.539 -0.539 -0.539 -0.539 -0.538  9.59835  9.63839-14.03593
 3.94-1.50 -0.535 -0.534 -0.534 -0.534 -0.534 10.09795 10.13862-13.53566
 3.94-1.00 -0.521 -0.521 -0.521 -0.520 -0.519 10.59781 10.63889-13.03541
 3.94-0.50 -0.484 -0.483 -0.483 -0.482 -0.481 11.09691 11.13956-12.53477
 3.94 0.00 -0.399 -0.398 -0.398 -0.397 -0.395 11.59484 11.64167-12.03269
 3.94 0.50 -0.244 -0.243 -0.243 -0.242 -0.241 12.08778 12.14768-11.52651
 3.94 1.00 -0.018 -0.018 -0.018 -0.017 -0.016 12.56785 12.66455-11.00979
 3.94 1.25  0.108  0.108  0.108  0.109  0.110 12.79733 12.93034-10.74395
 3.94 1.50  0.234  0.234  0.234  0.235  0.236 13.01745 13.20085-10.47340
 3.94 1.75  0.349  0.349  0.349  0.349  0.350 13.22426 13.47809-10.19640
 3.94 2.00  0.449  0.449  0.449  0.449  0.450 13.41847 13.75549 -9.91901
 3.94 2.25  0.531  0.532  0.532  0.532  0.532 13.59844 14.03299 -9.64141
 3.94 2.50  0.602  0.602  0.602  0.602  0.603 13.76716 14.31048 -9.36381
 3.94 2.75  0.661  0.661  0.661  0.661  0.662 13.92551 14.58328 -9.09098
 3.94 3.00  0.714  0.714  0.714  0.714  0.715 14.07628 14.85266 -8.82160
 3.94 3.20  0.754  0.754  0.754  0.754  0.755 14.19228 15.06517 -8.60913
 3.94 3.40  0.793  0.793  0.793  0.794  0.794 14.30535 15.27570 -8.39864
 3.94 3.60  0.833  0.833  0.833  0.833  0.834 14.41560 15.48424 -8.19008
 3.94 3.80  0.873  0.873  0.873  0.873  0.874 14.52396 15.69129 -7.98300
 3.94 4.00  0.915  0.915  0.915  0.916  0.916 14.63063 15.89697 -7.77728
 3.94 4.20  0.959  0.959  0.959  0.959  0.960 14.73597 16.10148 -7.57279
 3.94 4.40  1.005  1.005  1.005  1.005  1.006 14.84039 16.30517 -7.36913
 3.94 4.60  1.053  1.053  1.053  1.054  1.055 14.94396 16.50810 -7.16624
 3.94 4.80  1.103  1.103  1.104  1.104  1.105 15.04698 16.71052 -6.96385
 3.94 5.00  1.156  1.156  1.157  1.157  1.158 15.14953 16.91243 -6.76195
 3.94 5.20  1.212  1.212  1.212  1.212  1.213 15.25168 17.11393 -6.56043
 3.94 5.40  1.270  1.270  1.270  1.270  1.271 15.35361 17.31514 -6.35920
 3.94 5.60  1.330  1.330  1.331  1.331  1.332 15.45532 17.51610 -6.15827
 3.94 5.80  1.394  1.394  1.394  1.395  1.396 15.55693 17.71689 -5.95755
 3.94 6.00  1.461  1.461  1.461  1.461  1.462 15.65849 17.91751 -5.75696
 3.94 6.25  1.548  1.548  1.548  1.549  1.549 15.78538 18.16804 -5.50635
 3.94 6.50  1.641  1.641  1.641  1.641  1.642 15.91228 18.41847 -5.25586
 3.94 6.75  1.738  1.738  1.738  1.738  1.739 16.03935 18.66886 -5.00553
 3.94 7.00  1.840  1.840  1.840  1.840  1.840 16.16643 18.91918 -4.75523
 3.94 7.25  1.946  1.946  1.946  1.946  1.946 16.29352 19.16940 -4.50496
 3.94 7.50  2.055  2.055  2.055  2.056  2.056 16.42062 19.41963 -4.25469
 3.94 7.75  2.168  2.168  2.168  2.168  2.168 16.54745 19.66997 -4.00436
 3.94 8.00  2.283  2.283  2.283  2.283  2.283 16.67413 19.92039 -3.75399
 3.97-2.00 -0.535 -0.535 -0.535 -0.535 -0.535  9.57019  9.60681-14.06758
 3.97-1.50 -0.535 -0.535 -0.535 -0.535 -0.535 10.06893 10.10789-13.56639
 3.97-1.00 -0.527 -0.527 -0.527 -0.527 -0.526 10.56820 10.60863-13.06575
 3.97-0.50 -0.501 -0.501 -0.501 -0.500 -0.499 11.06781 11.10890-12.56543
 3.97 0.00 -0.433 -0.433 -0.433 -0.432 -0.431 11.56714 11.60959-12.06474
 3.97 0.50 -0.294 -0.294 -0.293 -0.292 -0.291 12.06521 12.11126-11.56304
 3.97 1.00 -0.062 -0.062 -0.061 -0.060 -0.059 12.55955 12.61637-11.05799
 3.97 1.25  0.086  0.086  0.087  0.088  0.089 12.80318 12.87187-10.80253
 3.97 1.50  0.251  0.251  0.251  0.252  0.253 13.04297 13.13033-10.54409
 3.97 1.75  0.419  0.419  0.420  0.420  0.421 13.27594 13.39390-10.28048
 3.97 2.00  0.582  0.582  0.582  0.583  0.584 13.50065 13.66219-10.01216
 3.97 2.25  0.727  0.727  0.727  0.728  0.728 13.71264 13.93721 -9.73722
 3.97 2.50  0.851  0.851  0.852  0.852  0.853 13.91233 14.21405 -9.46042
 3.97 2.75  0.952  0.952  0.952  0.952  0.953 14.09762 14.49219 -9.18228
 3.97 3.00  1.035  1.035  1.035  1.035  1.036 14.27114 14.77034 -8.90413
 3.97 3.20  1.090  1.090  1.090  1.090  1.091 14.40169 14.98987 -8.68456
 3.97 3.40  1.139  1.139  1.139  1.139  1.139 14.52689 15.20736 -8.46702
 3.97 3.60  1.183  1.183  1.183  1.183  1.184 14.64689 15.42243 -8.25195
 3.97 3.80  1.224  1.224  1.224  1.225  1.225 14.76325 15.63506 -8.03936
 3.97 4.00  1.265  1.265  1.265  1.265  1.266 14.87633 15.84559 -7.82886
 3.97 4.20  1.304  1.304  1.304  1.305  1.305 14.98674 16.05413 -7.62032
 3.97 4.40  1.345  1.345  1.345  1.345  1.346 15.09531 16.26120 -7.41324
 3.97 4.60  1.386  1.387  1.387  1.387  1.388 15.20216 16.46684 -7.20755
 3.97 4.80  1.430  1.430  1.430  1.430  1.431 15.30790 16.67147 -7.00288
 3.97 5.00  1.475  1.475  1.475  1.475  1.476 15.41263 16.87518 -6.79915
 3.97 5.20  1.522  1.522  1.522  1.523  1.523 15.51654 17.07810 -6.59628
 3.97 5.40  1.572  1.572  1.572  1.572  1.573 15.61994 17.28049 -6.39392
 3.97 5.60  1.624  1.624  1.624  1.624  1.625 15.72283 17.48236 -6.19201
 3.97 5.80  1.679  1.679  1.679  1.679  1.680 15.82545 17.68391 -5.99041
 3.97 6.00  1.737  1.737  1.737  1.737  1.737 15.92789 17.88514 -5.78915
 3.97 6.25  1.813  1.813  1.813  1.813  1.814 16.05576 18.13632 -5.53810
 3.97 6.50  1.895  1.895  1.895  1.895  1.896 16.18356 18.38721 -5.28727
 3.97 6.75  1.983  1.983  1.983  1.983  1.983 16.31129 18.63786 -5.03653
 3.97 7.00  2.076  2.076  2.076  2.076  2.076 16.43902 18.88835 -4.78595
 3.97 7.25  2.174  2.174  2.174  2.174  2.174 16.56700 19.13870 -4.53561
 3.97 7.50  2.277  2.277  2.277  2.277  2.277 16.69504 19.38899 -4.28533
 3.97 7.75  2.384  2.384  2.384  2.384  2.385 16.82312 19.63925 -4.03509
 3.97 8.00  2.495  2.495  2.495  2.495  2.496 16.95124 19.88947 -3.78489
 4.00-2.00 -0.519 -0.519 -0.519 -0.519 -0.518  9.54937  9.56820-14.10613
 4.00-1.50 -0.527 -0.527 -0.527 -0.527 -0.527 10.04376 10.07335-13.60085
 4.00-1.00 -0.528 -0.528 -0.528 -0.528 -0.527 10.54033 10.57680-13.09762
 4.00-0.50 -0.513 -0.513 -0.512 -0.512 -0.512 11.03862 11.07809-12.59619
 4.00 0.00 -0.464 -0.464 -0.464 -0.464 -0.463 11.53795 11.57887-12.09550
 4.00 0.50 -0.352 -0.351 -0.351 -0.350 -0.349 12.03703 12.07954-11.59482
 4.00 1.00 -0.143 -0.143 -0.142 -0.142 -0.141 12.53555 12.58115-11.09323
 4.00 1.25  0.000  0.000  0.001  0.001  0.002 12.78371 12.83287-10.84157
 4.00 1.50  0.168  0.169  0.169  0.170  0.171 13.03060 13.08565-10.58889
 4.00 1.75  0.355  0.355  0.356  0.357  0.357 13.27506 13.34046-10.33405
 4.00 2.00  0.552  0.552  0.553  0.553  0.554 13.51614 13.59791-10.07650
 4.00 2.25  0.747  0.747  0.748  0.748  0.749 13.75095 13.86003 -9.81427
 4.00 2.50  0.931  0.931  0.932  0.932  0.933 13.97814 14.12678 -9.54745
 4.00 2.75  1.093  1.093  1.093  1.094  1.094 14.19340 14.40044 -9.27399
 4.00 3.00  1.231  1.231  1.231  1.232  1.232 14.39672 14.67669 -8.99783
 4.00 3.20  1.322  1.322  1.322  1.322  1.323 14.54875 14.89942 -8.77507
 4.00 3.40  1.399  1.399  1.399  1.399  1.400 14.69305 15.12214 -8.55231
 4.00 3.60  1.464  1.464  1.464  1.464  1.464 14.82937 15.34385 -8.33055
 4.00 3.80  1.519  1.519  1.519  1.519  1.519 14.95927 15.56311 -8.11123
 4.00 4.00  1.568  1.568  1.568  1.568  1.569 15.08350 15.78046 -7.89381
 4.00 4.20  1.612  1.612  1.612  1.612  1.612 15.20281 15.99483 -7.67945
 4.00 4.40  1.653  1.653  1.653  1.653  1.653 15.31867 16.20707 -7.46722
 4.00 4.60  1.692  1.692  1.692  1.692  1.693 15.43124 16.41716 -7.25713
 4.00 4.80  1.731  1.731  1.731  1.732  1.732 15.54163 16.62552 -7.04875
 4.00 5.00  1.771  1.771  1.771  1.771  1.772 15.65002 16.83232 -6.84194
 4.00 5.20  1.812  1.812  1.812  1.812  1.812 15.75676 17.03772 -6.63657
 4.00 5.40  1.855  1.855  1.855  1.855  1.855 15.86244 17.24215 -6.43216
 4.00 5.60  1.899  1.899  1.899  1.900  1.900 15.96709 17.44568 -6.22861
 4.00 5.80  1.946  1.947  1.947  1.947  1.947 16.07113 17.64859 -6.02567
 4.00 6.00  1.996  1.996  1.996  1.997  1.997 16.17464 17.85089 -5.82333
 4.00 6.25  2.063  2.063  2.063  2.063  2.063 16.30347 18.10303 -5.57120
 4.00 6.50  2.135  2.135  2.135  2.135  2.135 16.43201 18.35468 -5.31957
 4.00 6.75  2.213  2.213  2.213  2.213  2.213 16.56030 18.60601 -5.06828
 4.00 7.00  2.296  2.296  2.296  2.297  2.297 16.68860 18.85703 -4.81730
 4.00 7.25  2.386  2.386  2.386  2.386  2.386 16.81701 19.10777 -4.56666
 4.00 7.50  2.482  2.482  2.482  2.482  2.482 16.94557 19.35832 -4.31614
 4.00 7.75  2.583  2.583  2.583  2.583  2.583 17.07465 19.60874 -4.06569
 4.00 8.00  2.689  2.689  2.689  2.689  2.689 17.20412 19.85902 -3.81531
 4.05-2.00 -0.501 -0.501 -0.501 -0.501 -0.501  9.50826  9.50961-14.16482
 4.05-1.50 -0.502 -0.502 -0.502 -0.502 -0.502 10.00732 10.01072-13.66374
 4.05-1.00 -0.505 -0.505 -0.505 -0.505 -0.504 10.50420 10.51362-13.16077
 4.05-0.50 -0.506 -0.506 -0.506 -0.506 -0.505 10.99900 11.01870-12.65580
 4.05 0.00 -0.491 -0.491 -0.491 -0.491 -0.490 11.49346 11.52388-12.15052
 4.05 0.50 -0.431 -0.431 -0.431 -0.430 -0.429 11.98994 12.02694-11.64724
 4.05 1.00 -0.287 -0.287 -0.286 -0.286 -0.285 12.48827 12.52866-11.14569
 4.05 1.25 -0.173 -0.173 -0.173 -0.172 -0.171 12.73761 12.77923-10.89512
 4.05 1.50 -0.029 -0.029 -0.029 -0.028 -0.027 12.98695 13.02979-10.64455
 4.05 1.75  0.142  0.142  0.143  0.143  0.144 13.23598 13.28068-10.39366
 4.05 2.00  0.339  0.339  0.339  0.340  0.341 13.48458 13.53199-10.14237
 4.05 2.25  0.552  0.552  0.553  0.553  0.554 13.73202 13.78424 -9.89014
 4.05 2.50  0.774  0.774  0.775  0.775  0.776 13.97786 14.03783 -9.63658
 4.05 2.75  0.998  0.999  0.999  0.999  1.000 14.22059 14.29411 -9.38026
 4.05 3.00  1.217  1.217  1.218  1.218  1.219 14.45909 14.55364 -9.12068
 4.05 3.20  1.382  1.382  1.382  1.383  1.383 14.64444 14.76519 -8.90913
 4.05 3.40  1.534  1.534  1.535  1.535  1.535 14.82410 14.97974 -8.69459
 4.05 3.60  1.670  1.670  1.670  1.671  1.671 14.99684 15.19853 -8.47583
 4.05 3.80  1.788  1.789  1.789  1.789  1.789 15.16099 15.41972 -8.25466
 4.05 4.00  1.891  1.891  1.891  1.891  1.891 15.31723 15.64147 -8.03292
 4.05 4.20  1.974  1.974  1.974  1.974  1.974 15.46410 15.86358 -7.81083
 4.05 4.40  2.046  2.046  2.046  2.046  2.046 15.60371 16.08568 -7.58873
 4.05 4.60  2.107  2.107  2.107  2.107  2.107 15.73596 16.30640 -7.36805
 4.05 4.80  2.159  2.159  2.159  2.159  2.159 15.86253 16.52413 -7.15036
 4.05 5.00  2.207  2.207  2.207  2.207  2.207 15.98412 16.73973 -6.93479
 4.05 5.20  2.250  2.250  2.251  2.251  2.251 16.10153 16.95257 -6.72184
 4.05 5.40  2.293  2.293  2.293  2.293  2.293 16.21597 17.16343 -6.51088
 4.05 5.60  2.334  2.334  2.334  2.334  2.334 16.32755 17.37232 -6.30198
 4.05 5.80  2.376  2.376  2.376  2.376  2.376 16.43730 17.57970 -6.09466
 4.05 6.00  2.419  2.419  2.419  2.419  2.420 16.54543 17.78569 -5.88874
 4.05 6.25  2.476  2.476  2.476  2.476  2.476 16.67886 18.04153 -5.63289
 4.05 6.50  2.536  2.536  2.536  2.536  2.536 16.81104 18.29601 -5.37841
 4.05 6.75  2.601  2.601  2.601  2.601  2.601 16.94212 18.54938 -5.12511
 4.05 7.00  2.671  2.671  2.671  2.671  2.671 17.07298 18.80195 -4.87257
 4.05 7.25  2.746  2.746  2.746  2.746  2.746 17.20372 19.05389 -4.62059
 4.05 7.50  2.829  2.829  2.829  2.829  2.829 17.33445 19.30535 -4.36906
 4.05 7.75  2.918  2.918  2.918  2.918  2.918 17.46548 19.55649 -4.11789
 4.05 8.00  3.013  3.013  3.013  3.013  3.013 17.59671 19.80726 -3.86710
 4.10-2.00 -0.500 -0.500 -0.500 -0.499 -0.499  9.45894  9.45894-14.21538
 4.10-1.50 -0.499 -0.499 -0.499 -0.498 -0.498  9.95876  9.95904-13.71534
 4.10-1.00 -0.497 -0.497 -0.497 -0.497 -0.496 10.45864 10.45924-13.21510
 4.10-0.50 -0.493 -0.493 -0.493 -0.493 -0.492 10.95794 10.95985-12.71444
 4.10 0.00 -0.482 -0.482 -0.482 -0.482 -0.481 11.45637 11.46150-12.21282
 4.10 0.50 -0.450 -0.450 -0.450 -0.449 -0.449 11.95250 11.96520-11.70908
 4.10 1.00 -0.368 -0.368 -0.368 -0.368 -0.367 12.44685 12.47071-11.20363
 4.10 1.25 -0.297 -0.296 -0.296 -0.296 -0.295 12.69414 12.72322-10.95108
 4.10 1.50 -0.197 -0.197 -0.197 -0.197 -0.196 12.94161 12.97548-10.69875
 4.10 1.75 -0.068 -0.068 -0.068 -0.067 -0.066 13.18993 13.22701-10.44723
 4.10 2.00  0.091  0.091  0.091  0.091  0.092 13.43854 13.47828-10.19600
 4.10 2.25  0.279  0.279  0.279  0.279  0.280 13.68743 13.72932 -9.94500
 4.10 2.50  0.489  0.490  0.490  0.490  0.491 13.93631 13.98037 -9.69401
 4.10 2.75  0.718  0.718  0.718  0.719  0.719 14.18467 14.23184 -9.44253
 4.10 3.00  0.956  0.956  0.956  0.957  0.957 14.43233 14.48387 -9.19044
 4.10 3.20  1.148  1.148  1.148  1.149  1.149 14.62926 14.68658 -8.98773
 4.10 3.40  1.339  1.339  1.339  1.340  1.340 14.82466 14.89057 -8.78377
 4.10 3.60  1.526  1.526  1.527  1.527  1.527 15.01806 15.09628 -8.57808
 4.10 3.80  1.707  1.707  1.707  1.707  1.708 15.20772 15.30471 -8.36967
 4.10 4.00  1.878  1.878  1.878  1.878  1.879 15.39357 15.51574 -8.15864
 4.10 4.20  2.033  2.034  2.034  2.034  2.034 15.57276 15.73105 -7.94328
 4.10 4.40  2.174  2.174  2.174  2.174  2.174 15.74511 15.94892 -7.72537
 4.10 4.60  2.295  2.295  2.295  2.295  2.295 15.90946 16.17005 -7.50424
 4.10 4.80  2.398  2.398  2.398  2.398  2.398 16.06502 16.39252 -7.28179
 4.10 5.00  2.487  2.487  2.487  2.487  2.487 16.21272 16.61500 -7.05933
 4.10 5.20  2.560  2.560  2.560  2.560  2.560 16.35208 16.83627 -6.83808
 4.10 5.40  2.624  2.624  2.624  2.624  2.624 16.48517 17.05629 -6.61805
 4.10 5.60  2.680  2.680  2.680  2.680  2.681 16.61200 17.27430 -6.40007
 4.10 5.80  2.732  2.732  2.732  2.732  2.732 16.73431 17.48955 -6.18486
 4.10 6.00  2.781  2.781  2.781  2.781  2.781 16.85266 17.70260 -5.97184
 4.10 6.25  2.839  2.839  2.839  2.839  2.839 16.99623 17.96556 -5.70876
 4.10 6.50  2.899  2.899  2.899  2.899  2.899 17.13640 18.22583 -5.44843
 4.10 6.75  2.959  2.959  2.959  2.959  2.959 17.27387 18.48387 -5.19055
 4.10 7.00  3.023  3.023  3.023  3.023  3.023 17.40977 18.74013 -4.93442
 4.10 7.25  3.091  3.091  3.091  3.091  3.091 17.54429 18.99486 -4.67964
 4.10 7.50  3.164  3.164  3.164  3.164  3.164 17.67861 19.24846 -4.42597
 4.10 7.75  3.243  3.243  3.243  3.243  3.243 17.81286 19.50128 -4.17312
 4.10 8.00  3.329  3.329  3.329  3.329  3.329 17.94699 19.75320 -3.92118
 4.15-2.00 -0.500 -0.500 -0.500 -0.500 -0.500  9.40892  9.40892-14.26544
 4.15-1.50 -0.498 -0.498 -0.498 -0.498 -0.498  9.90886  9.90891-13.76548
 4.15-1.00 -0.496 -0.496 -0.495 -0.495 -0.495 10.40892 10.40909-13.26536
 4.15-0.50 -0.492 -0.492 -0.492 -0.492 -0.491 10.90875 10.90902-12.76523
 4.15 0.00 -0.484 -0.484 -0.484 -0.484 -0.483 11.40858 11.40926-12.26512
 4.15 0.50 -0.463 -0.463 -0.463 -0.462 -0.462 11.90816 11.90961-11.76472
 4.15 1.00 -0.408 -0.408 -0.407 -0.407 -0.406 12.40705 12.41078-11.26352
 4.15 1.25 -0.357 -0.357 -0.357 -0.357 -0.356 12.65584 12.66197-11.01235
 4.15 1.50 -0.287 -0.287 -0.287 -0.286 -0.285 12.90412 12.91366-10.76070
 4.15 1.75 -0.195 -0.195 -0.194 -0.194 -0.193 13.15159 13.16614-10.50820
 4.15 2.00 -0.078 -0.078 -0.078 -0.077 -0.076 13.39881 13.41880-10.25555
 4.15 2.25  0.063  0.064  0.064  0.064  0.065 13.64584 13.67157-10.00281
 4.15 2.50  0.232  0.232  0.233  0.233  0.234 13.89287 13.92433 -9.75007
 4.15 2.75  0.428  0.428  0.428  0.429  0.430 14.14069 14.17652 -9.49790
 4.15 3.00  0.646  0.647  0.647  0.647  0.648 14.38863 14.42846 -9.24596
 4.15 3.20  0.835  0.835  0.835  0.835  0.836 14.58705 14.62980 -9.04460
 4.15 3.40  1.030  1.030  1.031  1.031  1.032 14.78547 14.83114 -8.84324
 4.15 3.60  1.231  1.231  1.231  1.231  1.232 14.98365 15.03273 -8.64164
 4.15 3.80  1.433  1.433  1.433  1.434  1.434 15.18097 15.23511 -8.43925
 4.15 4.00  1.632  1.632  1.633  1.633  1.633 15.37749 15.43823 -8.23612
 4.15 4.20  1.829  1.829  1.829  1.829  1.829 15.57195 15.64300 -8.03136
 4.15 4.40  2.020  2.020  2.020  2.020  2.020 15.76382 15.84972 -7.82465
 4.15 4.60  2.202  2.202  2.202  2.202  2.202 15.95232 16.05911 -7.61525
 4.15 4.80  2.372  2.372  2.372  2.372  2.372 16.13530 16.27188 -7.40245
 4.15 5.00  2.527  2.527  2.527  2.528  2.528 16.31281 16.48756 -7.18675
 4.15 5.20  2.662  2.662  2.662  2.662  2.662 16.48190 16.70770 -6.96659
 4.15 5.40  2.781  2.781  2.781  2.781  2.781 16.64332 16.92864 -6.74565
 4.15 5.60  2.882  2.882  2.882  2.882  2.882 16.79625 17.15037 -6.52396
 4.15 5.80  2.968  2.968  2.968  2.968  2.968 16.94121 17.37227 -6.30210
 4.15 6.00  3.044  3.044  3.044  3.044  3.044 17.07918 17.59417 -6.08024
 4.15 6.25  3.124  3.124  3.124  3.125  3.125 17.24260 17.86721 -5.80718
 4.15 6.50  3.199  3.199  3.199  3.199  3.199 17.39863 18.13704 -5.53730
 4.15 6.75  3.267  3.267  3.267  3.267  3.267 17.54847 18.40304 -5.27131
 4.15 7.00  3.336  3.336  3.336  3.336  3.336 17.69417 18.66596 -5.00842
 4.15 7.25  3.404  3.404  3.404  3.404  3.404 17.83645 18.92600 -4.74846
 4.15 7.50  3.476  3.476  3.476  3.476  3.476 17.97708 19.18384 -4.49066
 4.15 7.75  3.551  3.551  3.551  3.551  3.551 18.11686 19.44005 -4.23447
 4.15 8.00  3.631  3.631  3.631  3.631  3.631 18.25551 19.69443 -3.98005
 4.20-2.00 -0.500 -0.500 -0.500 -0.500 -0.500  9.35889  9.35889-14.31542
 4.20-1.50 -0.499 -0.499 -0.499 -0.499 -0.499  9.85884  9.85890-13.81531
 4.20-1.00 -0.496 -0.496 -0.496 -0.496 -0.495 10.35889 10.35889-13.31542
 4.20-0.50 -0.491 -0.491 -0.491 -0.491 -0.490 10.85878 10.85896-12.81531
 4.20 0.00 -0.484 -0.484 -0.484 -0.483 -0.483 11.35870 11.35908-12.31533
 4.20 0.50 -0.470 -0.470 -0.470 -0.470 -0.469 11.85866 11.85908-11.81531
 4.20 1.00 -0.437 -0.437 -0.437 -0.436 -0.436 12.35851 12.35927-11.31507
 4.20 1.25 -0.406 -0.406 -0.405 -0.405 -0.404 12.60836 12.60943-11.06492
 4.20 1.50 -0.359 -0.358 -0.358 -0.358 -0.357 12.85812 12.85968-10.81474
 4.20 1.75 -0.291 -0.291 -0.291 -0.290 -0.290 13.10767 13.11012-10.56431
 4.20 2.00 -0.201 -0.201 -0.201 -0.200 -0.199 13.35698 13.36078-10.31363
 4.20 2.25 -0.085 -0.085 -0.085 -0.084 -0.083 13.60594 13.61183-10.06258
 4.20 2.50  0.055  0.055  0.055  0.056  0.057 13.85443 13.86332 -9.81107
 4.20 2.75  0.220  0.220  0.221  0.221  0.222 14.10206 14.11562 -9.55878
 4.20 3.00  0.407  0.407  0.408  0.408  0.409 14.34928 14.36829 -9.30610
 4.20 3.20  0.572  0.572  0.572  0.573  0.574 14.54674 14.57070 -9.10365
 4.20 3.40  0.748  0.748  0.748  0.748  0.749 14.74419 14.77310 -8.90120
 4.20 3.60  0.934  0.934  0.934  0.934  0.935 14.94179 14.97534 -8.69894
 4.20 3.80  1.129  1.129  1.129  1.129  1.130 15.13953 15.17742 -8.49688
 4.20 4.00  1.330  1.330  1.330  1.330  1.331 15.33726 15.37949 -8.29482
 4.20 4.20  1.536  1.536  1.536  1.536  1.537 15.53479 15.58171 -8.09261
 4.20 4.40  1.744  1.744  1.744  1.744  1.745 15.73202 15.78416 -7.89018
 4.20 4.60  1.950  1.950  1.950  1.950  1.950 15.92858 15.98722 -7.68714
 4.20 4.80  2.153  2.153  2.153  2.153  2.153 16.12336 16.19179 -7.48259
 4.20 5.00  2.351  2.351  2.351  2.351  2.351 16.31639 16.39777 -7.27663
 4.20 5.20  2.540  2.540  2.540  2.540  2.540 16.50553 16.60659 -7.06774
 4.20 5.40  2.719  2.719  2.719  2.719  2.719 16.69026 16.81812 -6.85615
 4.20 5.60  2.881  2.881  2.881  2.881  2.881 16.86952 17.03331 -6.64095
 4.20 5.80  3.026  3.026  3.026  3.026  3.026 17.04140 17.25152 -6.42277
 4.20 6.00  3.156  3.156  3.156  3.156  3.156 17.20629 17.47159 -6.20273
 4.20 6.25  3.290  3.290  3.290  3.290  3.290 17.39997 17.74906 -5.92528
 4.20 6.50  3.406  3.406  3.406  3.406  3.406 17.58241 18.02653 -5.64782
 4.20 6.75  3.502  3.502  3.502  3.502  3.502 17.75381 18.30122 -5.37313
 4.20 7.00  3.590  3.590  3.590  3.590  3.590 17.91709 18.57334 -5.10100
 4.20 7.25  3.671  3.671  3.671  3.671  3.671 18.07325 18.84136 -4.83298
 4.20 7.50  3.750  3.750  3.750  3.750  3.750 18.22505 19.10619 -4.56815
 4.20 7.75  3.828  3.828  3.828  3.828  3.828 18.37419 19.36820 -4.30614
 4.20 8.00  3.909  3.909  3.909  3.909  3.909 18.52009 19.62726 -4.04706
 4.25-2.00 -0.500 -0.500 -0.500 -0.500 -0.500  9.30899  9.30899-14.36542
 4.25-1.50 -0.500 -0.500 -0.500 -0.499 -0.499  9.80889  9.80889-13.86550
 4.25-1.00 -0.497 -0.497 -0.497 -0.497 -0.497 10.30878 10.30899-13.36542
 4.25-0.50 -0.492 -0.492 -0.492 -0.492 -0.492 10.80882 10.80895-12.86550
 4.25 0.00 -0.483 -0.483 -0.483 -0.483 -0.483 11.30878 11.30899-12.36532
 4.25 0.50 -0.471 -0.471 -0.471 -0.471 -0.470 11.80875 11.80902-11.86519
 4.25 1.00 -0.448 -0.448 -0.448 -0.448 -0.447 12.30878 12.30921-11.36522
 4.25 1.25 -0.429 -0.428 -0.428 -0.428 -0.427 12.55866 12.55921-11.11522
 4.25 1.50 -0.398 -0.398 -0.398 -0.398 -0.397 12.80855 12.80922-10.86519
 4.25 1.75 -0.354 -0.354 -0.354 -0.354 -0.352 13.05845 13.05929-10.61507
 4.25 2.00 -0.292 -0.292 -0.292 -0.291 -0.290 13.30835 13.30942-10.36492
 4.25 2.25 -0.208 -0.208 -0.207 -0.207 -0.205 13.55816 13.55961-10.11476
 4.25 2.50 -0.098 -0.098 -0.098 -0.098 -0.096 13.80787 13.80990 -9.86455
 4.25 2.75  0.038  0.038  0.038  0.039  0.041 14.05738 14.06038 -9.61403
 4.25 3.00  0.204  0.204  0.204  0.204  0.206 14.30664 14.31112 -9.36321
 4.25 3.20  0.355  0.356  0.356  0.356  0.358 14.50575 14.51200 -9.16232
 4.25 3.40  0.521  0.522  0.522  0.522  0.523 14.70453 14.71320 -8.96114
 4.25 3.60  0.698  0.699  0.699  0.699  0.700 14.90284 14.91486 -8.75951
 4.25 3.80  0.884  0.884  0.884  0.884  0.885 15.10068 15.11695 -8.55743
 4.25 4.00  1.075  1.075  1.075  1.075  1.076 15.29820 15.31931 -8.35507
 4.25 4.20  1.271  1.271  1.271  1.271  1.272 15.49547 15.52190 -8.15245
 4.25 4.40  1.471  1.471  1.471  1.472  1.472 15.69257 15.72461 -7.94973
 4.25 4.60  1.676  1.676  1.676  1.676  1.677 15.88958 15.92738 -7.74695
 4.25 4.80  1.885  1.885  1.885  1.885  1.885 16.08644 16.13024 -7.54410
 4.25 5.00  2.096  2.096  2.096  2.096  2.096 16.28308 16.33325 -7.34113
 4.25 5.20  2.306  2.306  2.306  2.306  2.306 16.47881 16.53699 -7.13741
 4.25 5.40  2.513  2.513  2.513  2.513  2.513 16.67332 16.74170 -6.93273
 4.25 5.60  2.714  2.714  2.714  2.714  2.714 16.86596 16.94795 -6.72648
 4.25 5.80  2.907  2.907  2.907  2.907  2.907 17.05494 17.15683 -6.51758
 4.25 6.00  3.091  3.091  3.091  3.091  3.091 17.24030 17.36810 -6.30627
 4.25 6.25  3.294  3.294  3.294  3.294  3.294 17.46316 17.63751 -6.03686
 4.25 6.50  3.476  3.476  3.476  3.476  3.476 17.67615 17.91041 -5.76397
 4.25 6.75  3.626  3.626  3.626  3.626  3.626 17.87631 18.18715 -5.48723
 4.25 7.00  3.758  3.758  3.758  3.758  3.758 18.06558 18.46390 -5.21049
 4.25 7.25  3.869  3.869  3.869  3.869  3.869 18.24382 18.73906 -4.93540
 4.25 7.50  3.970  3.970  3.970  3.970  3.970 18.41397 19.01241 -4.66214
 4.25 7.75  4.063  4.063  4.063  4.063  4.063 18.57816 19.28169 -4.39280
 4.25 8.00  4.154  4.154  4.154  4.154  4.154 18.73568 19.54765 -4.12668
 4.30-2.00 -0.498 -0.498 -0.498 -0.497 -0.497  9.26007  9.25768-14.41669
 4.30-1.50 -0.499 -0.499 -0.499 -0.498 -0.498  9.75929  9.75846-13.91578
 4.30-1.00 -0.498 -0.498 -0.498 -0.498 -0.497 10.25912 10.25888-13.41556
 4.30-0.50 -0.495 -0.495 -0.495 -0.495 -0.494 10.75884 10.75891-12.91542
 4.30 0.00 -0.487 -0.487 -0.487 -0.487 -0.486 11.25888 11.25888-12.41533
 4.30 0.50 -0.472 -0.472 -0.472 -0.472 -0.471 11.75876 11.75899-11.91542
 4.30 1.00 -0.450 -0.450 -0.450 -0.450 -0.449 12.25864 12.25912-11.41522
 4.30 1.25 -0.435 -0.435 -0.435 -0.435 -0.434 12.50861 12.50913-11.16513
 4.30 1.50 -0.414 -0.414 -0.414 -0.414 -0.413 12.75861 12.75914-10.91507
 4.30 1.75 -0.384 -0.384 -0.384 -0.383 -0.383 13.00862 13.00925-10.66509
 4.30 2.00 -0.341 -0.341 -0.341 -0.341 -0.340 13.25864 13.25935-10.41510
 4.30 2.25 -0.281 -0.281 -0.281 -0.281 -0.280 13.50851 13.50940-10.16510
 4.30 2.50 -0.201 -0.201 -0.201 -0.200 -0.199 13.75838 13.75944 -9.91507
 4.30 2.75 -0.096 -0.096 -0.096 -0.095 -0.093 14.00827 14.00961 -9.66490
 4.30 3.00  0.036  0.036  0.036  0.037  0.039 14.25816 14.25983 -9.41465
 4.30 3.20  0.164  0.164  0.164  0.165  0.167 14.45790 14.46003 -9.21444
 4.30 3.40  0.310  0.310  0.311  0.311  0.313 14.65754 14.66028 -9.01416
 4.30 3.60  0.474  0.474  0.474  0.475  0.476 14.85709 14.86063 -8.81376
 4.30 3.80  0.652  0.653  0.653  0.653  0.654 15.05651 15.06120 -8.61313
 4.30 4.00  0.841  0.842  0.842  0.842  0.843 15.25576 15.26198 -8.41229
 4.30 4.20  1.039  1.039  1.039  1.039  1.040 15.45455 15.46317 -8.21112
 4.30 4.40  1.240  1.240  1.240  1.241  1.242 15.65293 15.66474 -8.00959
 4.30 4.60  1.445  1.445  1.445  1.445  1.446 15.85085 15.86676 -7.80757
 4.30 4.80  1.651  1.651  1.651  1.651  1.651 16.04828 16.06922 -7.60507
 4.30 5.00  1.858  1.858  1.858  1.858  1.859 16.24527 16.27207 -7.40220
 4.30 5.20  2.068  2.068  2.068  2.068  2.068 16.44192 16.47519 -7.19914
 4.30 5.40  2.279  2.279  2.279  2.279  2.279 16.63805 16.67874 -6.99569
 4.30 5.60  2.492  2.492  2.492  2.492  2.492 16.83374 16.88267 -6.79183
 4.30 5.80  2.705  2.705  2.705  2.705  2.705 17.02861 17.08728 -6.58722
 4.30 6.00  2.914  2.914  2.914  2.914  2.914 17.22246 17.29270 -6.38174
 4.30 6.25  3.165  3.165  3.165  3.165  3.165 17.46094 17.55219 -6.12223
 4.30 6.50  3.403  3.403  3.403  3.403  3.403 17.69452 17.81491 -5.85949
 4.30 6.75  3.615  3.615  3.615  3.615  3.615 17.91976 18.08306 -5.59136
 4.30 7.00  3.807  3.807  3.807  3.807  3.807 18.13609 18.35468 -5.31976
 4.30 7.25  3.968  3.968  3.968  3.968  3.968 18.34049 18.63032 -5.04414
 4.30 7.50  4.112  4.112  4.112  4.112  4.112 18.53479 18.90596 -4.76853
 4.30 7.75  4.235  4.235  4.235  4.235  4.235 18.71980 19.18042 -4.49405
 4.30 8.00  4.350  4.350  4.350  4.350  4.350 18.89526 19.45408 -4.22033
 4.35-2.00 -0.473 -0.473 -0.473 -0.472 -0.472  9.22246  9.19507-14.47939
 4.35-1.50 -0.482 -0.482 -0.482 -0.482 -0.481  9.71767  9.69992-13.97429
 4.35-1.00 -0.490 -0.490 -0.490 -0.490 -0.489 10.21299 10.20466-13.46967
 4.35-0.50 -0.493 -0.493 -0.493 -0.493 -0.492 10.71037 10.70731-12.96698
 4.35 0.00 -0.490 -0.490 -0.489 -0.489 -0.488 11.20925 11.20844-12.46585
 4.35 0.50 -0.478 -0.478 -0.478 -0.477 -0.476 11.70893 11.70885-11.96537
 4.35 1.00 -0.454 -0.454 -0.454 -0.454 -0.453 12.20871 12.20898-11.46534
 4.35 1.25 -0.438 -0.438 -0.438 -0.437 -0.436 12.45868 12.45904-11.21536
 4.35 1.50 -0.418 -0.418 -0.418 -0.418 -0.417 12.70868 12.70910-10.96537
 4.35 1.75 -0.394 -0.394 -0.394 -0.393 -0.393 12.95869 12.95917-10.71523
 4.35 2.00 -0.362 -0.362 -0.362 -0.361 -0.361 13.20871 13.20925-10.46509
 4.35 2.25 -0.318 -0.318 -0.318 -0.318 -0.317 13.45861 13.45926-10.21503
 4.35 2.50 -0.259 -0.259 -0.259 -0.258 -0.258 13.70851 13.70927 -9.96497
 4.35 2.75 -0.179 -0.179 -0.179 -0.179 -0.178 13.95847 13.95939 -9.71491
 4.35 3.00 -0.075 -0.075 -0.075 -0.075 -0.073 14.20844 14.20951 -9.46483
 4.35 3.20  0.027  0.028  0.028  0.028  0.030 14.40826 14.40962 -9.26475
 4.35 3.40  0.150  0.150  0.151  0.151  0.153 14.60809 14.60972 -9.06464
 4.35 3.60  0.292  0.293  0.293  0.293  0.295 14.80792 14.80986 -8.86450
 4.35 3.80  0.453  0.453  0.453  0.454  0.455 15.00778 15.01006 -8.66431
 4.35 4.00  0.629  0.629  0.629  0.629  0.630 15.20763 15.21032 -8.46407
 4.35 4.20  0.817  0.817  0.817  0.818  0.819 15.40726 15.41065 -8.26374
 4.35 4.40  1.015  1.015  1.015  1.016  1.016 15.60671 15.61111 -8.06326
 4.35 4.60  1.220  1.220  1.220  1.220  1.221 15.80602 15.81176 -7.86262
 4.35 4.80  1.430  1.430  1.430  1.430  1.431 16.00508 16.01275 -7.66167
 4.35 5.00  1.642  1.642  1.642  1.642  1.643 16.20385 16.21405 -7.46042
 4.35 5.20  1.856  1.856  1.856  1.856  1.856 16.40204 16.41577 -7.25866
 4.35 5.40  2.070  2.070  2.070  2.071  2.071 16.59967 16.61797 -7.05639
 4.35 5.60  2.285  2.285  2.285  2.285  2.285 16.79672 16.82071 -6.85359
 4.35 5.80  2.501  2.501  2.501  2.501  2.501 16.99305 17.02410 -6.65016
 4.35 6.00  2.717  2.717  2.717  2.717  2.717 17.18865 17.22814 -6.44612
 4.35 6.25  2.986  2.986  2.986  2.986  2.986 17.43211 17.48405 -6.19026
 4.35 6.50  3.251  3.251  3.251  3.251  3.251 17.67367 17.74147 -5.93293
 4.35 6.75  3.503  3.503  3.503  3.503  3.503 17.91184 18.00143 -5.67298
 4.35 7.00  3.743  3.743  3.743  3.743  3.743 18.14551 18.26435 -5.41005
 4.35 7.25  3.958  3.958  3.958  3.958  3.958 18.37130 18.53197 -5.14242
 4.35 7.50  4.154  4.154  4.154  4.154  4.154 18.58894 18.80277 -4.87160
 4.35 7.75  4.322  4.322  4.322  4.322  4.322 18.79634 19.07603 -4.59834
 4.35 8.00  4.475  4.475  4.475  4.475  4.475 18.99419 19.35199 -4.32239
 4.40-2.00 -0.464 -0.464 -0.464 -0.464 -0.463  9.17696  9.14019-14.53417
 4.40-1.50 -0.464 -0.464 -0.464 -0.464 -0.464  9.67633  9.64068-14.03367
 4.40-1.00 -0.466 -0.466 -0.466 -0.466 -0.465 10.17522 10.14208-13.53224
 4.40-0.50 -0.471 -0.471 -0.471 -0.470 -0.470 10.67201 10.64532-13.02905
 4.40 0.00 -0.477 -0.477 -0.477 -0.476 -0.475 11.16732 11.15045-12.52389
 4.40 0.50 -0.476 -0.476 -0.476 -0.476 -0.474 11.66266 11.65504-12.01927
 4.40 1.00 -0.461 -0.461 -0.461 -0.460 -0.459 12.16017 12.15776-11.51670
 4.40 1.25 -0.446 -0.446 -0.445 -0.445 -0.444 12.40957 12.40826-11.26616
 4.40 1.50 -0.425 -0.425 -0.425 -0.425 -0.424 12.65916 12.65858-11.01579
 4.40 1.75 -0.400 -0.400 -0.400 -0.400 -0.399 12.90885 12.90881-10.76548
 4.40 2.00 -0.370 -0.370 -0.370 -0.370 -0.369 13.15866 13.15897-10.51527
 4.40 2.25 -0.333 -0.333 -0.333 -0.332 -0.331 13.40862 13.40907-10.26522
 4.40 2.50 -0.285 -0.285 -0.285 -0.285 -0.284 13.65858 13.65915-10.01516
 4.40 2.75 -0.223 -0.223 -0.223 -0.223 -0.222 13.90847 13.90921 -9.76508
 4.40 3.00 -0.142 -0.142 -0.141 -0.141 -0.140 14.15836 14.15927 -9.51499
 4.40 3.20 -0.059 -0.059 -0.058 -0.058 -0.057 14.35830 14.35936 -9.31492
 4.40 3.40  0.041  0.041  0.041  0.042  0.042 14.55823 14.55948 -9.11484
 4.40 3.60  0.162  0.162  0.162  0.162  0.163 14.75817 14.75960 -8.91472
 4.40 3.80  0.302  0.302  0.302  0.302  0.303 14.95812 14.95973 -8.71457
 4.40 4.00  0.461  0.461  0.461  0.461  0.462 15.15806 15.15987 -8.51442
 4.40 4.20  0.635  0.635  0.636  0.636  0.637 15.35785 15.36002 -8.31427
 4.40 4.40  0.823  0.823  0.823  0.823  0.824 15.55759 15.56020 -8.11411
 4.40 4.60  1.020  1.020  1.021  1.021  1.022 15.75730 15.76045 -7.91391
 4.40 4.80  1.225  1.225  1.226  1.226  1.227 15.95696 15.96085 -7.71358
 4.40 5.00  1.436  1.436  1.436  1.436  1.437 16.15655 16.16137 -7.51314
 4.40 5.20  1.650  1.650  1.651  1.651  1.651 16.35591 16.36199 -7.31251
 4.40 5.40  1.868  1.868  1.868  1.868  1.869 16.55501 16.56283 -7.11162
 4.40 5.60  2.087  2.087  2.087  2.088  2.088 16.75381 16.76398 -6.91043
 4.40 5.80  2.308  2.308  2.308  2.308  2.308 16.95209 16.96569 -6.70873
 4.40 6.00  2.530  2.530  2.530  2.530  2.530 17.14983 17.16791 -6.50654
 4.40 6.25  2.806  2.806  2.806  2.806  2.806 17.39582 17.42168 -6.25281
 4.40 6.50  3.083  3.083  3.083  3.083  3.083 17.64038 17.67669 -5.99784
 4.40 6.75  3.356  3.356  3.356  3.356  3.356 17.88329 17.93316 -5.74138
 4.40 7.00  3.621  3.621  3.621  3.621  3.621 18.12385 18.19145 -5.48307
 4.40 7.25  3.870  3.870  3.870  3.870  3.870 18.36099 18.45210 -5.22226
 4.40 7.50  4.108  4.108  4.108  4.108  4.108 18.59362 18.71559 -4.95861
 4.40 7.75  4.320  4.320  4.320  4.320  4.320 18.81862 18.98303 -4.69124
 4.40 8.00  4.517  4.517  4.517  4.517  4.517 19.03703 19.25406 -4.42045
 4.45-2.00 -0.463 -0.463 -0.463 -0.463 -0.462  9.12710  9.08991-14.58436
 4.45-1.50 -0.463 -0.463 -0.463 -0.463 -0.462  9.62696  9.58995-14.08439
 4.45-1.00 -0.463 -0.463 -0.463 -0.463 -0.462 10.12678 10.09026-13.58419
 4.45-0.50 -0.462 -0.462 -0.462 -0.462 -0.461 10.62665 10.59028-13.08402
 4.45 0.00 -0.462 -0.461 -0.461 -0.461 -0.460 11.12613 11.09096-12.58319
 4.45 0.50 -0.459 -0.459 -0.459 -0.459 -0.458 11.62418 11.59306-12.08129
 4.45 1.00 -0.451 -0.451 -0.451 -0.451 -0.450 12.12024 12.09726-11.57708
 4.45 1.25 -0.442 -0.442 -0.442 -0.442 -0.441 12.36773 12.34988-11.32447
 4.45 1.50 -0.428 -0.428 -0.427 -0.427 -0.426 12.61521 12.60249-11.07186
 4.45 1.75 -0.406 -0.406 -0.406 -0.406 -0.405 12.86306 12.85471-10.81973
 4.45 2.00 -0.378 -0.378 -0.378 -0.377 -0.376 13.11126 13.10653-10.56799
 4.45 2.25 -0.342 -0.342 -0.341 -0.341 -0.340 13.36018 13.35754-10.31688
 4.45 2.50 -0.298 -0.297 -0.297 -0.297 -0.296 13.60949 13.60821-10.06611
 4.45 2.75 -0.243 -0.243 -0.243 -0.243 -0.242 13.85917 13.85860 -9.81560
 4.45 3.00 -0.175 -0.175 -0.175 -0.175 -0.174 14.10890 14.10890 -9.56527
 4.45 3.20 -0.107 -0.107 -0.107 -0.107 -0.106 14.30869 14.30912 -9.36516
 4.45 3.40 -0.024 -0.024 -0.024 -0.024 -0.023 14.50850 14.50931 -9.16505
 4.45 3.60  0.075  0.075  0.076  0.076  0.077 14.70838 14.70942 -8.96492
 4.45 3.80  0.196  0.196  0.196  0.196  0.197 14.90830 14.90950 -8.76478
 4.45 4.00  0.336  0.336  0.336  0.336  0.337 15.10823 15.10958 -8.56463
 4.45 4.20  0.495  0.495  0.495  0.495  0.496 15.30807 15.30974 -8.36452
 4.45 4.40  0.669  0.669  0.669  0.670  0.670 15.50788 15.50992 -8.16440
 4.45 4.60  0.857  0.857  0.857  0.857  0.858 15.70768 15.71012 -7.96426
 4.45 4.80  1.055  1.055  1.055  1.055  1.056 15.90746 15.91034 -7.76407
 4.45 5.00  1.260  1.260  1.260  1.260  1.261 16.10721 16.11059 -7.56384
 4.45 5.20  1.470  1.471  1.471  1.471  1.471 16.30693 16.31087 -7.36355
 4.45 5.40  1.685  1.685  1.685  1.686  1.686 16.50658 16.51121 -7.16316
 4.45 5.60  1.904  1.904  1.904  1.904  1.904 16.70612 16.71166 -6.96266
 4.45 5.80  2.124  2.124  2.125  2.125  2.125 16.90543 16.91235 -6.76193
 4.45 6.00  2.348  2.348  2.348  2.348  2.348 17.10449 17.11328 -6.56098
 4.45 6.25  2.629  2.629  2.629  2.629  2.629 17.35271 17.36501 -6.30929
 4.45 6.50  2.912  2.912  2.912  2.912  2.912 17.60010 17.61753 -6.05685
 4.45 6.75  3.195  3.195  3.195  3.195  3.195 17.84615 17.87129 -5.80309
 4.45 7.00  3.477  3.477  3.477  3.477  3.477 18.09061 18.12646 -5.54791
 4.45 7.25  3.751  3.751  3.751  3.751  3.751 18.33299 18.38336 -5.29101
 4.45 7.50  4.013  4.013  4.013  4.013  4.013 18.57264 18.64237 -5.03203
 4.45 7.75  4.256  4.256  4.256  4.256  4.256 18.80793 18.90426 -4.77018
 4.45 8.00  4.487  4.487  4.487  4.487  4.487 19.03941 19.16879 -4.50571
 4.50-2.00 -0.463 -0.463 -0.463 -0.463 -0.462  9.07700  9.03981-14.63433
 4.50-1.50 -0.463 -0.463 -0.463 -0.463 -0.462  9.57703  9.53995-14.13442
 4.50-1.00 -0.463 -0.463 -0.463 -0.462 -0.461 10.07700 10.04021-13.63433
 4.50-0.50 -0.462 -0.462 -0.462 -0.462 -0.461 10.57692 10.53995-13.13436
 4.50 0.00 -0.461 -0.461 -0.461 -0.461 -0.460 11.07700 11.04021-12.63433
 4.50 0.50 -0.458 -0.458 -0.458 -0.458 -0.456 11.57669 11.54033-12.13407
 4.50 1.00 -0.450 -0.450 -0.450 -0.450 -0.449 12.07628 12.04100-11.63358
 4.50 1.25 -0.443 -0.443 -0.442 -0.442 -0.441 12.32577 12.29149-11.38301
 4.50 1.50 -0.430 -0.430 -0.430 -0.429 -0.428 12.57496 12.54220-11.13212
 4.50 1.75 -0.411 -0.411 -0.410 -0.410 -0.409 12.82365 12.79373-10.88066
 4.50 2.00 -0.383 -0.383 -0.382 -0.382 -0.381 13.07188 13.04571-10.62875
 4.50 2.25 -0.346 -0.346 -0.345 -0.345 -0.344 13.31940 13.29822-10.37621
 4.50 2.50 -0.300 -0.300 -0.300 -0.300 -0.299 13.56691 13.55072-10.12367
 4.50 2.75 -0.248 -0.248 -0.247 -0.247 -0.246 13.81450 13.80312 -9.87121
 4.50 3.00 -0.185 -0.185 -0.185 -0.185 -0.184 14.06221 14.05538 -9.61889
 4.50 3.20 -0.126 -0.126 -0.126 -0.125 -0.125 14.26103 14.25662 -9.41768
 4.50 3.40 -0.055 -0.055 -0.055 -0.055 -0.054 14.46013 14.45760 -9.21675
 4.50 3.60  0.028  0.028  0.029  0.029  0.030 14.65955 14.65830 -9.01611
 4.50 3.80  0.131  0.131  0.131  0.131  0.132 14.85914 14.85882 -8.81564
 4.50 4.00  0.252  0.252  0.252  0.252  0.253 15.05881 15.05918 -8.61529
 4.50 4.20  0.393  0.393  0.393  0.393  0.394 15.25849 15.25938 -8.41503
 4.50 4.40  0.552  0.552  0.552  0.553  0.553 15.45823 15.45957 -8.21480
 4.50 4.60  0.727  0.727  0.728  0.728  0.729 15.65802 15.65980 -8.01460
 4.50 4.80  0.916  0.916  0.916  0.916  0.917 15.85784 15.86006 -7.81441
 4.50 5.00  1.113  1.113  1.114  1.114  1.114 16.05767 16.06032 -7.61422
 4.50 5.20  1.319  1.319  1.319  1.319  1.319 16.25744 16.26049 -7.41398
 4.50 5.40  1.529  1.529  1.529  1.529  1.530 16.45717 16.46066 -7.21371
 4.50 5.60  1.744  1.744  1.744  1.744  1.745 16.65688 16.66090 -7.01341
 4.50 5.80  1.962  1.962  1.962  1.962  1.963 16.85655 16.86131 -6.81305
 4.50 6.00  2.183  2.183  2.183  2.183  2.183 17.05614 17.06183 -6.61261
 4.50 6.25  2.463  2.463  2.463  2.463  2.463 17.30527 17.31262 -6.36178
 4.50 6.50  2.744  2.744  2.744  2.744  2.744 17.55400 17.56372 -6.11059
 4.50 6.75  3.030  3.030  3.030  3.030  3.030 17.80221 17.81554 -5.85881
 4.50 7.00  3.319  3.319  3.319  3.319  3.319 18.04961 18.06819 -5.60625
 4.50 7.25  3.604  3.604  3.604  3.604  3.604 18.29544 18.32203 -5.35236
 4.50 7.50  3.886  3.886  3.886  3.886  3.886 18.53945 18.57738 -5.09691
 4.50 7.75  4.155  4.155  4.155  4.155  4.155 18.78071 18.83507 -4.83917
 4.50 8.00  4.408  4.408  4.408  4.408  4.408 19.01953 19.09482 -4.57938
 4.55-2.00 -0.463 -0.463 -0.463 -0.463 -0.462  9.02694  8.98998-14.68445
 4.55-1.50 -0.463 -0.463 -0.463 -0.463 -0.462  9.52699  9.48996-14.18442
 4.55-1.00 -0.463 -0.463 -0.463 -0.462 -0.462 10.02694  9.98998-13.68445
 4.55-0.50 -0.462 -0.462 -0.462 -0.462 -0.461 10.52699 10.48996-13.18436
 4.55 0.00 -0.462 -0.461 -0.461 -0.461 -0.460 11.02694 10.99003-12.68424
 4.55 0.50 -0.460 -0.460 -0.459 -0.459 -0.458 11.52699 11.49010-12.18429
 4.55 1.00 -0.455 -0.455 -0.455 -0.454 -0.453 12.02694 11.99016-11.68424
 4.55 1.25 -0.450 -0.450 -0.450 -0.450 -0.449 12.27686 12.24020-11.43418
 4.55 1.50 -0.443 -0.443 -0.443 -0.442 -0.441 12.52673 12.49024-11.18409
 4.55 1.75 -0.430 -0.430 -0.430 -0.430 -0.429 12.77648 12.74046-10.93391
 4.55 2.00 -0.411 -0.410 -0.410 -0.410 -0.409 13.02612 12.99083-10.68361
 4.55 2.25 -0.380 -0.380 -0.380 -0.380 -0.379 13.27568 13.24133-10.43310
 4.55 2.50 -0.337 -0.337 -0.337 -0.337 -0.336 13.52505 13.49206-10.18230
 4.55 2.75 -0.278 -0.278 -0.278 -0.278 -0.277 13.77397 13.74337 -9.93100
 4.55 3.00 -0.204 -0.204 -0.204 -0.203 -0.203 14.02243 13.99515 -9.67923
 4.55 3.20 -0.135 -0.135 -0.135 -0.135 -0.134 14.22044 14.19710 -9.47721
 4.55 3.40 -0.061 -0.060 -0.060 -0.060 -0.059 14.41845 14.39909 -9.27519
 4.55 3.60  0.021  0.021  0.021  0.021  0.022 14.61649 14.60112 -9.07318
 4.55 3.80  0.113  0.113  0.113  0.113  0.114 14.81462 14.80315 -8.87117
 4.55 4.00  0.218  0.218  0.218  0.218  0.219 15.01284 15.00518 -8.66918
 4.55 4.20  0.339  0.340  0.340  0.340  0.341 15.21142 15.20658 -8.46780
 4.55 4.40  0.479  0.479  0.479  0.479  0.480 15.41024 15.40768 -8.26672
 4.55 4.60  0.636  0.636  0.636  0.637  0.637 15.60934 15.60845 -8.06596
 4.55 4.80  0.810  0.810  0.810  0.810  0.811 15.80867 15.80901 -7.86539
 4.55 5.00  0.996  0.996  0.996  0.996  0.996 16.00817 16.00945 -7.66494
 4.55 5.20  1.192  1.192  1.192  1.192  1.193 16.20785 16.20978 -7.46459
 4.55 5.40  1.396  1.396  1.396  1.396  1.396 16.40757 16.41011 -7.26423
 4.55 5.60  1.606  1.606  1.606  1.606  1.606 16.60734 16.61045 -7.06388
 4.55 5.80  1.819  1.819  1.819  1.820  1.820 16.80712 16.81079 -6.86351
 4.55 6.00  2.037  2.037  2.037  2.037  2.037 17.00690 17.01115 -6.66314
 4.55 6.25  2.312  2.312  2.312  2.312  2.312 17.25627 17.26166 -6.41265
 4.55 6.50  2.590  2.590  2.590  2.590  2.590 17.50542 17.51229 -6.16210
 4.55 6.75  2.869  2.869  2.869  2.869  2.869 17.75440 17.76321 -5.91114
 4.55 7.00  3.156  3.156  3.156  3.156  3.156 18.00303 18.01452 -5.65975
 4.55 7.25  3.443  3.443  3.443  3.443  3.443 18.25099 18.26653 -5.40776
 4.55 7.50  3.731  3.731  3.731  3.731  3.731 18.49804 18.51944 -5.15490
 4.55 7.75  4.012  4.012  4.012  4.012  4.012 18.74324 18.77393 -4.90041
 4.55 8.00  4.285  4.285  4.285  4.285  4.285 18.98691 19.02979 -4.64455
 4.60-2.00 -0.463 -0.463 -0.463 -0.463 -0.462  8.97708  8.93997-14.73448
 4.60-1.50 -0.463 -0.463 -0.463 -0.463 -0.462  9.47698  9.43996-14.23441
 4.60-1.00 -0.463 -0.463 -0.463 -0.462 -0.461  9.97704  9.93997-13.73448
 4.60-0.50 -0.462 -0.462 -0.462 -0.462 -0.461 10.47698 10.43996-13.23441
 4.60 0.00 -0.462 -0.462 -0.462 -0.461 -0.460 10.97704 10.94002-12.73424
 4.60 0.50 -0.461 -0.461 -0.461 -0.460 -0.459 11.47698 11.43996-12.23433
 4.60 1.00 -0.458 -0.458 -0.458 -0.457 -0.456 11.97699 11.94007-11.73424
 4.60 1.25 -0.455 -0.455 -0.455 -0.455 -0.454 12.22691 12.19009-11.48425
 4.60 1.50 -0.451 -0.451 -0.451 -0.450 -0.450 12.47683 12.44012-11.23426
 4.60 1.75 -0.444 -0.444 -0.444 -0.444 -0.443 12.72684 12.69016-10.98426
 4.60 2.00 -0.433 -0.433 -0.432 -0.432 -0.431 12.97685 12.94022-10.73424
 4.60 2.25 -0.414 -0.414 -0.414 -0.414 -0.413 13.22671 13.19031-10.48414
 4.60 2.50 -0.386 -0.386 -0.386 -0.385 -0.384 13.47654 13.44044-10.23396
 4.60 2.75 -0.343 -0.343 -0.343 -0.343 -0.341 13.72637 13.69065 -9.98369
 4.60 3.00 -0.283 -0.283 -0.283 -0.283 -0.281 13.97617 13.94097 -9.73330
 4.60 3.20 -0.221 -0.221 -0.220 -0.220 -0.218 14.17577 14.14137 -9.53290
 4.60 3.40 -0.143 -0.143 -0.143 -0.143 -0.141 14.37517 14.34196 -9.33236
 4.60 3.60 -0.051 -0.050 -0.050 -0.050 -0.049 14.57435 14.54283 -9.13150
 4.60 3.80  0.056  0.056  0.056  0.056  0.057 14.77323 14.74407 -8.93021
 4.60 4.00  0.176  0.176  0.176  0.176  0.177 14.97183 14.94562 -8.72862
 4.60 4.20  0.306  0.306  0.306  0.307  0.307 15.16985 15.14772 -8.52662
 4.60 4.40  0.445  0.445  0.445  0.446  0.446 15.36786 15.34982 -8.32460
 4.60 4.60  0.593  0.593  0.593  0.594  0.594 15.56588 15.55189 -8.12257
 4.60 4.80  0.751  0.751  0.751  0.752  0.752 15.76394 15.75389 -7.92054
 4.60 5.00  0.920  0.920  0.920  0.920  0.920 15.96204 15.95578 -7.71851
 4.60 5.20  1.099  1.099  1.099  1.099  1.100 16.16067 16.15711 -7.51719
 4.60 5.40  1.288  1.288  1.288  1.289  1.289 16.35955 16.35819 -7.31611
 4.60 5.60  1.486  1.486  1.486  1.486  1.486 16.55874 16.55902 -7.11527
 4.60 5.80  1.691  1.691  1.691  1.691  1.691 16.75811 16.75970 -6.91456
 4.60 6.00  1.900  1.900  1.900  1.900  1.901 16.95756 16.96028 -6.71399
 4.60 6.25  2.168  2.168  2.168  2.168  2.168 17.20696 17.21089 -6.46348
 4.60 6.50  2.440  2.440  2.440  2.440  2.440 17.45637 17.46150 -6.21297
 4.60 6.75  2.709  2.709  2.709  2.709  2.709 17.70566 17.71219 -5.96223
 4.60 7.00  2.989  2.989  2.989  2.989  2.989 17.95482 17.96299 -5.71130
 4.60 7.25  3.271  3.271  3.271  3.271  3.271 18.20362 18.21411 -5.46015
 4.60 7.50  3.554  3.554  3.554  3.554  3.555 18.45194 18.46568 -5.20859
 4.60 7.75  3.835  3.835  3.835  3.835  3.835 18.69930 18.71824 -4.95603
 4.60 8.00  4.113  4.113  4.113  4.113  4.113 18.94586 18.97160 -4.70268
 4.65-2.00 -0.463 -0.463 -0.463 -0.462 -0.461  8.92706  8.88997-14.78436
 4.65-1.50 -0.463 -0.463 -0.463 -0.462 -0.461  9.42700  9.38987-14.28441
 4.65-1.00 -0.463 -0.463 -0.463 -0.462 -0.461  9.92706  9.88997-13.78436
 4.65-0.50 -0.462 -0.462 -0.462 -0.462 -0.461 10.42700 10.39005-13.28442
 4.65 0.00 -0.462 -0.462 -0.462 -0.461 -0.460 10.92706 10.89003-12.78436
 4.65 0.50 -0.461 -0.461 -0.461 -0.460 -0.459 11.42700 11.39005-12.28433
 4.65 1.00 -0.459 -0.459 -0.459 -0.459 -0.458 11.92701 11.89009-11.78436
 4.65 1.25 -0.458 -0.458 -0.458 -0.457 -0.456 12.17701 12.14007-11.53436
 4.65 1.50 -0.456 -0.456 -0.456 -0.455 -0.454 12.42700 12.39005-11.28433
 4.65 1.75 -0.452 -0.452 -0.452 -0.451 -0.450 12.67695 12.64010-11.03421
 4.65 2.00 -0.446 -0.445 -0.445 -0.445 -0.444 12.92691 12.89014-10.78410
 4.65 2.25 -0.435 -0.435 -0.435 -0.435 -0.434 13.17687 13.14019-10.53413
 4.65 2.50 -0.418 -0.418 -0.418 -0.418 -0.417 13.42684 13.39023-10.28416
 4.65 2.75 -0.392 -0.392 -0.391 -0.391 -0.390 13.67678 13.64029-10.03415
 4.65 3.00 -0.351 -0.351 -0.351 -0.351 -0.349 13.92670 13.89037 -9.78410
 4.65 3.20 -0.307 -0.307 -0.307 -0.306 -0.304 14.12659 14.09044 -9.58400
 4.65 3.40 -0.249 -0.249 -0.248 -0.248 -0.246 14.32644 14.29053 -9.38384
 4.65 3.60 -0.175 -0.175 -0.175 -0.175 -0.173 14.52626 14.49069 -9.18365
 4.65 3.80 -0.086 -0.085 -0.085 -0.085 -0.084 14.72605 14.69100 -8.98339
 4.65 4.00  0.022  0.022  0.022  0.023  0.023 14.92578 14.89143 -8.78304
 4.65 4.20  0.149  0.149  0.149  0.150  0.151 15.12526 15.09199 -8.58247
 4.65 4.40  0.296  0.296  0.296  0.296  0.298 15.32452 15.29276 -8.38166
 4.65 4.60  0.459  0.459  0.459  0.460  0.460 15.52348 15.49385 -8.18053
 4.65 4.80  0.635  0.635  0.635  0.635  0.636 15.72210 15.69532 -7.97905
 4.65 5.00  0.818  0.818  0.818  0.818  0.819 15.92044 15.89708 -7.77728
 4.65 5.20  1.004  1.004  1.004  1.004  1.005 16.11832 16.09929 -7.57509
 4.65 5.40  1.192  1.192  1.192  1.192  1.192 16.31620 16.30150 -7.37290
 4.65 5.60  1.381  1.381  1.381  1.381  1.381 16.51414 16.50363 -7.17077
 4.65 5.80  1.573  1.573  1.573  1.573  1.574 16.71228 16.70554 -6.96880
 4.65 6.00  1.770  1.770  1.770  1.770  1.770 16.91057 16.90725 -6.76700
 4.65 6.25  2.023  2.023  2.023  2.023  2.023 17.15898 17.15874 -6.51558
 4.65 6.50  2.282  2.282  2.282  2.282  2.282 17.40773 17.40993 -6.26440
 4.65 6.75  2.541  2.541  2.541  2.541  2.541 17.65687 17.66087 -6.01343
 4.65 7.00  2.806  2.806  2.806  2.806  2.806 17.90601 17.91180 -5.76246
 4.65 7.25  3.078  3.078  3.078  3.078  3.078 18.15500 18.16277 -5.51148
 4.65 7.50  3.352  3.352  3.352  3.352  3.352 18.40381 18.41380 -5.26051
 4.65 7.75  3.625  3.625  3.625  3.625  3.625 18.65220 18.66542 -5.00893
 4.65 8.00  3.898  3.898  3.898  3.898  3.898 18.90026 18.91745 -4.75696
 4.70-2.00 -0.463 -0.463 -0.462 -0.462 -0.461  8.87708  8.83998-14.83446
 4.70-1.50 -0.462 -0.462 -0.462 -0.462 -0.461  9.37694  9.33985-14.33442
 4.70-1.00 -0.462 -0.462 -0.462 -0.462 -0.461  9.87708  9.83998-13.83446
 4.70-0.50 -0.462 -0.462 -0.462 -0.462 -0.460 10.37694 10.34005-13.33442
 4.70 0.00 -0.462 -0.462 -0.462 -0.461 -0.460 10.87703 10.83998-12.83446
 4.70 0.50 -0.461 -0.461 -0.461 -0.460 -0.459 11.37694 11.34005-12.33442
 4.70 1.00 -0.460 -0.460 -0.459 -0.459 -0.458 11.87703 11.84004-11.83446
 4.70 1.25 -0.459 -0.459 -0.458 -0.458 -0.457 12.12698 12.09004-11.58440
 4.70 1.50 -0.457 -0.457 -0.457 -0.456 -0.455 12.37694 12.34005-11.33432
 4.70 1.75 -0.455 -0.455 -0.455 -0.454 -0.453 12.62696 12.59008-11.08424
 4.70 2.00 -0.451 -0.451 -0.451 -0.451 -0.450 12.87697 12.84011-10.83416
 4.70 2.25 -0.446 -0.446 -0.446 -0.445 -0.444 13.12696 13.09008-10.58420
 4.70 2.50 -0.436 -0.436 -0.436 -0.436 -0.435 13.37694 13.34005-10.33423
 4.70 2.75 -0.421 -0.421 -0.421 -0.420 -0.419 13.62688 13.59014-10.08421
 4.70 3.00 -0.397 -0.397 -0.396 -0.396 -0.395 13.87680 13.84023 -9.83416
 4.70 3.20 -0.368 -0.368 -0.368 -0.367 -0.366 14.07671 14.04024 -9.63412
 4.70 3.40 -0.329 -0.329 -0.329 -0.328 -0.327 14.27662 14.24024 -9.43407
 4.70 3.60 -0.277 -0.277 -0.277 -0.276 -0.275 14.47656 14.44031 -9.23402
 4.70 3.80 -0.210 -0.210 -0.210 -0.209 -0.208 14.67653 14.64045 -9.03395
 4.70 4.00 -0.127 -0.127 -0.127 -0.126 -0.126 14.87651 14.84061 -8.83387
 4.70 4.20 -0.026 -0.026 -0.026 -0.026 -0.025 15.07637 15.04076 -8.63370
 4.70 4.40  0.092  0.092  0.092  0.092  0.093 15.27616 15.24094 -8.43345
 4.70 4.60  0.231  0.231  0.231  0.231  0.232 15.47589 15.44120 -8.23312
 4.70 4.80  0.388  0.388  0.388  0.388  0.389 15.67551 15.64164 -8.03268
 4.70 5.00  0.563  0.563  0.563  0.563  0.564 15.87500 15.84223 -7.83209
 4.70 5.20  0.752  0.752  0.752  0.752  0.753 16.07423 16.04305 -7.63129
 4.70 5.40  0.952  0.952  0.952  0.953  0.953 16.27317 16.24414 -7.43021
 4.70 5.60  1.160  1.160  1.160  1.160  1.160 16.47172 16.44570 -7.22871
 4.70 5.80  1.370  1.370  1.370  1.370  1.370 16.66993 16.64764 -7.02684
 4.70 6.00  1.579  1.579  1.579  1.579  1.580 16.86794 16.84973 -6.82478
 4.70 6.25  1.837  1.837  1.837  1.837  1.838 17.11521 17.10249 -6.57195
 4.70 6.50  2.093  2.093  2.093  2.093  2.094 17.36248 17.35526 -6.31912
 4.70 6.75  2.349  2.349  2.349  2.349  2.349 17.61028 17.60753 -6.06690
 4.70 7.00  2.590  2.590  2.590  2.590  2.590 17.85842 17.85944 -5.81503
 4.70 7.25  2.850  2.850  2.850  2.850  2.850 18.10703 18.11077 -5.56361
 4.70 7.50  3.113  3.113  3.113  3.113  3.114 18.35564 18.36211 -5.31220
 4.70 7.75  3.376  3.376  3.376  3.376  3.376 18.60423 18.61352 -5.06080
 4.70 8.00  3.640  3.640  3.640  3.640  3.640 18.85279 18.86498 -4.80939
 4.75-2.00 -0.463 -0.463 -0.463 -0.462 -0.461  8.82705  8.79000-14.88439
 4.75-1.50 -0.462 -0.462 -0.462 -0.462 -0.461  9.32695  9.29004-14.38437
 4.75-1.00 -0.462 -0.462 -0.462 -0.462 -0.460  9.82705  9.79000-13.88439
 4.75-0.50 -0.462 -0.462 -0.462 -0.461 -0.460 10.32695 10.29003-13.38437
 4.75 0.00 -0.461 -0.461 -0.461 -0.461 -0.460 10.82705 10.79000-12.88439
 4.75 0.50 -0.461 -0.461 -0.461 -0.460 -0.459 11.32695 11.29004-12.38437
 4.75 1.00 -0.460 -0.460 -0.460 -0.459 -0.458 11.82705 11.79007-11.88439
 4.75 1.25 -0.459 -0.459 -0.459 -0.458 -0.457 12.07700 12.04006-11.63438
 4.75 1.50 -0.458 -0.458 -0.457 -0.457 -0.456 12.32695 12.29004-11.38437
 4.75 1.75 -0.456 -0.456 -0.456 -0.455 -0.454 12.57697 12.54006-11.13438
 4.75 2.00 -0.453 -0.453 -0.453 -0.453 -0.452 12.82698 12.79007-10.88439
 4.75 2.25 -0.450 -0.450 -0.449 -0.449 -0.448 13.07697 13.04005-10.63434
 4.75 2.50 -0.444 -0.444 -0.444 -0.444 -0.443 13.32695 13.29003-10.38426
 4.75 2.75 -0.435 -0.435 -0.435 -0.435 -0.434 13.57690 13.54012-10.13416
 4.75 3.00 -0.421 -0.421 -0.421 -0.421 -0.420 13.82685 13.79022 -9.88406
 4.75 3.20 -0.404 -0.404 -0.404 -0.404 -0.403 14.02681 13.99023 -9.68405
 4.75 3.40 -0.380 -0.380 -0.380 -0.379 -0.378 14.22677 14.19025 -9.48405
 4.75 3.60 -0.346 -0.346 -0.346 -0.346 -0.344 14.42673 14.39028 -9.28405
 4.75 3.80 -0.301 -0.301 -0.301 -0.301 -0.299 14.62669 14.59035 -9.08405
 4.75 4.00 -0.242 -0.242 -0.242 -0.241 -0.240 14.82666 14.79043 -8.88406
 4.75 4.20 -0.168 -0.168 -0.167 -0.167 -0.166 15.02653 14.99053 -8.68393
 4.75 4.40 -0.076 -0.076 -0.076 -0.075 -0.075 15.22640 15.19065 -8.48380
 4.75 4.60  0.032  0.032  0.032  0.033  0.033 15.42630 15.39076 -8.28367
 4.75 4.80  0.160  0.160  0.160  0.160  0.161 15.62622 15.59087 -8.08353
 4.75 5.00  0.305  0.305  0.305  0.305  0.306 15.82614 15.79099 -7.88339
 4.75 5.20  0.467  0.467  0.467  0.467  0.468 16.02590 15.99123 -7.68315
 4.75 5.40  0.643  0.643  0.643  0.644  0.644 16.22554 16.19159 -7.48280
 4.75 5.60  0.833  0.833  0.833  0.834  0.834 16.42506 16.39209 -7.28227
 4.75 5.80  1.035  1.035  1.035  1.035  1.035 16.62440 16.59282 -7.08146
 4.75 6.00  1.244  1.244  1.244  1.244  1.245 16.82354 16.79379 -6.88041
 4.75 6.25  1.515  1.515  1.515  1.515  1.515 17.07187 17.04554 -6.62875
 4.75 6.50  1.791  1.791  1.791  1.791  1.791 17.31973 17.29776 -6.37665
 4.75 6.75  2.065  2.065  2.065  2.065  2.065 17.56699 17.55064 -6.12380
 4.75 7.00  2.320  2.320  2.320  2.320  2.320 17.81425 17.80353 -5.87096
 4.75 7.25  2.584  2.584  2.584  2.584  2.584 18.06157 18.05625 -5.61822
 4.75 7.50  2.844  2.844  2.844  2.844  2.844 18.30899 18.30878 -5.36562
 4.75 7.75  3.102  3.102  3.102  3.102  3.102 18.55692 18.56086 -5.11349
 4.75 8.00  3.358  3.358  3.358  3.358  3.358 18.80523 18.81258 -4.86170
 4.80-2.00 -0.463 -0.463 -0.463 -0.462 -0.462  8.77706  8.73997-14.93442
 4.80-1.50 -0.463 -0.463 -0.462 -0.462 -0.461  9.27692  9.24005-14.43439
 4.80-1.00 -0.462 -0.462 -0.462 -0.462 -0.461  9.77706  9.73997-13.93442
 4.80-0.50 -0.462 -0.462 -0.462 -0.462 -0.461 10.27692 10.24005-13.43439
 4.80 0.00 -0.462 -0.462 -0.462 -0.461 -0.460 10.77706 10.73997-12.93442
 4.80 0.50 -0.461 -0.461 -0.461 -0.461 -0.460 11.27692 11.24005-12.43439
 4.80 1.00 -0.460 -0.460 -0.460 -0.460 -0.459 11.77699 11.74005-11.93442
 4.80 1.25 -0.459 -0.459 -0.459 -0.459 -0.458 12.02696 11.99005-11.68440
 4.80 1.50 -0.458 -0.458 -0.458 -0.458 -0.457 12.27692 12.24005-11.43439
 4.80 1.75 -0.457 -0.457 -0.457 -0.456 -0.455 12.52696 12.49005-11.18440
 4.80 2.00 -0.455 -0.455 -0.454 -0.454 -0.453 12.77699 12.74005-10.93442
 4.80 2.25 -0.451 -0.451 -0.451 -0.451 -0.450 13.02696 12.99005-10.68436
 4.80 2.50 -0.447 -0.447 -0.447 -0.446 -0.446 13.27692 13.24005-10.43427
 4.80 2.75 -0.441 -0.441 -0.441 -0.440 -0.440 13.52692 13.49013-10.18416
 4.80 3.00 -0.432 -0.432 -0.432 -0.432 -0.431 13.77692 13.74020 -9.93405
 4.80 3.20 -0.422 -0.422 -0.422 -0.421 -0.420 13.97683 13.94025 -9.73409
 4.80 3.40 -0.407 -0.407 -0.407 -0.407 -0.405 14.17674 14.14028 -9.53413
 4.80 3.60 -0.386 -0.386 -0.386 -0.386 -0.384 14.37669 14.34031 -9.33414
 4.80 3.80 -0.357 -0.357 -0.357 -0.357 -0.355 14.57670 14.54034 -9.13410
 4.80 4.00 -0.318 -0.318 -0.318 -0.318 -0.316 14.77670 14.74037 -8.93405
 4.80 4.20 -0.267 -0.267 -0.266 -0.266 -0.264 14.97661 14.94043 -8.73400
 4.80 4.40 -0.201 -0.201 -0.200 -0.200 -0.199 15.17651 15.14051 -8.53395
 4.80 4.60 -0.119 -0.119 -0.118 -0.118 -0.117 15.37645 15.34059 -8.33388
 4.80 4.80 -0.020 -0.020 -0.020 -0.019 -0.018 15.57643 15.54067 -8.13379
 4.80 5.00  0.095  0.095  0.096  0.096  0.097 15.77641 15.74076 -7.93368
 4.80 5.20  0.229  0.229  0.229  0.230  0.230 15.97628 15.94086 -7.73356
 4.80 5.40  0.380  0.380  0.380  0.380  0.381 16.17611 16.14098 -7.53341
 4.80 5.60  0.546  0.546  0.546  0.546  0.547 16.37591 16.34115 -7.33322
 4.80 5.80  0.725  0.725  0.725  0.725  0.725 16.57568 16.54142 -7.13293
 4.80 6.00  0.915  0.915  0.915  0.915  0.915 16.77539 16.74178 -6.93256
 4.80 6.25  1.165  1.165  1.165  1.165  1.165 17.02480 16.99240 -6.68190
 4.80 6.50  1.425  1.425  1.425  1.425  1.425 17.27393 17.24329 -6.43098
 4.80 6.75  1.696  1.696  1.696  1.696  1.696 17.52256 17.49478 -6.17961
 4.80 7.00  1.970  1.970  1.970  1.970  1.971 17.77071 17.74679 -5.92775
 4.80 7.25  2.243  2.243  2.243  2.243  2.243 18.01808 17.99950 -5.67495
 4.80 7.50  2.518  2.518  2.518  2.518  2.518 18.26529 18.25237 -5.42205
 4.80 7.75  2.786  2.786  2.786  2.786  2.786 18.51245 18.50529 -5.16912
 4.80 8.00  3.048  3.048  3.048  3.048  3.048 18.75952 18.75831 -4.91614
 4.85-2.00 -0.463 -0.463 -0.462 -0.462 -0.461  8.72705  8.68993-14.98422
 4.85-1.50 -0.462 -0.462 -0.462 -0.462 -0.461  9.22712  9.19005-14.48439
 4.85-1.00 -0.462 -0.462 -0.462 -0.462 -0.461  9.72705  9.69002-13.98422
 4.85-0.50 -0.462 -0.462 -0.462 -0.462 -0.461 10.22712 10.19005-13.48439
 4.85 0.00 -0.462 -0.462 -0.462 -0.462 -0.461 10.72705 10.69002-12.98422
 4.85 0.50 -0.462 -0.462 -0.462 -0.461 -0.460 11.22711 11.19005-12.48439
 4.85 1.00 -0.461 -0.461 -0.461 -0.461 -0.460 11.72705 11.69002-11.98422
 4.85 1.25 -0.460 -0.460 -0.460 -0.460 -0.459 11.97696 11.94003-11.73431
 4.85 1.50 -0.460 -0.460 -0.460 -0.459 -0.459 12.22686 12.19005-11.48439
 4.85 1.75 -0.459 -0.458 -0.458 -0.458 -0.457 12.47691 12.44008-11.23431
 4.85 2.00 -0.457 -0.457 -0.457 -0.456 -0.456 12.72697 12.69011-10.98422
 4.85 2.25 -0.454 -0.454 -0.454 -0.454 -0.453 12.97692 12.94008-10.73424
 4.85 2.50 -0.450 -0.450 -0.450 -0.450 -0.449 13.22686 13.19005-10.48426
 4.85 2.75 -0.445 -0.445 -0.445 -0.444 -0.444 13.47687 13.44012-10.23425
 4.85 3.00 -0.437 -0.437 -0.437 -0.437 -0.436 13.72689 13.69020 -9.98422
 4.85 3.20 -0.429 -0.429 -0.429 -0.429 -0.428 13.92689 13.89014 -9.78418
 4.85 3.40 -0.419 -0.419 -0.419 -0.419 -0.418 14.12687 14.09008 -9.58415
 4.85 3.60 -0.405 -0.405 -0.405 -0.405 -0.404 14.32683 14.29010 -9.38415
 4.85 3.80 -0.386 -0.386 -0.386 -0.386 -0.385 14.52678 14.49019 -9.18418
 4.85 4.00 -0.361 -0.361 -0.361 -0.360 -0.359 14.72673 14.69028 -8.98422
 4.85 4.20 -0.326 -0.326 -0.326 -0.326 -0.324 14.92668 14.89030 -8.78413
 4.85 4.40 -0.281 -0.281 -0.281 -0.280 -0.279 15.12663 15.09032 -8.58404
 4.85 4.60 -0.222 -0.222 -0.222 -0.221 -0.220 15.32658 15.29039 -8.38396
 4.85 4.80 -0.149 -0.149 -0.149 -0.148 -0.147 15.52653 15.49052 -8.18388
 4.85 5.00 -0.060 -0.060 -0.059 -0.059 -0.058 15.72648 15.69064 -7.98380
 4.85 5.20  0.046  0.046  0.046  0.046  0.047 15.92643 15.89074 -7.78372
 4.85 5.40  0.170  0.170  0.170  0.170  0.171 16.12637 16.09084 -7.58364
 4.85 5.60  0.311  0.311  0.311  0.312  0.312 16.32627 16.29095 -7.38347
 4.85 5.80  0.469  0.469  0.469  0.469  0.470 16.52611 16.49109 -7.18322
 4.85 6.00  0.640  0.640  0.640  0.640  0.641 16.72591 16.69126 -6.98297
 4.85 6.25  0.871  0.871  0.871  0.871  0.871 16.97565 16.94157 -6.73275
 4.85 6.50  1.111  1.111  1.111  1.111  1.112 17.22531 17.19201 -6.48254
 4.85 6.75  1.363  1.363  1.363  1.364  1.364 17.47476 17.44258 -6.23187
 4.85 7.00  1.626  1.626  1.626  1.626  1.626 17.72395 17.69337 -5.98089
 4.85 7.25  1.889  1.889  1.889  1.889  1.889 17.97264 17.94467 -5.72962
 4.85 7.50  2.161  2.161  2.161  2.161  2.161 18.22089 18.19645 -5.47795
 4.85 7.75  2.433  2.433  2.433  2.433  2.434 18.46865 18.44885 -5.22559
 4.85 8.00  2.706  2.706  2.706  2.706  2.706 18.71592 18.70183 -4.97265
 4.90-2.00 -0.463 -0.462 -0.462 -0.462 -0.462  8.67706  8.63998-15.03438
 4.90-1.50 -0.462 -0.462 -0.462 -0.462 -0.461  9.17696  9.13988-14.53447
 4.90-1.00 -0.462 -0.462 -0.462 -0.462 -0.461  9.67706  9.63998-14.03438
 4.90-0.50 -0.462 -0.462 -0.462 -0.462 -0.461 10.17696 10.13988-13.53447
 4.90 0.00 -0.462 -0.462 -0.462 -0.462 -0.461 10.67706 10.63999-13.03438
 4.90 0.50 -0.462 -0.462 -0.462 -0.462 -0.461 11.17696 11.13988-12.53447
 4.90 1.00 -0.462 -0.462 -0.461 -0.461 -0.460 11.67706 11.63998-12.03433
 4.90 1.25 -0.461 -0.461 -0.461 -0.461 -0.460 11.92701 11.88993-11.78432
 4.90 1.50 -0.461 -0.461 -0.461 -0.460 -0.460 12.17696 12.13988-11.53432
 4.90 1.75 -0.460 -0.460 -0.460 -0.460 -0.459 12.42696 12.38998-11.28430
 4.90 2.00 -0.459 -0.459 -0.459 -0.459 -0.458 12.67697 12.64008-11.03428
 4.90 2.25 -0.457 -0.457 -0.457 -0.457 -0.456 12.92696 12.89015-10.78430
 4.90 2.50 -0.455 -0.455 -0.455 -0.454 -0.454 13.17696 13.14019-10.53432
 4.90 2.75 -0.451 -0.451 -0.451 -0.450 -0.450 13.42696 13.39019-10.28428
 4.90 3.00 -0.444 -0.444 -0.444 -0.444 -0.443 13.67697 13.64018-10.03423
 4.90 3.20 -0.438 -0.438 -0.437 -0.437 -0.436 13.87697 13.84018 -9.83421
 4.90 3.40 -0.428 -0.428 -0.428 -0.428 -0.427 14.07696 14.04019 -9.63418
 4.90 3.60 -0.417 -0.417 -0.417 -0.416 -0.415 14.27692 14.24021 -9.43416
 4.90 3.80 -0.402 -0.402 -0.402 -0.402 -0.400 14.47686 14.44025 -9.23413
 4.90 4.00 -0.383 -0.383 -0.383 -0.383 -0.381 14.67679 14.64028 -9.03409
 4.90 4.20 -0.358 -0.358 -0.358 -0.358 -0.356 14.87673 14.84025 -8.83407
 4.90 4.40 -0.326 -0.326 -0.326 -0.326 -0.324 15.07669 15.04021 -8.63404
 4.90 4.60 -0.285 -0.285 -0.285 -0.284 -0.283 15.27666 15.24024 -8.43399
 4.90 4.80 -0.232 -0.232 -0.231 -0.231 -0.230 15.47663 15.44036 -8.23392
 4.90 5.00 -0.165 -0.165 -0.165 -0.164 -0.163 15.67660 15.64048 -8.03386
 4.90 5.20 -0.083 -0.083 -0.083 -0.082 -0.082 15.87652 15.84062 -7.83381
 4.90 5.40  0.015  0.015  0.015  0.015  0.016 16.07643 16.04075 -7.63375
 4.90 5.60  0.131  0.131  0.131  0.131  0.132 16.27634 16.24085 -7.43367
 4.90 5.80  0.265  0.265  0.265  0.265  0.266 16.47624 16.44092 -7.23354
 4.90 6.00  0.416  0.416  0.417  0.417  0.417 16.67615 16.64098 -7.03339
 4.90 6.25  0.626  0.626  0.626  0.626  0.627 16.92599 16.89118 -6.78320
 4.90 6.50  0.854  0.854  0.854  0.854  0.854 17.17580 17.14145 -6.53298
 4.90 6.75  1.086  1.086  1.086  1.086  1.087 17.42548 17.39176 -6.28266
 4.90 7.00  1.337  1.337  1.337  1.338  1.338 17.67505 17.64217 -6.03222
 4.90 7.25  1.591  1.591  1.591  1.592  1.592 17.92451 17.89278 -5.78161
 4.90 7.50  1.852  1.852  1.852  1.852  1.852 18.17377 18.14364 -5.53077
 4.90 7.75  2.115  2.115  2.115  2.115  2.115 18.42250 18.39497 -5.27942
 4.90 8.00  2.381  2.381  2.381  2.381  2.381 18.67080 18.64670 -5.02766
 4.95-2.00 -0.463 -0.462 -0.462 -0.462 -0.462  8.62706  8.58995-15.08439
 4.95-1.50 -0.462 -0.462 -0.462 -0.462 -0.462  9.12710  9.08991-14.58436
 4.95-1.00 -0.462 -0.462 -0.462 -0.462 -0.462  9.62706  9.58995-14.08439
 4.95-0.50 -0.462 -0.462 -0.462 -0.462 -0.461 10.12711 10.08990-13.58436
 4.95 0.00 -0.462 -0.462 -0.462 -0.462 -0.461 10.62706 10.58995-13.08439
 4.95 0.50 -0.462 -0.462 -0.462 -0.462 -0.461 11.12710 11.08991-12.58436
 4.95 1.00 -0.462 -0.462 -0.462 -0.461 -0.461 11.62706 11.59006-12.08434
 4.95 1.25 -0.461 -0.461 -0.461 -0.461 -0.460 11.87708 11.83998-11.83435
 4.95 1.50 -0.461 -0.461 -0.461 -0.461 -0.460 12.12710 12.08991-11.58436
 4.95 1.75 -0.461 -0.461 -0.461 -0.460 -0.460 12.37708 12.33998-11.33435
 4.95 2.00 -0.460 -0.460 -0.460 -0.460 -0.459 12.62706 12.59006-11.08434
 4.95 2.25 -0.459 -0.459 -0.459 -0.459 -0.458 12.87708 12.83998-10.83435
 4.95 2.50 -0.458 -0.458 -0.458 -0.458 -0.457 13.12711 13.08991-10.58436
 4.95 2.75 -0.455 -0.455 -0.455 -0.455 -0.455 13.37704 13.33997-10.33430
 4.95 3.00 -0.452 -0.452 -0.452 -0.451 -0.451 13.62696 13.59006-10.08423
 4.95 3.20 -0.447 -0.447 -0.447 -0.447 -0.446 13.82689 13.79014 -9.88422
 4.95 3.40 -0.440 -0.440 -0.440 -0.440 -0.439 14.02682 13.99022 -9.68420
 4.95 3.60 -0.431 -0.431 -0.431 -0.431 -0.430 14.22680 14.19027 -9.48418
 4.95 3.80 -0.418 -0.418 -0.418 -0.418 -0.417 14.42682 14.39028 -9.28416
 4.95 4.00 -0.402 -0.402 -0.402 -0.402 -0.401 14.62685 14.59028 -9.08413
 4.95 4.20 -0.381 -0.381 -0.381 -0.381 -0.380 14.82683 14.79027 -8.88409
 4.95 4.40 -0.355 -0.355 -0.355 -0.355 -0.353 15.02680 14.99026 -8.68405
 4.95 4.60 -0.322 -0.322 -0.322 -0.322 -0.321 15.22676 15.19031 -8.48401
 4.95 4.80 -0.282 -0.282 -0.281 -0.281 -0.280 15.42671 15.39041 -8.28396
 4.95 5.00 -0.231 -0.231 -0.231 -0.230 -0.229 15.62665 15.59051 -8.08391
 4.95 5.20 -0.168 -0.168 -0.168 -0.167 -0.166 15.82658 15.79055 -7.88383
 4.95 5.40 -0.091 -0.091 -0.090 -0.090 -0.089 16.02650 15.99059 -7.68374
 4.95 5.60  0.002  0.002  0.002  0.002  0.003 16.22642 16.19066 -7.48365
 4.95 5.80  0.113  0.113  0.113  0.113  0.114 16.42633 16.39075 -7.28357
 4.95 6.00  0.242  0.242  0.242  0.242  0.243 16.62624 16.59084 -7.08349
 4.95 6.25  0.428  0.428  0.428  0.428  0.429 16.87602 16.84090 -6.83336
 4.95 6.50  0.638  0.638  0.638  0.638  0.638 17.12581 17.09096 -6.58319
 4.95 6.75  0.853  0.853  0.853  0.853  0.853 17.37566 17.34127 -6.33298
 4.95 7.00  1.094  1.094  1.094  1.094  1.094 17.62552 17.59162 -6.08271
 4.95 7.25  1.341  1.341  1.341  1.341  1.342 17.87524 17.84198 -5.83235
 4.95 7.50  1.595  1.595  1.595  1.595  1.595 18.12483 18.09237 -5.58187
 4.95 7.75  1.850  1.850  1.850  1.850  1.850 18.37415 18.34314 -5.33115
 4.95 8.00  2.108  2.108  2.108  2.108  2.108 18.62325 18.59417 -5.08024
 5.00-2.00 -0.462 -0.462 -0.462 -0.462 -0.462  8.57703  8.53995-15.13442
 5.00-1.50 -0.462 -0.462 -0.462 -0.462 -0.462  9.07700  9.03981-14.63451
 5.00-1.00 -0.462 -0.462 -0.462 -0.462 -0.462  9.57703  9.53995-14.13436
 5.00-0.50 -0.462 -0.462 -0.462 -0.462 -0.462 10.07700 10.03981-13.63451
 5.00 0.00 -0.462 -0.462 -0.462 -0.462 -0.462 10.57703 10.53995-13.13436
 5.00 0.50 -0.462 -0.462 -0.462 -0.462 -0.461 11.07700 11.03981-12.63433
 5.00 1.00 -0.462 -0.462 -0.462 -0.462 -0.461 11.57703 11.53995-12.13436
 5.00 1.25 -0.462 -0.462 -0.462 -0.461 -0.461 11.82702 11.78988-11.88434
 5.00 1.50 -0.461 -0.461 -0.461 -0.461 -0.461 12.07700 12.03981-11.63433
 5.00 1.75 -0.461 -0.461 -0.461 -0.461 -0.460 12.32702 12.28995-11.38431
 5.00 2.00 -0.461 -0.461 -0.461 -0.460 -0.460 12.57703 12.54008-11.13430
 5.00 2.25 -0.460 -0.460 -0.460 -0.460 -0.459 12.82703 12.79017-10.88431
 5.00 2.50 -0.459 -0.459 -0.459 -0.459 -0.459 13.07701 13.04021-10.63433
 5.00 2.75 -0.458 -0.458 -0.458 -0.458 -0.457 13.32696 13.29014-10.38428
 5.00 3.00 -0.456 -0.456 -0.456 -0.456 -0.455 13.57692 13.54008-10.13424
 5.00 3.20 -0.453 -0.453 -0.453 -0.453 -0.453 13.77695 13.74013 -9.93428
 5.00 3.40 -0.449 -0.449 -0.449 -0.449 -0.449 13.97699 13.94018 -9.73431
 5.00 3.60 -0.443 -0.443 -0.443 -0.443 -0.443 14.17700 14.14021 -9.53429
 5.00 3.80 -0.435 -0.435 -0.435 -0.435 -0.434 14.37697 14.34021 -9.33421
 5.00 4.00 -0.423 -0.423 -0.423 -0.423 -0.422 14.57692 14.54020 -9.13413
 5.00 4.20 -0.406 -0.406 -0.406 -0.406 -0.405 14.77681 14.74020 -8.93413
 5.00 4.40 -0.384 -0.384 -0.384 -0.384 -0.383 14.97670 14.94021 -8.73414
 5.00 4.60 -0.356 -0.356 -0.356 -0.356 -0.355 15.17665 15.14026 -8.53410
 5.00 4.80 -0.321 -0.321 -0.321 -0.321 -0.320 15.37667 15.34036 -8.33402
 5.00 5.00 -0.278 -0.278 -0.278 -0.278 -0.277 15.57669 15.54045 -8.13395
 5.00 5.20 -0.226 -0.226 -0.226 -0.226 -0.225 15.77668 15.74052 -7.93387
 5.00 5.40 -0.163 -0.163 -0.163 -0.163 -0.162 15.97666 15.94058 -7.73380
 5.00 5.60 -0.087 -0.087 -0.087 -0.087 -0.086 16.17659 16.14062 -7.53373
 5.00 5.80  0.003  0.003  0.003  0.004  0.005 16.37648 16.34066 -7.33366
 5.00 6.00  0.112  0.112  0.112  0.112  0.113 16.57634 16.54070 -7.13359
 5.00 6.25  0.273  0.273  0.273  0.273  0.274 16.82613 16.79083 -6.88350
 5.00 6.50  0.461  0.461  0.461  0.462  0.462 17.07591 17.04100 -6.63339
 5.00 6.75  0.669  0.669  0.669  0.669  0.669 17.32584 17.29123 -6.38318
 5.00 7.00  0.887  0.887  0.887  0.887  0.887 17.57577 17.54145 -6.13295
 5.00 7.25  1.127  1.127  1.127  1.127  1.127 17.82552 17.79162 -5.88271
 5.00 7.50  1.375  1.375  1.375  1.375  1.375 18.07518 18.04179 -5.63246
 5.00 7.75  1.625  1.625  1.625  1.625  1.625 18.32477 18.29226 -5.38198
 5.00 8.00  1.879  1.879  1.879  1.879  1.879 18.57426 18.54295 -5.13136
 5.05-2.00 -0.462 -0.462 -0.462 -0.462 -0.462  8.52711  8.48996-15.18442
 5.05-1.50 -0.462 -0.462 -0.462 -0.462 -0.462  9.02694  8.98994-14.68445
 5.05-1.00 -0.462 -0.462 -0.462 -0.462 -0.462  9.52711  9.48996-14.18436
 5.05-0.50 -0.462 -0.462 -0.462 -0.462 -0.462 10.02694  9.98994-13.68445
 5.05 0.00 -0.462 -0.462 -0.462 -0.462 -0.462 10.52711 10.48996-13.18436
 5.05 0.50 -0.462 -0.462 -0.462 -0.462 -0.462 11.02694 10.98994-12.68445
 5.05 1.00 -0.462 -0.462 -0.462 -0.462 -0.461 11.52711 11.48996-12.18436
 5.05 1.25 -0.462 -0.462 -0.462 -0.462 -0.461 11.77703 11.73997-11.93440
 5.05 1.50 -0.462 -0.462 -0.462 -0.462 -0.461 12.02694 11.98998-11.68445
 5.05 1.75 -0.462 -0.462 -0.462 -0.461 -0.461 12.27696 12.24004-11.43440
 5.05 2.00 -0.461 -0.461 -0.461 -0.461 -0.461 12.52699 12.49010-11.18436
 5.05 2.25 -0.461 -0.461 -0.461 -0.461 -0.460 12.77696 12.74006-10.93440
 5.05 2.50 -0.460 -0.460 -0.460 -0.460 -0.460 13.02694 12.99003-10.68445
 5.05 2.75 -0.459 -0.459 -0.459 -0.459 -0.459 13.27696 13.24006-10.43437
 5.05 3.00 -0.458 -0.458 -0.458 -0.458 -0.458 13.52699 13.49010-10.18429
 5.05 3.20 -0.457 -0.457 -0.457 -0.456 -0.456 13.72698 13.69009 -9.98427
 5.05 3.40 -0.454 -0.454 -0.454 -0.454 -0.454 13.92696 13.89008 -9.78425
 5.05 3.60 -0.451 -0.451 -0.451 -0.451 -0.450 14.12692 14.09011 -9.58422
 5.05 3.80 -0.446 -0.446 -0.446 -0.446 -0.445 14.32689 14.29017 -9.38419
 5.05 4.00 -0.439 -0.439 -0.439 -0.439 -0.438 14.52686 14.49024 -9.18416
 5.05 4.20 -0.428 -0.428 -0.428 -0.428 -0.427 14.72689 14.69023 -8.98419
 5.05 4.40 -0.413 -0.413 -0.413 -0.413 -0.412 14.92692 14.89021 -8.78422
 5.05 4.60 -0.392 -0.392 -0.392 -0.391 -0.390 15.12690 15.09024 -8.58420
 5.05 4.80 -0.363 -0.363 -0.363 -0.363 -0.362 15.32681 15.29031 -8.38411
 5.05 5.00 -0.327 -0.327 -0.327 -0.327 -0.326 15.52673 15.49038 -8.18402
 5.05 5.20 -0.282 -0.282 -0.282 -0.281 -0.281 15.72665 15.69040 -7.98394
 5.05 5.40 -0.227 -0.227 -0.227 -0.226 -0.226 15.92657 15.89042 -7.78386
 5.05 5.60 -0.161 -0.161 -0.161 -0.160 -0.160 16.12652 16.09048 -7.58379
 5.05 5.80 -0.082 -0.082 -0.082 -0.082 -0.081 16.32650 16.29057 -7.38374
 5.05 6.00  0.010  0.010  0.011  0.011  0.011 16.52647 16.49066 -7.18369
 5.05 6.25  0.150  0.150  0.150  0.150  0.151 16.77630 16.74077 -6.93365
 5.05 6.50  0.317  0.317  0.318  0.318  0.318 17.02612 16.99087 -6.68361
 5.05 6.75  0.510  0.510  0.510  0.510  0.510 17.27604 17.24104 -6.43339
 5.05 7.00  0.709  0.709  0.709  0.709  0.709 17.52595 17.49122 -6.18316
 5.05 7.25  0.939  0.939  0.939  0.939  0.939 17.77563 17.74141 -5.93297
 5.05 7.50  1.181  1.181  1.181  1.181  1.181 18.02530 17.99162 -5.68277
 5.05 7.75  1.427  1.427  1.427  1.427  1.427 18.27503 18.24195 -5.43242
 5.05 8.00  1.678  1.678  1.678  1.678  1.678 18.52479 18.49234 -5.18197
 5.10-2.00 -0.462 -0.462 -0.462 -0.461 -0.461  8.47712  8.43996-15.23441
 5.10-1.50 -0.462 -0.462 -0.462 -0.461 -0.461  8.97704  8.93992-14.73448
 5.10-1.00 -0.462 -0.462 -0.462 -0.461 -0.461  9.47712  9.43996-14.23441
 5.10-0.50 -0.462 -0.462 -0.462 -0.461 -0.461  9.97704  9.93992-13.73448
 5.10 0.00 -0.462 -0.462 -0.462 -0.461 -0.461 10.47712 10.43996-13.23441
 5.10 0.50 -0.462 -0.462 -0.462 -0.461 -0.461 10.97704 10.93997-12.73448
 5.10 1.00 -0.462 -0.462 -0.462 -0.461 -0.461 11.47712 11.43996-12.23433
 5.10 1.25 -0.462 -0.462 -0.462 -0.461 -0.461 11.72706 11.68997-11.98440
 5.10 1.50 -0.462 -0.462 -0.462 -0.461 -0.461 11.97699 11.93997-11.73448
 5.10 1.75 -0.462 -0.462 -0.461 -0.461 -0.461 12.22698 12.18997-11.48440
 5.10 2.00 -0.461 -0.461 -0.461 -0.461 -0.461 12.47698 12.43996-11.23433
 5.10 2.25 -0.461 -0.461 -0.461 -0.461 -0.461 12.72698 12.68998-10.98428
 5.10 2.50 -0.461 -0.461 -0.461 -0.461 -0.460 12.97699 12.94002-10.73424
 5.10 2.75 -0.461 -0.461 -0.460 -0.460 -0.460 13.22699 13.19007-10.48425
 5.10 3.00 -0.460 -0.460 -0.460 -0.460 -0.459 13.47698 13.44012-10.23426
 5.10 3.20 -0.459 -0.459 -0.459 -0.459 -0.458 13.67695 13.64010-10.03425
 5.10 3.40 -0.458 -0.458 -0.458 -0.457 -0.457 13.87692 13.84008 -9.83425
 5.10 3.60 -0.456 -0.456 -0.456 -0.456 -0.455 14.07692 14.04008 -9.63423
 5.10 3.80 -0.453 -0.453 -0.453 -0.453 -0.452 14.27695 14.24010 -9.43421
 5.10 4.00 -0.449 -0.449 -0.449 -0.449 -0.448 14.47698 14.44012 -9.23418
 5.10 4.20 -0.443 -0.443 -0.443 -0.442 -0.442 14.67691 14.64014 -9.03421
 5.10 4.40 -0.433 -0.433 -0.433 -0.433 -0.432 14.87684 14.84016 -8.83423
 5.10 4.60 -0.420 -0.420 -0.420 -0.420 -0.419 15.07681 15.04019 -8.63420
 5.10 4.80 -0.401 -0.401 -0.401 -0.400 -0.399 15.27682 15.24024 -8.43412
 5.10 5.00 -0.374 -0.374 -0.374 -0.374 -0.373 15.47683 15.44028 -8.23403
 5.10 5.20 -0.338 -0.338 -0.338 -0.338 -0.337 15.67675 15.64031 -8.03402
 5.10 5.40 -0.293 -0.293 -0.293 -0.292 -0.292 15.87667 15.84035 -7.83401
 5.10 5.60 -0.236 -0.236 -0.236 -0.236 -0.235 16.07661 16.04041 -7.63397
 5.10 5.80 -0.167 -0.167 -0.167 -0.166 -0.166 16.27658 16.24050 -7.43390
 5.10 6.00 -0.084 -0.084 -0.084 -0.084 -0.083 16.47654 16.44059 -7.23381
 5.10 6.25  0.039  0.039  0.039  0.039  0.040 16.72642 16.69068 -6.98367
 5.10 6.50  0.189  0.189  0.189  0.189  0.190 16.97631 16.94077 -6.73353
 5.10 6.75  0.365  0.365  0.365  0.365  0.365 17.22621 17.19091 -6.48341
 5.10 7.00  0.556  0.556  0.556  0.557  0.557 17.47611 17.44107 -6.23329
 5.10 7.25  0.771  0.771  0.771  0.771  0.772 17.72589 17.69123 -5.98307
 5.10 7.50  1.006  1.006  1.006  1.006  1.006 17.97566 17.94141 -5.73283
 5.10 7.75  1.248  1.248  1.248  1.248  1.248 18.22545 18.19168 -5.48258
 5.10 8.00  1.496  1.496  1.496  1.496  1.496 18.47524 18.44201 -5.23233
 5.15-2.00 -0.461 -0.461 -0.461 -0.461 -0.460  8.42716  8.39005-15.28441
 5.15-1.50 -0.461 -0.461 -0.461 -0.461 -0.460  8.92706  8.88992-14.78436
 5.15-1.00 -0.461 -0.461 -0.461 -0.461 -0.460  9.42700  9.39005-14.28441
 5.15-0.50 -0.461 -0.461 -0.461 -0.461 -0.460  9.92706  9.88992-13.78436
 5.15 0.00 -0.461 -0.461 -0.461 -0.461 -0.460 10.42700 10.39005-13.28442
 5.15 0.50 -0.461 -0.461 -0.461 -0.461 -0.460 10.92701 10.88992-12.78436
 5.15 1.00 -0.461 -0.461 -0.461 -0.461 -0.460 11.42700 11.39005-12.28433
 5.15 1.25 -0.461 -0.461 -0.461 -0.461 -0.460 11.67701 11.64001-12.03435
 5.15 1.50 -0.461 -0.461 -0.461 -0.461 -0.460 11.92701 11.88997-11.78436
 5.15 1.75 -0.461 -0.461 -0.461 -0.461 -0.460 12.17701 12.14001-11.53435
 5.15 2.00 -0.461 -0.461 -0.461 -0.461 -0.460 12.42700 12.39005-11.28433
 5.15 2.25 -0.461 -0.461 -0.461 -0.460 -0.460 12.67698 12.64001-11.03435
 5.15 2.50 -0.461 -0.461 -0.460 -0.460 -0.460 12.92696 12.88997-10.78436
 5.15 2.75 -0.460 -0.460 -0.460 -0.460 -0.460 13.17698 13.14001-10.53435
 5.15 3.00 -0.460 -0.460 -0.460 -0.460 -0.460 13.42700 13.39005-10.28433
 5.15 3.20 -0.460 -0.460 -0.460 -0.459 -0.459 13.62696 13.59004-10.08434
 5.15 3.40 -0.459 -0.459 -0.459 -0.459 -0.459 13.82693 13.79003 -9.88436
 5.15 3.60 -0.458 -0.458 -0.458 -0.458 -0.458 14.02693 13.99003 -9.68434
 5.15 3.80 -0.457 -0.457 -0.457 -0.456 -0.456 14.22696 14.19004 -9.48430
 5.15 4.00 -0.454 -0.454 -0.454 -0.454 -0.454 14.42700 14.39005 -9.28425
 5.15 4.20 -0.451 -0.451 -0.451 -0.451 -0.451 14.62694 14.59009 -9.08419
 5.15 4.40 -0.446 -0.446 -0.446 -0.446 -0.446 14.82689 14.79012 -8.88413
 5.15 4.60 -0.438 -0.438 -0.438 -0.438 -0.438 15.02685 14.99016 -8.68409
 5.15 4.80 -0.427 -0.427 -0.427 -0.427 -0.426 15.22684 15.19019 -8.48408
 5.15 5.00 -0.410 -0.410 -0.410 -0.410 -0.409 15.42684 15.39023 -8.28408
 5.15 5.20 -0.386 -0.386 -0.386 -0.386 -0.385 15.62676 15.59026 -8.08409
 5.15 5.40 -0.354 -0.354 -0.354 -0.353 -0.353 15.82669 15.79029 -7.88409
 5.15 5.60 -0.310 -0.310 -0.310 -0.310 -0.310 16.02662 15.99037 -7.68404
 5.15 5.80 -0.255 -0.255 -0.255 -0.254 -0.254 16.22656 16.19047 -7.48394
 5.15 6.00 -0.185 -0.185 -0.185 -0.185 -0.185 16.42651 16.39058 -7.28383
 5.15 6.25 -0.077 -0.077 -0.077 -0.077 -0.077 16.67645 16.64062 -7.03370
 5.15 6.50  0.055  0.055  0.055  0.055  0.055 16.92639 16.89065 -6.78357
 5.15 6.75  0.214  0.214  0.214  0.214  0.214 17.17631 17.14079 -6.53349
 5.15 7.00  0.398  0.398  0.398  0.398  0.399 17.42619 17.39094 -6.28341
 5.15 7.25  0.592  0.592  0.592  0.592  0.592 17.67602 17.64109 -6.03325
 5.15 7.50  0.818  0.818  0.818  0.818  0.818 17.92583 17.89126 -5.78304
 5.15 7.75  1.056  1.056  1.056  1.056  1.056 18.17561 18.14151 -5.53282
 5.15 8.00  1.301  1.301  1.301  1.301  1.301 18.42537 18.39182 -5.28258
 5.20-2.00 -0.460 -0.460 -0.460 -0.460 -0.460  8.37712  8.34005-15.33442
 5.20-1.50 -0.460 -0.460 -0.460 -0.460 -0.460  8.87703  8.83992-14.83446
 5.20-1.00 -0.460 -0.460 -0.460 -0.460 -0.460  9.37712  9.34005-14.33442
 5.20-0.50 -0.460 -0.460 -0.460 -0.460 -0.460  9.87703  9.83992-13.83446
 5.20 0.00 -0.460 -0.460 -0.460 -0.460 -0.460 10.37712 10.34005-13.33442
 5.20 0.50 -0.460 -0.460 -0.460 -0.460 -0.460 10.87703 10.83992-12.83446
 5.20 1.00 -0.460 -0.460 -0.460 -0.460 -0.460 11.37712 11.34005-12.33433
 5.20 1.25 -0.460 -0.460 -0.460 -0.460 -0.460 11.62708 11.59001-12.08439
 5.20 1.50 -0.460 -0.460 -0.460 -0.460 -0.460 11.87703 11.83998-11.83446
 5.20 1.75 -0.460 -0.460 -0.460 -0.460 -0.460 12.12708 12.09001-11.58439
 5.20 2.00 -0.460 -0.460 -0.460 -0.460 -0.460 12.37712 12.34005-11.33432
 5.20 2.25 -0.460 -0.460 -0.460 -0.460 -0.460 12.62705 12.59001-11.08439
 5.20 2.50 -0.460 -0.460 -0.460 -0.460 -0.459 12.87697 12.83998-10.83446
 5.20 2.75 -0.460 -0.460 -0.460 -0.460 -0.459 13.12695 13.09001-10.58439
 5.20 3.00 -0.460 -0.460 -0.460 -0.460 -0.459 13.37694 13.34005-10.33433
 5.20 3.20 -0.459 -0.459 -0.459 -0.459 -0.459 13.57695 13.54005-10.13438
 5.20 3.40 -0.459 -0.459 -0.459 -0.459 -0.459 13.77696 13.74004 -9.93443
 5.20 3.60 -0.459 -0.459 -0.459 -0.459 -0.458 13.97697 13.94004 -9.73441
 5.20 3.80 -0.458 -0.458 -0.458 -0.458 -0.458 14.17696 14.14005 -9.53432
 5.20 4.00 -0.457 -0.457 -0.457 -0.457 -0.456 14.37694 14.34005 -9.33423
 5.20 4.20 -0.455 -0.455 -0.455 -0.455 -0.455 14.57691 14.54006 -9.13420
 5.20 4.40 -0.452 -0.452 -0.452 -0.452 -0.452 14.77687 14.74009 -8.93417
 5.20 4.60 -0.448 -0.448 -0.448 -0.448 -0.448 14.97683 14.94014 -8.73415
 5.20 4.80 -0.442 -0.442 -0.442 -0.442 -0.441 15.17680 15.14019 -8.53414
 5.20 5.00 -0.433 -0.433 -0.433 -0.433 -0.432 15.37676 15.34025 -8.33414
 5.20 5.20 -0.419 -0.419 -0.419 -0.418 -0.418 15.57675 15.54027 -8.13415
 5.20 5.40 -0.398 -0.398 -0.398 -0.398 -0.398 15.77674 15.74028 -7.93416
 5.20 5.60 -0.370 -0.370 -0.370 -0.370 -0.369 15.97670 15.94032 -7.73412
 5.20 5.80 -0.331 -0.331 -0.331 -0.331 -0.330 16.17664 16.14038 -7.53404
 5.20 6.00 -0.280 -0.280 -0.280 -0.279 -0.279 16.37658 16.34044 -7.33395
 5.20 6.25 -0.195 -0.195 -0.195 -0.195 -0.195 16.62651 16.59052 -7.08391
 5.20 6.50 -0.085 -0.085 -0.085 -0.085 -0.085 16.87645 16.84061 -6.83387
 5.20 6.75  0.051  0.051  0.051  0.051  0.051 17.12633 17.09072 -6.58367
 5.20 7.00  0.215  0.215  0.215  0.215  0.215 17.37621 17.34084 -6.33348
 5.20 7.25  0.390  0.390  0.390  0.390  0.390 17.62610 17.59097 -6.08338
 5.20 7.50  0.603  0.603  0.603  0.603  0.603 17.87599 17.84111 -5.83327
 5.20 7.75  0.831  0.831  0.831  0.831  0.831 18.12584 18.09134 -5.58308
 5.20 8.00  1.071  1.071  1.071  1.071  1.071 18.37566 18.34163 -5.33283
 5.25-2.00 -0.458 -0.458 -0.458 -0.458 -0.458  8.32716  8.29004-15.38437
 5.25-1.50 -0.458 -0.458 -0.458 -0.458 -0.458  8.82705  8.78993-14.88439
 5.25-1.00 -0.458 -0.458 -0.458 -0.458 -0.458  9.32715  9.29004-14.38437
 5.25-0.50 -0.458 -0.458 -0.458 -0.458 -0.458  9.82705  9.78993-13.88439
 5.25 0.00 -0.458 -0.458 -0.458 -0.458 -0.458 10.32716 10.29003-13.38437
 5.25 0.50 -0.458 -0.458 -0.458 -0.458 -0.458 10.82705 10.78993-12.88439
 5.25 1.00 -0.458 -0.458 -0.458 -0.458 -0.458 11.32716 11.29004-12.38437
 5.25 1.25 -0.458 -0.458 -0.458 -0.458 -0.458 11.57710 11.53998-12.13438
 5.25 1.50 -0.458 -0.458 -0.458 -0.458 -0.458 11.82705 11.78993-11.88439
 5.25 1.75 -0.458 -0.458 -0.458 -0.458 -0.458 12.07700 12.03998-11.63438
 5.25 2.00 -0.458 -0.458 -0.458 -0.458 -0.458 12.32695 12.29004-11.38437
 5.25 2.25 -0.458 -0.458 -0.458 -0.458 -0.458 12.57697 12.54002-11.13438
 5.25 2.50 -0.458 -0.458 -0.458 -0.458 -0.458 12.82698 12.79000-10.88439
 5.25 2.75 -0.458 -0.458 -0.458 -0.458 -0.458 13.07697 13.04002-10.63438
 5.25 3.00 -0.458 -0.458 -0.458 -0.458 -0.458 13.32695 13.29003-10.38437
 5.25 3.20 -0.458 -0.458 -0.458 -0.458 -0.458 13.52696 13.49002-10.18438
 5.25 3.40 -0.458 -0.458 -0.458 -0.458 -0.457 13.72698 13.69001 -9.98439
 5.25 3.60 -0.458 -0.458 -0.458 -0.458 -0.457 13.92698 13.89001 -9.78436
 5.25 3.80 -0.457 -0.457 -0.457 -0.457 -0.457 14.12697 14.09002 -9.58431
 5.25 4.00 -0.457 -0.457 -0.457 -0.457 -0.456 14.32695 14.29004 -9.38426
 5.25 4.20 -0.456 -0.456 -0.456 -0.456 -0.455 14.52691 14.49005 -9.18431
 5.25 4.40 -0.455 -0.455 -0.454 -0.454 -0.454 14.72687 14.69007 -8.98436
 5.25 4.60 -0.452 -0.452 -0.452 -0.452 -0.452 14.92687 14.89011 -8.78434
 5.25 4.80 -0.449 -0.449 -0.449 -0.449 -0.448 15.12691 15.09018 -8.58425
 5.25 5.00 -0.444 -0.444 -0.444 -0.444 -0.443 15.32695 15.29026 -8.38416
 5.25 5.20 -0.436 -0.436 -0.436 -0.436 -0.436 15.52686 15.49027 -8.18412
 5.25 5.40 -0.425 -0.425 -0.425 -0.425 -0.424 15.72677 15.69028 -7.98408
 5.25 5.60 -0.408 -0.408 -0.408 -0.408 -0.408 15.92673 15.89032 -7.78404
 5.25 5.80 -0.384 -0.384 -0.384 -0.384 -0.384 16.12674 16.09040 -7.58399
 5.25 6.00 -0.351 -0.351 -0.351 -0.351 -0.351 16.32675 16.29048 -7.38395
 5.25 6.25 -0.292 -0.292 -0.292 -0.292 -0.292 16.57664 16.54049 -7.13383
 5.25 6.50 -0.211 -0.211 -0.211 -0.211 -0.211 16.82653 16.79050 -6.88372
 5.25 6.75 -0.104 -0.104 -0.104 -0.104 -0.103 17.07643 17.04059 -6.63368
 5.25 7.00  0.029  0.029  0.029  0.029  0.029 17.32634 17.29070 -6.38363
 5.25 7.25  0.187  0.187  0.187  0.187  0.187 17.57622 17.54083 -6.13353
 5.25 7.50  0.365  0.365  0.365  0.365  0.365 17.82607 17.79099 -5.88339
 5.25 7.75  0.573  0.573  0.573  0.573  0.574 18.07591 18.04117 -5.63322
 5.25 8.00  0.799  0.799  0.799  0.799  0.799 18.32572 18.29137 -5.38300
 5.30-2.00 -0.457 -0.457 -0.457 -0.457 -0.456  8.27715  8.24005-15.43439
 5.30-1.50 -0.457 -0.457 -0.457 -0.457 -0.456  8.77706  8.73989-14.93442
 5.30-1.00 -0.457 -0.457 -0.457 -0.457 -0.456  9.27715  9.24005-14.43439
 5.30-0.50 -0.457 -0.457 -0.457 -0.457 -0.456  9.77706  9.73997-13.93442
 5.30 0.00 -0.457 -0.457 -0.457 -0.457 -0.456 10.27715 10.24005-13.43439
 5.30 0.50 -0.457 -0.457 -0.457 -0.457 -0.457 10.77706 10.73997-12.93442
 5.30 1.00 -0.457 -0.457 -0.457 -0.457 -0.457 11.27715 11.24005-12.43439
 5.30 1.25 -0.457 -0.457 -0.457 -0.457 -0.457 11.52707 11.49001-12.18440
 5.30 1.50 -0.457 -0.457 -0.457 -0.457 -0.457 11.77699 11.73997-11.93442
 5.30 1.75 -0.457 -0.457 -0.457 -0.457 -0.457 12.02707 11.99001-11.68440
 5.30 2.00 -0.457 -0.457 -0.457 -0.457 -0.457 12.27715 12.24005-11.43439
 5.30 2.25 -0.457 -0.457 -0.457 -0.457 -0.457 12.52707 12.49001-11.18440
 5.30 2.50 -0.457 -0.457 -0.457 -0.457 -0.457 12.77699 12.73997-10.93442
 5.30 2.75 -0.457 -0.457 -0.457 -0.457 -0.456 13.02694 12.99001-10.68441
 5.30 3.00 -0.457 -0.457 -0.457 -0.457 -0.456 13.27692 13.24005-10.43439
 5.30 3.20 -0.457 -0.457 -0.457 -0.457 -0.456 13.47695 13.44005-10.23440
 5.30 3.40 -0.457 -0.457 -0.457 -0.457 -0.456 13.67698 13.64005-10.03441
 5.30 3.60 -0.457 -0.457 -0.457 -0.457 -0.456 13.87698 13.84005 -9.83439
 5.30 3.80 -0.456 -0.456 -0.456 -0.456 -0.456 14.07695 14.04005 -9.63433
 5.30 4.00 -0.456 -0.456 -0.456 -0.456 -0.456 14.27692 14.24005 -9.43427
 5.30 4.20 -0.456 -0.456 -0.456 -0.456 -0.455 14.47692 14.44007 -9.23433
 5.30 4.40 -0.455 -0.455 -0.455 -0.455 -0.455 14.67692 14.64011 -9.03439
 5.30 4.60 -0.454 -0.454 -0.454 -0.454 -0.453 14.87692 14.84016 -8.83437
 5.30 4.80 -0.452 -0.452 -0.452 -0.452 -0.452 15.07692 15.04023 -8.63426
 5.30 5.00 -0.449 -0.449 -0.449 -0.449 -0.449 15.27692 15.24030 -8.43415
 5.30 5.20 -0.445 -0.445 -0.445 -0.445 -0.445 15.47686 15.44026 -8.23410
 5.30 5.40 -0.439 -0.439 -0.439 -0.439 -0.439 15.67680 15.64022 -8.03406
 5.30 5.60 -0.430 -0.430 -0.430 -0.430 -0.430 15.87676 15.84022 -7.83404
 5.30 5.80 -0.416 -0.416 -0.416 -0.416 -0.416 16.07673 16.04025 -7.63403
 5.30 6.00 -0.396 -0.396 -0.396 -0.396 -0.396 16.27669 16.24030 -7.43403
 5.30 6.25 -0.359 -0.359 -0.359 -0.359 -0.359 16.52662 16.49037 -7.18404
 5.30 6.50 -0.305 -0.305 -0.305 -0.305 -0.304 16.77656 16.74044 -6.93405
 5.30 6.75 -0.230 -0.230 -0.230 -0.230 -0.229 17.02651 16.99050 -6.68386
 5.30 7.00 -0.130 -0.130 -0.130 -0.130 -0.129 17.27646 17.24055 -6.43368
 5.30 7.25 -0.005 -0.005 -0.005 -0.005 -0.004 17.52633 17.49067 -6.18368
 5.30 7.50  0.138  0.138  0.138  0.138  0.138 17.77619 17.74084 -5.93367
 5.30 7.75  0.315  0.315  0.315  0.315  0.315 18.02609 17.99105 -5.68350
 5.30 8.00  0.514  0.514  0.514  0.514  0.514 18.27600 18.24130 -5.43321
