 ROSSELAND MASS ABSORPTION COEFFICIENTS [-0.3]
 logT logP  0km/s  1km/s  2km/s  4km/s  8km/s  log Ne   log Na  log rho IPloCM-1
 3.32-2.00 -5.320 -5.310 -5.293 -5.266 -5.232  5.03222 10.54021-13.12989   0.002
 3.32-1.50 -5.347 -5.335 -5.318 -5.288 -5.254  5.46434 11.04100-12.62893   0.003
 3.32-1.00 -5.384 -5.371 -5.352 -5.322 -5.287  5.87783 11.54395-12.12616   0.005
 3.32-0.50 -5.422 -5.409 -5.389 -5.358 -5.323  6.28375 12.05231-11.61780   0.007
 3.32 0.00 -5.446 -5.432 -5.412 -5.381 -5.346  6.70096 12.57357-11.09653   0.012
 3.32 0.50 -5.445 -5.431 -5.411 -5.380 -5.344  7.14270 13.11461-10.55549   0.019
 3.32 1.00 -5.427 -5.414 -5.394 -5.362 -5.326  7.58275 13.66820-10.00191   0.032
 3.32 1.25 -5.416 -5.403 -5.383 -5.352 -5.316  7.78644 13.94328 -9.72685   0.041
 3.32 1.50 -5.405 -5.391 -5.372 -5.341 -5.306  7.97900 14.21643 -9.45370   0.051
 3.32 1.75 -5.390 -5.377 -5.358 -5.329 -5.294  8.15844 14.48535 -9.18470   0.062
 3.32 2.00 -5.373 -5.361 -5.342 -5.314 -5.280  8.33001 14.75097 -8.91901   0.076
 3.32 2.25 -5.351 -5.339 -5.322 -5.295 -5.262  8.49423 15.01315 -8.65687   0.092
 3.32 2.50 -5.325 -5.313 -5.296 -5.271 -5.240  8.65686 15.27277 -8.39729   0.111
 3.32 2.75 -5.290 -5.279 -5.264 -5.240 -5.211  8.81846 15.53026 -8.13983   0.134
 3.32 3.00 -5.249 -5.239 -5.224 -5.202 -5.174  8.98005 15.78604 -7.88406   0.161
 3.32 3.20 -5.209 -5.199 -5.186 -5.165 -5.138  9.11163 15.98954 -7.68053   0.187
 3.32 3.40 -5.163 -5.154 -5.142 -5.122 -5.097  9.24354 16.19240 -7.47765   0.218
 3.32 3.60 -5.111 -5.103 -5.092 -5.073 -5.050  9.37580 16.39467 -7.27533   0.254
 3.32 3.80 -5.053 -5.045 -5.035 -5.018 -4.996  9.50814 16.59655 -7.07343   0.295
 3.32 4.00 -4.988 -4.982 -4.973 -4.958 -4.937  9.64048 16.79803 -6.87192   0.344
 3.32 4.20 -4.926 -4.920 -4.911 -4.896 -4.876  9.76927 16.99911 -6.67084   0.399
 3.32 4.40 -4.858 -4.853 -4.844 -4.830 -4.809  9.89540 17.20001 -6.46995   0.462
 3.32 4.60 -4.788 -4.782 -4.774 -4.760 -4.739 10.01821 17.40074 -6.26920   0.532
 3.32 4.80 -4.714 -4.709 -4.701 -4.686 -4.666 10.13741 17.60137 -6.06856   0.610
 3.32 5.00 -4.633 -4.628 -4.620 -4.606 -4.585 10.25358 17.80188 -5.86806   0.697
 3.32 5.20 -4.546 -4.540 -4.532 -4.518 -4.498 10.36674 18.00230 -5.66781   0.794
 3.32 5.40 -4.447 -4.442 -4.434 -4.421 -4.401 10.47764 18.20263 -5.46757   0.902
 3.32 5.60 -4.336 -4.331 -4.324 -4.311 -4.292 10.58634 18.40284 -5.26731   1.023
 3.32 5.80 -4.209 -4.205 -4.198 -4.186 -4.168 10.69344 18.60299 -5.06705   1.157
 3.32 6.00 -4.063 -4.059 -4.053 -4.042 -4.026 10.79906 18.80312 -4.86678   1.306
 3.32 6.25 -3.847 -3.844 -3.839 -3.829 -3.815 10.92939 19.05327 -4.61676   1.518
 3.32 6.50 -3.584 -3.582 -3.578 -3.570 -3.558 11.05843 19.30341 -4.36673   1.761
 3.32 6.75 -3.266 -3.264 -3.261 -3.255 -3.246 11.18657 19.55347 -4.11660   2.040
 3.32 7.00 -3.061 -3.060 -3.057 -3.052 -3.045 11.31387 19.80353 -3.86646   2.362
 3.32 7.25 -2.950 -2.948 -2.946 -2.941 -2.935 11.44043 20.05358 -3.61650   2.733
 3.32 7.50 -2.843 -2.841 -2.839 -2.835 -2.829 11.56632 20.30363 -3.36653   3.159
 3.32 7.75 -2.740 -2.738 -2.736 -2.733 -2.728 11.69162 20.55366 -3.11651   3.649
 3.32 8.00 -2.641 -2.639 -2.637 -2.634 -2.629 11.81631 20.80366 -2.86646   4.213
 3.34-2.00 -5.251 -5.242 -5.226 -5.200 -5.166  5.09760 10.51983-13.15034   0.002
 3.34-1.50 -5.267 -5.256 -5.239 -5.211 -5.175  5.54045 11.01995-12.65014   0.003
 3.34-1.00 -5.283 -5.271 -5.252 -5.221 -5.184  5.97791 11.52101-12.14911   0.005
 3.34-0.50 -5.303 -5.290 -5.269 -5.236 -5.198  6.39759 12.02366-11.64647   0.008
 3.34 0.00 -5.317 -5.302 -5.280 -5.247 -5.207  6.80645 12.53173-11.13829   0.013
 3.34 0.50 -5.306 -5.291 -5.269 -5.234 -5.195  7.21985 13.05269-10.61762   0.021
 3.34 1.00 -5.260 -5.244 -5.222 -5.187 -5.147  7.65389 13.59317-10.07691   0.034
 3.34 1.25 -5.226 -5.211 -5.189 -5.154 -5.115  7.87348 13.86981 -9.80026   0.044
 3.34 1.50 -5.191 -5.176 -5.154 -5.120 -5.081  8.09307 14.14644 -9.52360   0.057
 3.34 1.75 -5.156 -5.141 -5.120 -5.087 -5.049  8.29951 14.42161 -9.24847   0.072
 3.34 2.00 -5.123 -5.109 -5.088 -5.057 -5.020  8.49568 14.69504 -8.97510   0.090
 3.34 2.25 -5.091 -5.077 -5.057 -5.027 -4.991  8.67790 14.96413 -8.70595   0.111
 3.34 2.50 -5.059 -5.045 -5.026 -4.998 -4.963  8.85138 15.22994 -8.44009   0.136
 3.34 2.75 -5.024 -5.011 -4.993 -4.966 -4.933  9.01690 15.49243 -8.17771   0.164
 3.34 3.00 -4.986 -4.974 -4.957 -4.931 -4.900  9.17927 15.75228 -7.91793   0.198
 3.34 3.20 -4.950 -4.939 -4.923 -4.899 -4.869  9.30716 15.95839 -7.71172   0.229
 3.34 3.40 -4.911 -4.900 -4.885 -4.863 -4.835  9.43505 16.16342 -7.50663   0.266
 3.34 3.60 -4.865 -4.856 -4.842 -4.821 -4.795  9.56359 16.36742 -7.30266   0.308
 3.34 3.80 -4.813 -4.805 -4.793 -4.774 -4.749  9.69296 16.57071 -7.09945   0.358
 3.34 4.00 -4.755 -4.749 -4.739 -4.722 -4.698  9.82256 16.77335 -6.89688   0.415
 3.34 4.20 -4.701 -4.694 -4.685 -4.668 -4.645  9.95236 16.97544 -6.69477   0.482
 3.34 4.40 -4.642 -4.636 -4.626 -4.610 -4.588 10.08216 17.17714 -6.49305   0.559
 3.34 4.60 -4.583 -4.577 -4.568 -4.552 -4.530 10.21074 17.37845 -6.29169   0.648
 3.34 4.80 -4.524 -4.518 -4.509 -4.493 -4.471 10.33638 17.57949 -6.09060   0.749
 3.34 5.00 -4.462 -4.456 -4.448 -4.432 -4.411 10.45969 17.78032 -5.88975   0.863
 3.34 5.20 -4.401 -4.395 -4.387 -4.372 -4.350 10.57944 17.98097 -5.68913   0.991
 3.34 5.40 -4.337 -4.332 -4.323 -4.309 -4.288 10.69639 18.18150 -5.48861   1.133
 3.34 5.60 -4.272 -4.267 -4.259 -4.245 -4.224 10.81040 18.38191 -5.28815   1.293
 3.34 5.80 -4.205 -4.200 -4.193 -4.179 -4.159 10.92198 18.58226 -5.08773   1.470
 3.34 6.00 -4.137 -4.132 -4.125 -4.112 -4.092 11.03141 18.78255 -4.88740   1.668
 3.34 6.25 -4.051 -4.046 -4.039 -4.027 -4.008 11.16568 19.03285 -4.63725   1.947
 3.34 6.50 -3.963 -3.959 -3.952 -3.940 -3.922 11.29776 19.28308 -4.38711   2.266
 3.34 6.75 -3.874 -3.870 -3.864 -3.853 -3.836 11.42800 19.53319 -4.13692   2.633
 3.34 7.00 -3.785 -3.781 -3.776 -3.765 -3.749 11.55691 19.78326 -3.88673   3.054
 3.34 7.25 -3.696 -3.692 -3.687 -3.677 -3.662 11.68481 20.03328 -3.63669   3.538
 3.34 7.50 -3.607 -3.603 -3.598 -3.588 -3.575 11.81178 20.28330 -3.38669   4.095
 3.34 7.75 -3.517 -3.514 -3.509 -3.500 -3.488 11.93797 20.53337 -3.13670   4.735
 3.34 8.00 -3.428 -3.425 -3.420 -3.412 -3.401 12.06333 20.78348 -2.88673   5.471
 3.36-2.00 -5.145 -5.136 -5.121 -5.095 -5.062  5.23629 10.49969-13.17037   0.002
 3.36-1.50 -5.190 -5.181 -5.164 -5.137 -5.102  5.62644 10.99978-12.67040   0.003
 3.36-1.00 -5.209 -5.198 -5.180 -5.150 -5.113  6.05154 11.50010-12.16999   0.005
 3.36-0.50 -5.213 -5.201 -5.181 -5.148 -5.108  6.48671 12.00087-11.66918   0.009
 3.36 0.00 -5.207 -5.193 -5.171 -5.136 -5.094  6.91046 12.50379-11.16628   0.014
 3.36 0.50 -5.179 -5.163 -5.140 -5.103 -5.060  7.32263 13.01199-10.65797   0.023
 3.36 1.00 -5.113 -5.097 -5.073 -5.035 -4.992  7.73584 13.53326-10.13686   0.037
 3.36 1.25 -5.066 -5.049 -5.025 -4.988 -4.945  7.94903 13.80174 -9.86827   0.047
 3.36 1.50 -5.011 -4.994 -4.970 -4.933 -4.891  8.16465 14.07408 -9.59585   0.060
 3.36 1.75 -4.951 -4.934 -4.911 -4.876 -4.834  8.38259 14.35088 -9.31912   0.077
 3.36 2.00 -4.891 -4.875 -4.852 -4.818 -4.778  8.60054 14.62767 -9.04239   0.099
 3.36 2.25 -4.833 -4.818 -4.796 -4.763 -4.725  8.80753 14.90282 -8.76729   0.126
 3.36 2.50 -4.781 -4.766 -4.745 -4.714 -4.677  9.00518 15.17609 -8.49404   0.158
 3.36 2.75 -4.731 -4.717 -4.697 -4.667 -4.632  9.18886 15.44505 -8.22507   0.195
 3.36 3.00 -4.684 -4.671 -4.652 -4.624 -4.591  9.36342 15.71071 -7.95940   0.239
 3.36 3.20 -4.645 -4.633 -4.615 -4.589 -4.557  9.49660 15.92078 -7.74940   0.279
 3.36 3.40 -4.606 -4.594 -4.578 -4.553 -4.523  9.62724 16.12917 -7.54104   0.324
 3.36 3.60 -4.563 -4.552 -4.538 -4.515 -4.486  9.75509 16.33590 -7.33424   0.375
 3.36 3.80 -4.515 -4.506 -4.493 -4.472 -4.445  9.88206 16.54142 -7.12861   0.434
 3.36 4.00 -4.463 -4.456 -4.445 -4.427 -4.402 10.00903 16.74586 -6.92409   0.502
 3.36 4.20 -4.414 -4.408 -4.397 -4.379 -4.355 10.13644 16.94944 -6.72059   0.582
 3.36 4.40 -4.361 -4.354 -4.345 -4.328 -4.304 10.26386 17.15237 -6.51775   0.674
 3.36 4.60 -4.306 -4.300 -4.290 -4.274 -4.251 10.39126 17.35465 -6.31552   0.780
 3.36 4.80 -4.250 -4.244 -4.235 -4.219 -4.197 10.51858 17.55649 -6.11368   0.903
 3.36 5.00 -4.190 -4.185 -4.176 -4.161 -4.138 10.64582 17.75793 -5.91222   1.045
 3.36 5.20 -4.129 -4.124 -4.116 -4.101 -4.080 10.77047 17.95903 -5.71105   1.206
 3.36 5.40 -4.066 -4.061 -4.054 -4.039 -4.018 10.89305 18.15993 -5.51011   1.389
 3.36 5.60 -4.001 -3.996 -3.989 -3.975 -3.955 11.01303 18.36067 -5.30938   1.596
 3.36 5.80 -3.934 -3.930 -3.923 -3.910 -3.890 11.13005 18.56129 -5.10880   1.826
 3.36 6.00 -3.865 -3.861 -3.855 -3.843 -3.824 11.24452 18.76178 -4.90833   2.083
 3.36 6.25 -3.778 -3.775 -3.769 -3.757 -3.739 11.38399 19.01213 -4.65787   2.446
 3.36 6.50 -3.690 -3.687 -3.681 -3.670 -3.653 11.52035 19.26245 -4.40749   2.862
 3.36 6.75 -3.601 -3.598 -3.593 -3.582 -3.567 11.65401 19.51277 -4.15717   3.338
 3.36 7.00 -3.512 -3.509 -3.504 -3.494 -3.480 11.78561 19.76305 -3.90693   3.883
 3.36 7.25 -3.422 -3.420 -3.415 -3.406 -3.393 11.91561 20.01311 -3.65688   4.510
 3.36 7.50 -3.333 -3.331 -3.326 -3.318 -3.306 12.04415 20.26316 -3.40683   5.229
 3.36 7.75 -3.245 -3.242 -3.238 -3.231 -3.220 12.17149 20.51328 -3.15672   6.055
 3.36 8.00 -3.157 -3.154 -3.151 -3.144 -3.134 12.29754 20.76343 -2.90658   7.002
 3.38-2.00 -4.976 -4.968 -4.953 -4.929 -4.897  5.46849 10.47972-13.19044   0.003
 3.38-1.50 -5.061 -5.052 -5.036 -5.009 -4.975  5.80489 10.97968-12.69037   0.004
 3.38-1.00 -5.117 -5.107 -5.090 -5.061 -5.024  6.16879 11.47986-12.19031   0.006
 3.38-0.50 -5.137 -5.126 -5.108 -5.076 -5.036  6.57008 11.98009-11.68994   0.009
 3.38 0.00 -5.124 -5.111 -5.091 -5.056 -5.013  6.99520 12.48116-11.18896   0.015
 3.38 0.50 -5.078 -5.064 -5.041 -5.003 -4.958  7.41913 12.98408-10.68592   0.025
 3.38 1.00 -4.989 -4.973 -4.948 -4.909 -4.862  7.83398 13.49290-10.17718   0.040
 3.38 1.25 -4.927 -4.911 -4.886 -4.847 -4.801  8.04122 13.75212 -9.91811   0.051
 3.38 1.50 -4.855 -4.838 -4.812 -4.773 -4.728  8.24846 14.01536 -9.65502   0.065
 3.38 1.75 -4.776 -4.759 -4.734 -4.696 -4.652  8.46044 14.28456 -9.38564   0.083
 3.38 2.00 -4.692 -4.675 -4.651 -4.614 -4.571  8.67431 14.55739 -9.11266   0.106
 3.38 2.25 -4.607 -4.590 -4.567 -4.533 -4.492  8.89008 14.83416 -8.83588   0.135
 3.38 2.50 -4.525 -4.509 -4.487 -4.454 -4.415  9.10585 15.11093 -8.55909   0.173
 3.38 2.75 -4.448 -4.433 -4.413 -4.382 -4.345  9.31189 15.38579 -8.28425   0.219
 3.38 3.00 -4.379 -4.366 -4.347 -4.318 -4.283  9.50934 15.65858 -8.01149   0.276
 3.38 3.20 -4.327 -4.315 -4.298 -4.271 -4.237  9.65734 15.87363 -7.79640   0.327
 3.38 3.40 -4.280 -4.269 -4.253 -4.227 -4.196  9.79948 16.08659 -7.58340   0.385
 3.38 3.60 -4.233 -4.223 -4.209 -4.185 -4.155  9.93535 16.29740 -7.37257   0.451
 3.38 3.80 -4.185 -4.177 -4.164 -4.143 -4.115 10.06719 16.50640 -7.16358   0.525
 3.38 4.00 -4.137 -4.130 -4.119 -4.101 -4.075 10.19618 16.71374 -6.95625   0.609
 3.38 4.20 -4.092 -4.086 -4.076 -4.059 -4.034 10.32258 16.91956 -6.75045   0.704
 3.38 4.40 -4.045 -4.040 -4.030 -4.014 -3.990 10.44861 17.12434 -6.54569   0.814
 3.38 4.60 -3.998 -3.993 -3.984 -3.968 -3.945 10.57440 17.32816 -6.34190   0.941
 3.38 4.80 -3.949 -3.944 -3.936 -3.921 -3.898 10.70006 17.53132 -6.13879   1.087
 3.38 5.00 -3.896 -3.891 -3.883 -3.869 -3.847 10.82549 17.73384 -5.93629   1.256
 3.38 5.20 -3.841 -3.837 -3.829 -3.815 -3.794 10.95081 17.93579 -5.73431   1.451
 3.38 5.40 -3.783 -3.778 -3.771 -3.758 -3.738 11.07570 18.13739 -5.53270   1.675
 3.38 5.60 -3.721 -3.717 -3.710 -3.697 -3.678 11.19944 18.33866 -5.33143   1.932
 3.38 5.80 -3.656 -3.652 -3.646 -3.634 -3.616 11.32091 18.53970 -5.13040   2.223
 3.38 6.00 -3.589 -3.586 -3.580 -3.569 -3.551 11.44044 18.74052 -4.92959   2.551
 3.38 6.25 -3.503 -3.500 -3.495 -3.484 -3.468 11.58587 18.99124 -4.67887   3.016
 3.38 6.50 -3.416 -3.413 -3.408 -3.398 -3.383 11.72770 19.24179 -4.42829   3.550
 3.38 6.75 -3.327 -3.325 -3.320 -3.311 -3.297 11.86597 19.49228 -4.17778   4.162
 3.38 7.00 -3.239 -3.236 -3.232 -3.224 -3.211 12.00130 19.74265 -3.92738   4.864
 3.38 7.25 -3.150 -3.147 -3.143 -3.136 -3.124 12.13393 19.99287 -3.67720   5.667
 3.38 7.50 -3.061 -3.059 -3.055 -3.048 -3.038 12.26458 20.24304 -3.42701   6.587
 3.38 7.75 -2.973 -2.971 -2.968 -2.961 -2.952 12.39380 20.49318 -3.17683   7.644
 3.38 8.00 -2.887 -2.884 -2.881 -2.875 -2.867 12.52140 20.74327 -2.92665   8.853
 3.40-2.00 -4.783 -4.776 -4.763 -4.740 -4.712  5.71467 10.45969-13.21042   0.003
 3.40-1.50 -4.883 -4.875 -4.860 -4.835 -4.803  6.04532 10.95966-12.71041   0.005
 3.40-1.00 -4.970 -4.961 -4.944 -4.916 -4.881  6.37401 11.45970-12.21035   0.007
 3.40-0.50 -5.028 -5.018 -5.000 -4.969 -4.930  6.71917 11.95980-11.71019   0.011
 3.40 0.00 -5.040 -5.029 -5.009 -4.975 -4.932  7.09691 12.46015-11.20993   0.017
 3.40 0.50 -4.997 -4.984 -4.962 -4.925 -4.879  7.50596 12.96123-10.70885   0.027
 3.40 1.00 -4.893 -4.879 -4.855 -4.816 -4.768  7.92531 13.46464-10.20537   0.044
 3.40 1.25 -4.819 -4.804 -4.780 -4.740 -4.692  8.13308 13.71842 -9.95164   0.055
 3.40 1.50 -4.730 -4.714 -4.690 -4.650 -4.602  8.34084 13.97442 -9.69573   0.070
 3.40 1.75 -4.631 -4.615 -4.590 -4.552 -4.505  8.54882 14.23442 -9.43566   0.089
 3.40 2.00 -4.523 -4.507 -4.482 -4.445 -4.399  8.75717 14.49859 -9.17140   0.113
 3.40 2.25 -4.414 -4.398 -4.375 -4.339 -4.296  8.96908 14.76893 -8.90108   0.145
 3.40 2.50 -4.306 -4.291 -4.269 -4.235 -4.194  9.18184 15.04258 -8.62746   0.185
 3.40 2.75 -4.202 -4.188 -4.168 -4.137 -4.098  9.39524 15.31953 -8.35053   0.237
 3.40 3.00 -4.105 -4.092 -4.074 -4.046 -4.010  9.60863 15.59649 -8.07361   0.302
 3.40 3.20 -4.033 -4.022 -4.006 -3.979 -3.945  9.77256 15.81616 -7.85394   0.365
 3.40 3.40 -3.968 -3.958 -3.943 -3.919 -3.888  9.93124 16.03425 -7.63585   0.438
 3.40 3.60 -3.908 -3.899 -3.886 -3.864 -3.835 10.08299 16.25023 -7.41983   0.522
 3.40 3.80 -3.852 -3.845 -3.834 -3.814 -3.787 10.22748 16.46372 -7.20629   0.617
 3.40 4.00 -3.800 -3.794 -3.784 -3.767 -3.742 10.36624 16.67514 -6.99482   0.724
 3.40 4.20 -3.754 -3.749 -3.740 -3.724 -3.701 10.49918 16.88439 -6.78560   0.844
 3.40 4.40 -3.709 -3.704 -3.696 -3.681 -3.659 10.62906 17.09208 -6.57794   0.979
 3.40 4.60 -3.666 -3.662 -3.654 -3.640 -3.619 10.75575 17.29829 -6.37177   1.133
 3.40 4.80 -3.623 -3.619 -3.612 -3.599 -3.578 10.88103 17.50340 -6.16666   1.309
 3.40 5.00 -3.578 -3.574 -3.567 -3.554 -3.534 11.00561 17.70749 -5.96257   1.511
 3.40 5.20 -3.532 -3.528 -3.521 -3.509 -3.490 11.13002 17.91065 -5.75938   1.744
 3.40 5.40 -3.481 -3.477 -3.471 -3.459 -3.441 11.25396 18.11324 -5.55677   2.011
 3.40 5.60 -3.426 -3.423 -3.417 -3.406 -3.388 11.37753 18.31531 -5.35468   2.318
 3.40 5.80 -3.367 -3.364 -3.359 -3.348 -3.331 11.50047 18.51704 -5.15293   2.671
 3.40 6.00 -3.305 -3.302 -3.297 -3.287 -3.271 11.62263 18.71842 -4.95156   3.074
 3.40 6.25 -3.224 -3.221 -3.217 -3.207 -3.193 11.77254 18.96967 -4.70034   3.653
 3.40 6.50 -3.140 -3.137 -3.133 -3.124 -3.111 11.91955 19.22063 -4.44941   4.327
 3.40 6.75 -3.054 -3.051 -3.047 -3.039 -3.027 12.06267 19.47139 -4.19865   5.103
 3.40 7.00 -2.966 -2.964 -2.961 -2.953 -2.942 12.20249 19.72198 -3.94808   5.994
 3.40 7.25 -2.879 -2.877 -2.874 -2.867 -2.857 12.33904 19.97240 -3.69775   7.014
 3.40 7.50 -2.791 -2.790 -2.787 -2.781 -2.772 12.47290 20.22272 -3.44745   8.182
 3.40 7.75 -2.705 -2.703 -2.700 -2.695 -2.687 12.60459 20.47296 -3.19718   9.521
 3.40 8.00 -2.619 -2.618 -2.615 -2.610 -2.603 12.73392 20.72313 -2.94692  11.050
 3.42-2.00 -4.609 -4.602 -4.591 -4.570 -4.544  5.91360 10.43965-13.23040   0.004
 3.42-1.50 -4.697 -4.690 -4.677 -4.654 -4.624  6.27393 10.93967-12.73049   0.006
 3.42-1.00 -4.789 -4.781 -4.766 -4.740 -4.706  6.61077 11.43981-12.23033   0.009
 3.42-0.50 -4.868 -4.858 -4.841 -4.812 -4.774  6.93737 11.93977-11.73025   0.014
 3.42 0.00 -4.912 -4.901 -4.882 -4.849 -4.807  7.27091 12.43996-11.23018   0.020
 3.42 0.50 -4.898 -4.886 -4.864 -4.828 -4.781  7.62941 12.94032-10.72979   0.030
 3.42 1.00 -4.806 -4.793 -4.770 -4.731 -4.680  8.02036 13.44170-10.22841   0.047
 3.42 1.25 -4.728 -4.715 -4.692 -4.652 -4.601  8.22464 13.69316 -9.97691   0.060
 3.42 1.50 -4.632 -4.619 -4.595 -4.556 -4.505  8.43056 13.94557 -9.72446   0.076
 3.42 1.75 -4.519 -4.505 -4.482 -4.443 -4.394  8.63719 14.19994 -9.47006   0.097
 3.42 2.00 -4.393 -4.379 -4.356 -4.318 -4.271  8.84473 14.45682 -9.21318   0.123
 3.42 2.25 -4.260 -4.246 -4.224 -4.188 -4.143  9.05291 14.71815 -8.95194   0.156
 3.42 2.50 -4.124 -4.111 -4.090 -4.056 -4.014  9.26221 14.98385 -8.68635   0.198
 3.42 2.75 -3.995 -3.982 -3.963 -3.933 -3.894  9.47443 15.25589 -8.41427   0.253
 3.42 3.00 -3.872 -3.860 -3.844 -3.815 -3.780  9.68664 15.53046 -8.13966   0.323
 3.42 3.20 -3.780 -3.770 -3.755 -3.730 -3.697  9.85596 15.75182 -7.91828   0.393
 3.42 3.40 -3.695 -3.687 -3.673 -3.650 -3.620 10.02455 15.97318 -7.69689   0.477
 3.42 3.60 -3.617 -3.609 -3.597 -3.577 -3.550 10.19006 16.19364 -7.47642   0.578
 3.42 3.80 -3.545 -3.538 -3.528 -3.511 -3.486 10.34913 16.41189 -7.25817   0.694
 3.42 4.00 -3.480 -3.475 -3.466 -3.451 -3.428 10.50297 16.62839 -7.04168   0.828
 3.42 4.20 -3.424 -3.420 -3.412 -3.398 -3.377 10.64874 16.84201 -6.82799   0.979
 3.42 4.40 -3.374 -3.370 -3.363 -3.350 -3.330 10.78902 17.05362 -6.61636   1.150
 3.42 4.60 -3.328 -3.325 -3.319 -3.306 -3.288 10.92344 17.26320 -6.40686   1.343
 3.42 4.80 -3.286 -3.283 -3.277 -3.265 -3.247 11.05387 17.47115 -6.19905   1.561
 3.42 5.00 -3.245 -3.242 -3.236 -3.225 -3.207 11.18127 17.67761 -5.99268   1.808
 3.42 5.20 -3.204 -3.201 -3.195 -3.184 -3.168 11.30623 17.88271 -5.78747   2.088
 3.42 5.40 -3.160 -3.158 -3.152 -3.142 -3.126 11.43011 18.08690 -5.58317   2.407
 3.42 5.60 -3.114 -3.111 -3.106 -3.096 -3.081 11.55318 18.29024 -5.37972   2.774
 3.42 5.80 -3.063 -3.061 -3.056 -3.047 -3.032 11.67572 18.49301 -5.17691   3.194
 3.42 6.00 -3.009 -3.007 -3.002 -2.993 -2.980 11.79754 18.69522 -4.97469   3.675
 3.42 6.25 -2.936 -2.934 -2.930 -2.922 -2.909 11.94904 18.94734 -4.72273   4.375
 3.42 6.50 -2.859 -2.856 -2.853 -2.845 -2.833 12.09899 19.19893 -4.47121   5.199
 3.42 6.75 -2.777 -2.775 -2.772 -2.765 -2.754 12.24604 19.45008 -4.21996   6.158
 3.42 7.00 -2.694 -2.692 -2.689 -2.683 -2.673 12.39023 19.70096 -3.96900   7.270
 3.42 7.25 -2.609 -2.607 -2.605 -2.599 -2.590 12.53085 19.95168 -3.71834   8.547
 3.42 7.50 -2.524 -2.523 -2.520 -2.515 -2.507 12.66839 20.20222 -3.46788  10.014
 3.42 7.75 -2.439 -2.438 -2.435 -2.431 -2.424 12.80308 20.45262 -3.21756  11.694
 3.42 8.00 -2.356 -2.354 -2.352 -2.348 -2.341 12.93485 20.70286 -2.96738  13.611
 3.44-2.00 -4.476 -4.471 -4.460 -4.441 -4.417  6.04376 10.41963-13.25042   0.005
 3.44-1.50 -4.539 -4.532 -4.520 -4.499 -4.471  6.44747 10.91965-12.75031   0.008
 3.44-1.00 -4.613 -4.605 -4.592 -4.567 -4.536  6.82020 11.41979-12.25034   0.012
 3.44-0.50 -4.687 -4.678 -4.663 -4.635 -4.599  7.16495 11.91971-11.75031   0.017
 3.44 0.00 -4.742 -4.732 -4.713 -4.682 -4.640  7.49318 12.41979-11.25026   0.025
 3.44 0.50 -4.751 -4.739 -4.718 -4.682 -4.635  7.82046 12.91992-10.75007   0.037
 3.44 1.00 -4.687 -4.674 -4.651 -4.612 -4.560  8.16465 13.42045-10.24965   0.055
 3.44 1.25 -4.620 -4.607 -4.584 -4.544 -4.490  8.34790 13.67103 -9.99909   0.068
 3.44 1.50 -4.531 -4.517 -4.494 -4.454 -4.400  8.53795 13.92200 -9.74812   0.084
 3.44 1.75 -4.417 -4.404 -4.381 -4.342 -4.289  8.73535 14.17382 -9.49627   0.105
 3.44 2.00 -4.285 -4.272 -4.251 -4.213 -4.162  8.93672 14.42684 -9.24321   0.133
 3.44 2.25 -4.138 -4.126 -4.106 -4.070 -4.022  9.14067 14.68210 -8.98792   0.169
 3.44 2.50 -3.984 -3.973 -3.954 -3.921 -3.877  9.34694 14.94022 -8.72979   0.214
 3.44 2.75 -3.830 -3.820 -3.802 -3.772 -3.733  9.55515 15.20331 -8.46673   0.272
 3.44 3.00 -3.680 -3.671 -3.655 -3.628 -3.593  9.76500 15.47085 -8.19922   0.346
 3.44 3.20 -3.568 -3.560 -3.546 -3.522 -3.490  9.93446 15.68973 -7.98035   0.420
 3.44 3.40 -3.464 -3.456 -3.444 -3.423 -3.393 10.10392 15.90962 -7.76046   0.511
 3.44 3.60 -3.366 -3.360 -3.349 -3.331 -3.305 10.27287 16.13053 -7.53956   0.620
 3.44 3.80 -3.277 -3.272 -3.263 -3.247 -3.223 10.43995 16.35170 -7.31840   0.752
 3.44 4.00 -3.195 -3.191 -3.184 -3.170 -3.149 10.60520 16.57287 -7.09724   0.910
 3.44 4.20 -3.125 -3.121 -3.114 -3.102 -3.083 10.76417 16.79103 -6.87900   1.093
 3.44 4.40 -3.061 -3.058 -3.052 -3.041 -3.024 10.91786 17.00724 -6.66273   1.305
 3.44 4.60 -3.006 -3.003 -2.998 -2.987 -2.971 11.06520 17.22124 -6.44874   1.546
 3.44 4.80 -2.957 -2.954 -2.949 -2.940 -2.924 11.20623 17.43303 -6.23702   1.818
 3.44 5.00 -2.912 -2.909 -2.905 -2.895 -2.881 11.34203 17.64286 -6.02724   2.125
 3.44 5.20 -2.871 -2.869 -2.864 -2.855 -2.841 11.47257 17.85067 -5.81933   2.470
 3.44 5.40 -2.830 -2.828 -2.824 -2.815 -2.802 11.60016 18.05714 -5.61279   2.861
 3.44 5.60 -2.789 -2.787 -2.783 -2.774 -2.761 11.72492 18.26235 -5.40762   3.303
 3.44 5.80 -2.745 -2.743 -2.739 -2.731 -2.719 11.84811 18.46667 -5.20339   3.806
 3.44 6.00 -2.699 -2.697 -2.693 -2.686 -2.674 11.97007 18.67015 -5.00000   4.380
 3.44 6.25 -2.636 -2.635 -2.631 -2.624 -2.613 12.12168 18.92354 -4.74663   5.215
 3.44 6.50 -2.568 -2.567 -2.563 -2.557 -2.547 12.27184 19.17609 -4.49404   6.199
 3.44 6.75 -2.495 -2.494 -2.491 -2.485 -2.475 12.42063 19.42793 -4.24203   7.358
 3.44 7.00 -2.418 -2.417 -2.414 -2.408 -2.400 12.56750 19.67934 -3.99055   8.714
 3.44 7.25 -2.339 -2.337 -2.335 -2.330 -2.322 12.71153 19.93044 -3.73967  10.285
 3.44 7.50 -2.258 -2.256 -2.254 -2.249 -2.242 12.85272 20.18127 -3.48892  12.100
 3.44 7.75 -2.176 -2.175 -2.173 -2.169 -2.162 12.99066 20.43191 -3.23822  14.182
 3.44 8.00 -2.096 -2.094 -2.092 -2.088 -2.082 13.12548 20.68233 -2.98759  16.564
 3.46-2.00 -4.387 -4.381 -4.371 -4.354 -4.331  6.11294 10.39967-13.27043   0.005
 3.46-1.50 -4.422 -4.416 -4.404 -4.384 -4.359  6.55522 10.89960-12.77057   0.008
 3.46-1.00 -4.469 -4.462 -4.449 -4.426 -4.396  6.97007 11.39967-12.27043   0.014
 3.46-0.50 -4.520 -4.512 -4.497 -4.471 -4.436  7.35392 11.89966-11.77032   0.021
 3.46 0.00 -4.561 -4.551 -4.534 -4.504 -4.464  7.70749 12.39967-11.27035   0.032
 3.46 0.50 -4.569 -4.558 -4.538 -4.503 -4.457  8.03941 12.89977-10.77032   0.046
 3.46 1.00 -4.520 -4.508 -4.485 -4.446 -4.394  8.36399 13.40002-10.27011   0.067
 3.46 1.25 -4.465 -4.452 -4.429 -4.389 -4.335  8.52942 13.65024-10.01990   0.081
 3.46 1.50 -4.388 -4.375 -4.352 -4.311 -4.256  8.69836 13.90059 -9.76955   0.099
 3.46 1.75 -4.286 -4.273 -4.251 -4.210 -4.155  8.87461 14.15133 -9.51877   0.121
 3.46 2.00 -4.163 -4.150 -4.128 -4.089 -4.036  9.05729 14.40261 -9.26745   0.150
 3.46 2.25 -4.019 -4.007 -3.987 -3.950 -3.900  9.24750 14.65490 -9.01516   0.186
 3.46 2.50 -3.861 -3.851 -3.832 -3.799 -3.753  9.44326 14.90865 -8.76145   0.233
 3.46 2.75 -3.696 -3.686 -3.670 -3.640 -3.599  9.64377 15.16518 -8.50491   0.294
 3.46 3.00 -3.529 -3.521 -3.506 -3.480 -3.444  9.84807 15.42505 -8.24504   0.372
 3.46 3.20 -3.399 -3.392 -3.379 -3.356 -3.323 10.01420 15.63692 -8.03321   0.451
 3.46 3.40 -3.274 -3.268 -3.257 -3.236 -3.208 10.18147 15.85160 -7.81857   0.546
 3.46 3.60 -3.157 -3.152 -3.142 -3.124 -3.099 10.35000 16.07032 -7.59985   0.663
 3.46 3.80 -3.049 -3.045 -3.036 -3.021 -3.000 10.51894 16.29097 -7.37919   0.805
 3.46 4.00 -2.950 -2.946 -2.939 -2.926 -2.908 10.68789 16.51162 -7.15852   0.978
 3.46 4.20 -2.863 -2.860 -2.854 -2.842 -2.826 10.85402 16.73222 -6.93789   1.184
 3.46 4.40 -2.784 -2.781 -2.776 -2.766 -2.751 11.01734 16.95273 -6.71736   1.429
 3.46 4.60 -2.714 -2.711 -2.707 -2.698 -2.684 11.17648 17.17178 -6.49831   1.716
 3.46 4.80 -2.653 -2.651 -2.646 -2.638 -2.625 11.32954 17.38785 -6.28223   2.047
 3.46 5.00 -2.598 -2.596 -2.592 -2.584 -2.572 11.47727 17.60184 -6.06824   2.427
 3.46 5.20 -2.550 -2.548 -2.544 -2.537 -2.525 11.61805 17.81331 -5.85672   2.854
 3.46 5.40 -2.506 -2.504 -2.500 -2.493 -2.482 11.75399 18.02296 -5.64703   3.338
 3.46 5.60 -2.464 -2.462 -2.459 -2.452 -2.441 11.88493 18.23084 -5.43916   3.881
 3.46 5.80 -2.423 -2.421 -2.418 -2.411 -2.401 12.01239 18.43738 -5.23267   4.494
 3.46 6.00 -2.381 -2.379 -2.376 -2.370 -2.360 12.13704 18.64266 -5.02743   5.187
 3.46 6.25 -2.327 -2.325 -2.322 -2.316 -2.307 12.28992 18.89777 -4.77233   6.185
 3.46 6.50 -2.268 -2.267 -2.264 -2.258 -2.250 12.44059 19.15168 -4.51841   7.357
 3.46 6.75 -2.205 -2.204 -2.201 -2.196 -2.188 12.58998 19.40462 -4.26543   8.737
 3.46 7.00 -2.137 -2.136 -2.133 -2.128 -2.121 12.73759 19.65687 -4.01318  10.356
 3.46 7.25 -2.065 -2.064 -2.062 -2.057 -2.050 12.88338 19.90858 -3.76156  12.250
 3.46 7.50 -1.991 -1.990 -1.987 -1.983 -1.976 13.02694 20.15987 -3.51032  14.453
 3.46 7.75 -1.915 -1.913 -1.911 -1.907 -1.901 13.16760 20.41087 -3.25932  16.992
 3.46 8.00 -1.838 -1.837 -1.835 -1.831 -1.825 13.30557 20.66153 -3.00860  19.914
 3.48-2.00 -4.336 -4.331 -4.322 -4.307 -4.287  6.13194 10.37931-13.29073   0.005
 3.48-1.50 -4.345 -4.339 -4.329 -4.310 -4.287  6.60788 10.87932-12.79075   0.009
 3.48-1.00 -4.365 -4.359 -4.346 -4.325 -4.297  7.05994 11.37931-12.29073   0.015
 3.48-0.50 -4.389 -4.381 -4.367 -4.342 -4.309  7.48444 11.87933-11.79075   0.024
 3.48 0.00 -4.402 -4.393 -4.376 -4.347 -4.308  7.87875 12.37931-11.29073   0.038
 3.48 0.50 -4.388 -4.377 -4.358 -4.324 -4.278  8.24105 12.87938-10.79075   0.057
 3.48 1.00 -4.329 -4.317 -4.295 -4.257 -4.205  8.57807 13.37949-10.29056   0.084
 3.48 1.25 -4.276 -4.263 -4.241 -4.201 -4.147  8.74020 13.62958-10.04042   0.101
 3.48 1.50 -4.204 -4.192 -4.169 -4.128 -4.074  8.90233 13.87973 -9.79022   0.122
 3.48 1.75 -4.112 -4.099 -4.077 -4.036 -3.982  9.06550 14.13004 -9.53992   0.147
 3.48 2.00 -4.000 -3.988 -3.966 -3.927 -3.874  9.23019 14.38057 -9.28946   0.178
 3.48 2.25 -3.869 -3.857 -3.837 -3.800 -3.750  9.40092 14.63156 -9.03845   0.217
 3.48 2.50 -3.722 -3.711 -3.692 -3.659 -3.612  9.57726 14.88321 -8.78675   0.266
 3.48 2.75 -3.561 -3.552 -3.535 -3.505 -3.463  9.76116 15.13624 -8.53381   0.329
 3.48 3.00 -3.393 -3.385 -3.371 -3.344 -3.308  9.95143 15.39111 -8.27910   0.409
 3.48 3.20 -3.257 -3.249 -3.237 -3.213 -3.181 10.10829 15.59730 -8.07288   0.490
 3.48 3.40 -3.121 -3.115 -3.104 -3.083 -3.055 10.26840 15.80590 -7.86420   0.589
 3.48 3.60 -2.989 -2.984 -2.974 -2.957 -2.932 10.43239 16.01783 -7.65225   0.712
 3.48 3.80 -2.863 -2.859 -2.851 -2.836 -2.815 10.59849 16.23317 -7.43695   0.862
 3.48 4.00 -2.745 -2.741 -2.735 -2.723 -2.705 10.76544 16.45102 -7.21911   1.045
 3.48 4.20 -2.640 -2.637 -2.631 -2.621 -2.605 10.93303 16.67217 -6.99784   1.267
 3.48 4.40 -2.544 -2.541 -2.536 -2.527 -2.514 11.10061 16.89332 -6.77658   1.537
 3.48 4.60 -2.458 -2.456 -2.452 -2.444 -2.432 11.26663 17.11420 -6.55564   1.861
 3.48 4.80 -2.383 -2.381 -2.377 -2.369 -2.358 11.42847 17.33414 -6.33577   2.242
 3.48 5.00 -2.314 -2.312 -2.309 -2.302 -2.292 11.58681 17.55316 -6.11691   2.690
 3.48 5.20 -2.255 -2.253 -2.250 -2.244 -2.234 11.73895 17.76887 -5.90111   3.205
 3.48 5.40 -2.202 -2.200 -2.197 -2.191 -2.181 11.88579 17.98248 -5.68742   3.795
 3.48 5.60 -2.153 -2.152 -2.149 -2.143 -2.134 12.02672 18.19394 -5.47599   4.463
 3.48 5.80 -2.109 -2.108 -2.105 -2.099 -2.090 12.16231 18.40353 -5.26651   5.217
 3.48 6.00 -2.067 -2.065 -2.063 -2.057 -2.049 12.29336 18.61140 -5.05874   6.067
 3.48 6.25 -2.015 -2.014 -2.011 -2.006 -1.998 12.45141 18.86898 -4.80108   7.277
 3.48 6.50 -1.963 -1.962 -1.959 -1.955 -1.947 12.60531 19.12483 -4.54516   8.688
 3.48 6.75 -1.908 -1.907 -1.905 -1.900 -1.893 12.75616 19.37938 -4.29065  10.336
 3.48 7.00 -1.850 -1.849 -1.846 -1.842 -1.835 12.90461 19.63286 -4.03720  12.263
 3.48 7.25 -1.787 -1.786 -1.784 -1.780 -1.773 13.05145 19.88541 -3.78464  14.521
 3.48 7.50 -1.721 -1.720 -1.718 -1.714 -1.708 13.19618 20.13735 -3.53269  17.152
 3.48 7.75 -1.652 -1.651 -1.649 -1.645 -1.639 13.33846 20.38890 -3.28114  20.205
 3.48 8.00 -1.582 -1.580 -1.578 -1.575 -1.569 13.47842 20.63998 -3.03007  23.740
 3.50-2.00 -4.312 -4.308 -4.302 -4.290 -4.275  6.12450 10.35965-13.31042   0.005
 3.50-1.50 -4.305 -4.300 -4.291 -4.275 -4.255  6.61637 10.85962-12.81051   0.009
 3.50-1.00 -4.300 -4.294 -4.283 -4.264 -4.239  7.09726 11.35965-12.31042   0.015
 3.50-0.50 -4.298 -4.290 -4.277 -4.254 -4.223  7.55666 11.85962-11.81051   0.025
 3.50 0.00 -4.282 -4.274 -4.258 -4.230 -4.193  7.98829 12.35965-11.31042   0.042
 3.50 0.50 -4.236 -4.225 -4.207 -4.174 -4.130  8.38987 12.85968-10.81051   0.066
 3.50 1.00 -4.148 -4.136 -4.115 -4.077 -4.027  8.75914 13.35984-10.31034   0.101
 3.50 1.25 -4.085 -4.073 -4.051 -4.012 -3.960  8.93233 13.60985-10.06028   0.123
 3.50 1.50 -4.007 -3.995 -3.973 -3.933 -3.880  9.10037 13.85986 -9.81023   0.150
 3.50 1.75 -3.914 -3.902 -3.880 -3.841 -3.788  9.26302 14.10998 -9.56007   0.181
 3.50 2.00 -3.806 -3.794 -3.773 -3.736 -3.684  9.42537 14.36022 -9.30980   0.218
 3.50 2.25 -3.683 -3.672 -3.652 -3.616 -3.568  9.58755 14.61066 -9.05933   0.263
 3.50 2.50 -3.547 -3.537 -3.519 -3.487 -3.442  9.74974 14.86142 -8.80855   0.317
 3.50 2.75 -3.400 -3.391 -3.375 -3.345 -3.304  9.91708 15.11281 -8.55719   0.385
 3.50 3.00 -3.243 -3.235 -3.221 -3.195 -3.159 10.08920 15.36511 -8.30496   0.469
 3.50 3.20 -3.112 -3.105 -3.092 -3.069 -3.037 10.23213 15.56816 -8.10191   0.553
 3.50 3.40 -2.978 -2.972 -2.960 -2.940 -2.912 10.37934 15.77270 -7.89736   0.655
 3.50 3.60 -2.843 -2.837 -2.828 -2.810 -2.786 10.53125 15.97926 -7.69080   0.780
 3.50 3.80 -2.709 -2.704 -2.696 -2.681 -2.661 10.68747 16.18879 -7.48130   0.933
 3.50 4.00 -2.578 -2.574 -2.568 -2.556 -2.539 10.84745 16.40106 -7.26906   1.122
 3.50 4.20 -2.457 -2.454 -2.449 -2.438 -2.424 11.01266 16.61768 -7.05235   1.358
 3.50 4.40 -2.343 -2.341 -2.336 -2.328 -2.315 11.17803 16.83622 -6.83377   1.643
 3.50 4.60 -2.241 -2.239 -2.235 -2.227 -2.216 11.34356 17.05696 -6.61304   1.988
 3.50 4.80 -2.149 -2.147 -2.143 -2.137 -2.126 11.50912 17.27846 -6.39158   2.405
 3.50 5.00 -2.066 -2.064 -2.061 -2.055 -2.045 11.67468 17.49996 -6.17012   2.909
 3.50 5.20 -1.993 -1.991 -1.989 -1.983 -1.974 11.83475 17.71936 -5.95071   3.498
 3.50 5.40 -1.928 -1.926 -1.923 -1.918 -1.910 11.99067 17.93709 -5.73296   4.186
 3.50 5.60 -1.869 -1.868 -1.865 -1.860 -1.852 12.14158 18.15264 -5.51738   4.980
 3.50 5.80 -1.817 -1.815 -1.813 -1.808 -1.800 12.28672 18.36574 -5.30428   5.886
 3.50 6.00 -1.769 -1.768 -1.765 -1.760 -1.753 12.42667 18.57680 -5.09323   6.915
 3.50 6.25 -1.714 -1.713 -1.711 -1.706 -1.699 12.59374 18.83789 -4.83225   8.382
 3.50 6.50 -1.663 -1.661 -1.659 -1.655 -1.648 12.75435 19.09656 -4.57365  10.084
 3.50 6.75 -1.612 -1.611 -1.609 -1.604 -1.598 12.90929 19.35308 -4.31705  12.054
 3.50 7.00 -1.560 -1.559 -1.557 -1.553 -1.546 13.06032 19.60810 -4.06198  14.344
 3.50 7.25 -1.506 -1.504 -1.502 -1.499 -1.492 13.20853 19.86199 -3.80822  17.012
 3.50 7.50 -1.448 -1.447 -1.445 -1.441 -1.435 13.35411 20.11494 -3.55533  20.114
 3.50 7.75 -1.387 -1.386 -1.384 -1.381 -1.375 13.49751 20.36720 -3.30302  23.724
 3.50 8.00 -1.325 -1.323 -1.322 -1.318 -1.312 13.63859 20.61868 -3.05139  27.909
 3.52-2.00 -4.291 -4.289 -4.284 -4.276 -4.267  6.11727 10.33965-13.33050   0.005
 3.52-1.50 -4.284 -4.280 -4.274 -4.263 -4.249  6.60756 10.83960-12.83062   0.008
 3.52-1.00 -4.269 -4.264 -4.255 -4.240 -4.220  7.09968 11.33965-12.33041   0.015
 3.52-0.50 -4.245 -4.239 -4.227 -4.206 -4.179  7.58399 11.83960-11.83033   0.026
 3.52 0.00 -4.204 -4.196 -4.181 -4.155 -4.121  8.04961 12.33965-11.33040   0.044
 3.52 0.50 -4.127 -4.117 -4.099 -4.068 -4.026  8.48756 12.83967-10.83033   0.072
 3.52 1.00 -4.003 -3.991 -3.971 -3.935 -3.886  8.89564 13.33965-10.33031   0.116
 3.52 1.25 -3.923 -3.911 -3.890 -3.852 -3.801  9.08730 13.58967-10.08032   0.145
 3.52 1.50 -3.830 -3.818 -3.797 -3.758 -3.706  9.27114 13.83973 -9.83033   0.179
 3.52 1.75 -3.725 -3.714 -3.693 -3.655 -3.603  9.44678 14.08987 -9.58025   0.219
 3.52 2.00 -3.610 -3.599 -3.578 -3.542 -3.492  9.61658 14.34005 -9.33013   0.266
 3.52 2.25 -3.485 -3.474 -3.455 -3.421 -3.374  9.78064 14.59024 -9.07997   0.321
 3.52 2.50 -3.352 -3.343 -3.325 -3.294 -3.251  9.94300 14.84048 -8.82974   0.387
 3.52 2.75 -3.212 -3.203 -3.188 -3.160 -3.121 10.10415 15.09112 -8.57907   0.466
 3.52 3.00 -3.066 -3.059 -3.045 -3.020 -2.985 10.26529 15.34223 -8.32790   0.561
 3.52 3.20 -2.944 -2.937 -2.925 -2.903 -2.872 10.39687 15.54366 -8.12642   0.653
 3.52 3.40 -2.819 -2.813 -2.802 -2.783 -2.755 10.53094 15.74587 -7.92417   0.762
 3.52 3.60 -2.691 -2.685 -2.676 -2.659 -2.635 10.66841 15.94916 -7.72088   0.893
 3.52 3.80 -2.560 -2.555 -2.547 -2.533 -2.513 10.81067 16.15438 -7.51572   1.052
 3.52 4.00 -2.429 -2.425 -2.419 -2.407 -2.389 10.95727 16.36154 -7.30865   1.245
 3.52 4.20 -2.301 -2.298 -2.293 -2.282 -2.268 11.10962 16.57205 -7.09816   1.483
 3.52 4.40 -2.177 -2.175 -2.170 -2.162 -2.149 11.26593 16.78540 -6.88479   1.776
 3.52 4.60 -2.061 -2.058 -2.055 -2.047 -2.036 11.42746 17.00280 -6.66738   2.139
 3.52 4.80 -1.953 -1.951 -1.948 -1.941 -1.931 11.59125 17.22261 -6.44755   2.583
 3.52 5.00 -1.853 -1.852 -1.849 -1.843 -1.834 11.75504 17.44311 -6.22702   3.119
 3.52 5.20 -1.766 -1.764 -1.762 -1.756 -1.748 11.91817 17.66407 -6.00601   3.764
 3.52 5.40 -1.686 -1.685 -1.683 -1.678 -1.670 12.08035 17.88503 -5.78499   4.536
 3.52 5.60 -1.616 -1.614 -1.612 -1.607 -1.600 12.23956 18.10473 -5.56526   5.448
 3.52 5.80 -1.552 -1.551 -1.549 -1.545 -1.538 12.39315 18.32170 -5.34831   6.502
 3.52 6.00 -1.496 -1.494 -1.492 -1.488 -1.481 12.54220 18.53668 -5.13336   7.719
 3.52 6.25 -1.432 -1.431 -1.429 -1.425 -1.419 12.72024 18.80189 -4.86822   9.475
 3.52 6.50 -1.376 -1.375 -1.373 -1.369 -1.363 12.89053 19.06409 -4.60607  11.527
 3.52 6.75 -1.324 -1.323 -1.321 -1.317 -1.311 13.05297 19.32350 -4.34665  13.897
 3.52 7.00 -1.274 -1.273 -1.271 -1.268 -1.262 13.20952 19.58081 -4.08932  16.642
 3.52 7.25 -1.225 -1.224 -1.222 -1.218 -1.213 13.36109 19.83636 -3.83380  19.814
 3.52 7.50 -1.174 -1.173 -1.171 -1.168 -1.162 13.50880 20.09061 -3.57955  23.487
 3.52 7.75 -1.121 -1.120 -1.118 -1.115 -1.109 13.65368 20.34396 -3.32618  27.750
 3.52 8.00 -1.066 -1.065 -1.063 -1.060 -1.054 13.79539 20.59627 -3.07381  32.668
 3.54-2.00 -4.242 -4.241 -4.238 -4.233 -4.226  6.15594 10.31952-13.35047   0.005
 3.54-1.50 -4.256 -4.254 -4.250 -4.243 -4.234  6.61204 10.81961-12.85047   0.008
 3.54-1.00 -4.249 -4.246 -4.240 -4.229 -4.216  7.09342 11.31973-12.35047   0.014
 3.54-0.50 -4.223 -4.218 -4.209 -4.193 -4.173  7.58297 11.81961-11.85047   0.025
 3.54 0.00 -4.166 -4.159 -4.147 -4.124 -4.095  8.06893 12.31973-11.35047   0.044
 3.54 0.50 -4.063 -4.054 -4.038 -4.009 -3.971  8.53845 12.81961-10.85047   0.075
 3.54 1.00 -3.905 -3.894 -3.874 -3.840 -3.794  8.98182 13.31973-10.35037   0.125
 3.54 1.25 -3.806 -3.794 -3.774 -3.738 -3.690  9.19225 13.56970-10.10042   0.159
 3.54 1.50 -3.694 -3.682 -3.662 -3.625 -3.575  9.39480 13.81968 -9.85047   0.201
 3.54 1.75 -3.572 -3.561 -3.540 -3.504 -3.454  9.58894 14.06968 -9.60038   0.252
 3.54 2.00 -3.441 -3.430 -3.411 -3.375 -3.327  9.77510 14.31973 -9.35028   0.312
 3.54 2.25 -3.305 -3.295 -3.276 -3.243 -3.198  9.95281 14.56985 -9.10022   0.383
 3.54 2.50 -3.165 -3.155 -3.138 -3.108 -3.067 10.12418 14.82007 -8.85017   0.466
 3.54 2.75 -3.021 -3.013 -2.998 -2.971 -2.933 10.28935 15.07042 -8.59982   0.564
 3.54 3.00 -2.877 -2.869 -2.856 -2.832 -2.799 10.45194 15.32098 -8.34921   0.680
 3.54 3.20 -2.759 -2.752 -2.740 -2.718 -2.689 10.58033 15.52165 -8.14851   0.788
 3.54 3.40 -2.639 -2.633 -2.623 -2.604 -2.577 10.70871 15.72269 -7.94746   0.914
 3.54 3.60 -2.518 -2.513 -2.504 -2.487 -2.464 10.83789 15.92427 -7.74587   1.060
 3.54 3.80 -2.394 -2.390 -2.382 -2.368 -2.348 10.96944 16.12698 -7.54316   1.234
 3.54 4.00 -2.270 -2.266 -2.260 -2.248 -2.231 11.10312 16.33082 -7.33932   1.439
 3.54 4.20 -2.145 -2.142 -2.137 -2.126 -2.111 11.24145 16.53672 -7.13342   1.687
 3.54 4.40 -2.021 -2.019 -2.014 -2.005 -1.993 11.38406 16.74497 -6.92517   1.988
 3.54 4.60 -1.900 -1.898 -1.894 -1.887 -1.876 11.53204 16.95643 -6.71371   2.357
 3.54 4.80 -1.784 -1.782 -1.779 -1.772 -1.762 11.68501 17.17131 -6.49884   2.812
 3.54 5.00 -1.673 -1.671 -1.668 -1.663 -1.654 11.84173 17.38881 -6.28133   3.368
 3.54 5.20 -1.571 -1.570 -1.568 -1.562 -1.554 12.00325 17.60995 -6.06016   4.056
 3.54 5.40 -1.478 -1.477 -1.474 -1.470 -1.462 12.16476 17.83109 -5.83898   4.885
 3.54 5.60 -1.394 -1.392 -1.390 -1.386 -1.379 12.32566 18.05200 -5.61805   5.879
 3.54 5.80 -1.318 -1.317 -1.315 -1.311 -1.304 12.48446 18.27203 -5.39800   7.058
 3.54 6.00 -1.251 -1.249 -1.247 -1.243 -1.237 12.64128 18.49122 -5.17881   8.454
 3.54 6.25 -1.176 -1.175 -1.173 -1.169 -1.163 12.82906 18.76091 -4.90909  10.495
 3.54 6.50 -1.110 -1.109 -1.108 -1.104 -1.098 13.00945 19.02735 -4.64264  12.919
 3.54 6.75 -1.053 -1.052 -1.050 -1.046 -1.041 13.18125 19.29045 -4.37961  15.744
 3.54 7.00 -1.000 -0.999 -0.997 -0.994 -0.988 13.34577 19.55084 -4.11930  19.027
 3.54 7.25 -0.951 -0.950 -0.948 -0.945 -0.940 13.50325 19.80874 -3.86145  22.808
 3.54 7.50 -0.904 -0.903 -0.901 -0.897 -0.892 13.65523 20.06483 -3.60537  27.168
 3.54 7.75 -0.856 -0.855 -0.854 -0.850 -0.845 13.80296 20.31964 -3.35054  32.204
 3.54 8.00 -0.808 -0.807 -0.805 -0.802 -0.796 13.94601 20.57299 -3.09713  37.971
 3.56-2.00 -4.114 -4.112 -4.111 -4.107 -4.103  6.32139 10.29951-13.37059   0.006
 3.56-1.50 -4.182 -4.180 -4.178 -4.173 -4.166  6.69662 10.79948-12.87063   0.009
 3.56-1.00 -4.210 -4.208 -4.204 -4.197 -4.188  7.12090 11.29951-12.37049   0.014
 3.56-0.50 -4.202 -4.199 -4.193 -4.182 -4.168  7.58456 11.79955-11.87063   0.024
 3.56 0.00 -4.152 -4.147 -4.138 -4.122 -4.101  8.06781 12.29951-11.37049   0.043
 3.56 0.50 -4.041 -4.034 -4.021 -3.997 -3.966  8.55267 12.79955-10.87063   0.075
 3.56 1.00 -3.856 -3.846 -3.829 -3.798 -3.758  9.02490 13.29951-10.37049   0.128
 3.56 1.25 -3.739 -3.729 -3.710 -3.677 -3.634  9.25197 13.54956-10.12056   0.166
 3.56 1.50 -3.607 -3.596 -3.577 -3.543 -3.496  9.47217 13.79962 -9.87063   0.215
 3.56 1.75 -3.467 -3.456 -3.437 -3.402 -3.356  9.68448 14.04967 -9.62051   0.274
 3.56 2.00 -3.317 -3.307 -3.288 -3.254 -3.208  9.88885 14.29973 -9.37039   0.347
 3.56 2.25 -3.164 -3.154 -3.137 -3.105 -3.062 10.08475 14.54974 -9.12035   0.435
 3.56 2.50 -3.009 -3.000 -2.983 -2.954 -2.914 10.27254 14.79976 -8.87031   0.540
 3.56 2.75 -2.854 -2.846 -2.831 -2.805 -2.769 10.45174 15.04989 -8.62015   0.664
 3.56 3.00 -2.701 -2.694 -2.681 -2.657 -2.625 10.62428 15.30016 -8.36988   0.810
 3.56 3.20 -2.580 -2.573 -2.561 -2.540 -2.511 10.75731 15.50051 -8.16955   0.944
 3.56 3.40 -2.459 -2.453 -2.443 -2.424 -2.398 10.88838 15.70105 -7.96903   1.098
 3.56 3.60 -2.338 -2.333 -2.324 -2.308 -2.284 11.01728 15.90186 -7.76825   1.274
 3.56 3.80 -2.218 -2.213 -2.205 -2.191 -2.171 11.14549 16.10320 -7.56689   1.476
 3.56 4.00 -2.097 -2.093 -2.087 -2.075 -2.057 11.27370 16.30514 -7.36492   1.711
 3.56 4.20 -1.976 -1.973 -1.968 -1.957 -1.941 11.40360 16.50827 -7.16177   1.987
 3.56 4.40 -1.856 -1.853 -1.849 -1.840 -1.826 11.53537 16.71294 -6.95709   2.313
 3.56 4.60 -1.737 -1.735 -1.731 -1.723 -1.711 11.67020 16.91966 -6.75036   2.701
 3.56 4.80 -1.619 -1.618 -1.614 -1.607 -1.597 11.80986 17.12937 -6.54064   3.172
 3.56 5.00 -1.505 -1.503 -1.501 -1.495 -1.485 11.95371 17.34183 -6.32818   3.743
 3.56 5.20 -1.397 -1.395 -1.393 -1.387 -1.379 12.10398 17.55873 -6.11128   4.451
 3.56 5.40 -1.294 -1.292 -1.290 -1.285 -1.278 12.25739 17.77746 -5.89256   5.311
 3.56 5.60 -1.199 -1.197 -1.195 -1.191 -1.184 12.41448 17.99825 -5.67178   6.364
 3.56 5.80 -1.112 -1.111 -1.109 -1.105 -1.098 12.57291 18.21974 -5.45032   7.636
 3.56 6.00 -1.033 -1.032 -1.030 -1.026 -1.020 12.73135 18.44122 -5.22885   9.164
 3.56 6.25 -0.946 -0.945 -0.943 -0.939 -0.933 12.92507 18.71508 -4.95501  11.453
 3.56 6.50 -0.869 -0.868 -0.866 -0.863 -0.857 13.11428 18.98628 -4.68382  14.240
 3.56 6.75 -0.802 -0.801 -0.799 -0.796 -0.791 13.29504 19.25348 -4.41665  17.534
 3.56 7.00 -0.743 -0.742 -0.741 -0.737 -0.732 13.46835 19.51746 -4.15267  21.407
 3.56 7.25 -0.691 -0.690 -0.688 -0.685 -0.680 13.63343 19.77820 -3.89186  25.889
 3.56 7.50 -0.643 -0.642 -0.640 -0.637 -0.631 13.79162 20.03663 -3.63339  31.061
 3.56 7.75 -0.597 -0.596 -0.595 -0.591 -0.586 13.94389 20.29339 -3.37664  37.014
 3.56 8.00 -0.553 -0.552 -0.550 -0.547 -0.541 14.08991 20.54827 -3.12182  43.792
 3.58-2.00 -3.888 -3.887 -3.886 -3.883 -3.879  6.60991 10.27944-13.39062   0.008
 3.58-1.50 -4.013 -4.012 -4.010 -4.006 -4.002  6.91855 10.77952-12.89042   0.011
 3.58-1.00 -4.103 -4.101 -4.098 -4.093 -4.086  7.26031 11.27944-12.39051   0.016
 3.58-0.50 -4.145 -4.143 -4.139 -4.131 -4.122  7.64846 11.77952-11.89042   0.026
 3.58 0.00 -4.129 -4.125 -4.119 -4.108 -4.093  8.08565 12.27967-11.39051   0.043
 3.58 0.50 -4.037 -4.031 -4.022 -4.005 -3.983  8.55582 12.77952-10.89042   0.073
 3.58 1.00 -3.849 -3.841 -3.828 -3.804 -3.772  9.03703 13.27967-10.39051   0.127
 3.58 1.25 -3.720 -3.712 -3.697 -3.670 -3.634  9.27484 13.52963-10.14047   0.167
 3.58 1.50 -3.573 -3.563 -3.546 -3.517 -3.478  9.50947 13.77960 -9.89042   0.219
 3.58 1.75 -3.413 -3.404 -3.386 -3.356 -3.315  9.73741 14.02963 -9.64041   0.285
 3.58 2.00 -3.244 -3.234 -3.217 -3.186 -3.145  9.95876 14.27967 -9.39041   0.368
 3.58 2.25 -3.073 -3.063 -3.047 -3.017 -2.977 10.17210 14.52967 -9.14041   0.471
 3.58 2.50 -2.899 -2.890 -2.874 -2.846 -2.808 10.37749 14.77967 -8.89042   0.596
 3.58 2.75 -2.728 -2.720 -2.706 -2.680 -2.645 10.57439 15.02975 -8.64035   0.748
 3.58 3.00 -2.560 -2.553 -2.540 -2.517 -2.485 10.76305 15.27989 -8.39019   0.929
 3.58 3.20 -2.429 -2.422 -2.410 -2.390 -2.361 10.90747 15.48008 -8.18997   1.097
 3.58 3.40 -2.300 -2.294 -2.284 -2.265 -2.239 11.04754 15.68036 -7.98962   1.289
 3.58 3.60 -2.174 -2.169 -2.159 -2.143 -2.119 11.18293 15.88076 -7.78918   1.507
 3.58 3.80 -2.049 -2.045 -2.037 -2.022 -2.002 11.31533 16.08143 -7.58854   1.754
 3.58 4.00 -1.927 -1.923 -1.916 -1.904 -1.885 11.44560 16.28240 -7.38764   2.038
 3.58 4.20 -1.806 -1.803 -1.797 -1.786 -1.769 11.57378 16.48405 -7.18597   2.362
 3.58 4.40 -1.686 -1.683 -1.678 -1.669 -1.654 11.70195 16.68662 -6.98338   2.737
 3.58 4.60 -1.568 -1.565 -1.561 -1.553 -1.540 11.83073 16.89037 -6.77963   3.175
 3.58 4.80 -1.451 -1.449 -1.445 -1.438 -1.427 11.96150 17.09619 -6.57390   3.691
 3.58 5.00 -1.336 -1.335 -1.331 -1.325 -1.315 12.09412 17.30406 -6.36613   4.301
 3.58 5.20 -1.225 -1.224 -1.221 -1.215 -1.207 12.23184 17.51553 -6.15465   5.040
 3.58 5.40 -1.118 -1.117 -1.115 -1.110 -1.102 12.37356 17.72982 -5.94032   5.932
 3.58 5.60 -1.018 -1.017 -1.014 -1.010 -1.003 12.52063 17.94817 -5.72192   7.026
 3.58 5.80 -0.924 -0.923 -0.921 -0.917 -0.910 12.67143 18.16858 -5.50145   8.359
 3.58 6.00 -0.837 -0.836 -0.834 -0.830 -0.824 12.82406 18.38917 -5.28084   9.965
 3.58 6.25 -0.738 -0.737 -0.736 -0.732 -0.726 13.01679 18.66502 -5.00496  12.441
 3.58 6.50 -0.651 -0.650 -0.648 -0.644 -0.639 13.20952 18.94086 -4.72909  15.531
 3.58 6.75 -0.574 -0.573 -0.572 -0.568 -0.563 13.39621 19.21225 -4.45775  19.254
 3.58 7.00 -0.507 -0.506 -0.504 -0.501 -0.496 13.57738 19.48044 -4.18963  23.719
 3.58 7.25 -0.448 -0.447 -0.445 -0.442 -0.437 13.75018 19.74492 -3.92524  28.940
 3.58 7.50 -0.396 -0.395 -0.393 -0.390 -0.385 13.91561 20.00647 -3.66374  35.012
 3.58 7.75 -0.350 -0.349 -0.347 -0.343 -0.338 14.07374 20.26561 -3.40458  42.003
 3.58 8.00 -0.307 -0.306 -0.304 -0.300 -0.294 14.22453 20.52218 -3.14795  49.965
 3.60-2.00 -3.601 -3.600 -3.598 -3.595 -3.591  6.95521 10.25935-13.41072   0.011
 3.60-1.50 -3.763 -3.762 -3.760 -3.757 -3.752  7.23249 10.75944-12.91080   0.016
 3.60-1.00 -3.901 -3.900 -3.897 -3.893 -3.887  7.52401 11.25959-12.41050   0.022
 3.60-0.50 -4.003 -4.001 -3.998 -3.992 -3.984  7.84011 11.75952-11.91045   0.031
 3.60 0.00 -4.048 -4.045 -4.041 -4.033 -4.022  8.19507 12.25959-11.41050   0.047
 3.60 0.50 -4.007 -4.003 -3.996 -3.985 -3.968  8.60021 12.75952-10.91045   0.075
 3.60 1.00 -3.850 -3.844 -3.834 -3.818 -3.794  9.05038 13.25959-10.41050   0.126
 3.60 1.25 -3.726 -3.720 -3.708 -3.688 -3.662  9.28654 13.50959-10.16047   0.166
 3.60 1.50 -3.576 -3.568 -3.556 -3.533 -3.503  9.52271 13.75959 -9.91045   0.218
 3.60 1.75 -3.406 -3.398 -3.384 -3.360 -3.327  9.75837 14.00959 -9.66047   0.286
 3.60 2.00 -3.221 -3.213 -3.198 -3.173 -3.138  9.99317 14.25959 -9.41050   0.374
 3.60 2.25 -3.032 -3.023 -3.009 -2.983 -2.949 10.22100 14.50962 -9.16049   0.486
 3.60 2.50 -2.839 -2.831 -2.816 -2.791 -2.757 10.44264 14.75967 -8.91045   0.628
 3.60 2.75 -2.650 -2.642 -2.629 -2.605 -2.573 10.65623 15.00974 -8.66036   0.803
 3.60 3.00 -2.464 -2.457 -2.444 -2.422 -2.391 10.86189 15.25983 -8.41027   1.017
 3.60 3.20 -2.319 -2.313 -2.301 -2.281 -2.253 11.02019 15.45992 -8.21020   1.220
 3.60 3.40 -2.178 -2.172 -2.162 -2.143 -2.117 11.17320 15.66005 -8.01013   1.456
 3.60 3.60 -2.041 -2.036 -2.026 -2.009 -1.985 11.32057 15.86026 -7.80997   1.725
 3.60 3.80 -1.908 -1.903 -1.895 -1.879 -1.858 11.46296 16.06067 -7.60955   2.032
 3.60 4.00 -1.778 -1.774 -1.766 -1.753 -1.733 11.60097 16.26126 -7.40894   2.382
 3.60 4.20 -1.651 -1.648 -1.641 -1.629 -1.612 11.73433 16.46212 -7.20806   2.777
 3.60 4.40 -1.527 -1.524 -1.519 -1.508 -1.492 11.86568 16.66343 -7.00672   3.230
 3.60 4.60 -1.406 -1.403 -1.398 -1.389 -1.375 11.99480 16.86538 -6.80472   3.748
 3.60 4.80 -1.286 -1.284 -1.280 -1.272 -1.260 12.12322 17.06864 -6.60140   4.345
 3.60 5.00 -1.170 -1.168 -1.164 -1.158 -1.147 12.25164 17.27323 -6.39675   5.037
 3.60 5.20 -1.056 -1.055 -1.052 -1.046 -1.036 12.38196 17.48039 -6.18967   5.853
 3.60 5.40 -0.946 -0.945 -0.943 -0.937 -0.929 12.51426 17.69016 -5.98000   6.816
 3.60 5.60 -0.842 -0.841 -0.839 -0.834 -0.826 12.64991 17.90341 -5.76674   7.969
 3.60 5.80 -0.744 -0.743 -0.741 -0.736 -0.729 12.79000 18.11990 -5.55016   9.363
 3.60 6.00 -0.652 -0.651 -0.649 -0.645 -0.638 12.93354 18.33866 -5.33134  11.046
 3.60 6.25 -0.547 -0.546 -0.544 -0.540 -0.534 13.11987 18.61549 -5.05457  13.689
 3.60 6.50 -0.452 -0.451 -0.449 -0.445 -0.439 13.30621 18.89232 -4.77780  16.965
 3.60 6.75 -0.367 -0.366 -0.364 -0.360 -0.354 13.49241 19.16707 -4.50304  21.021
 3.60 7.00 -0.291 -0.290 -0.288 -0.285 -0.279 13.67834 19.43965 -4.23040  26.037
 3.60 7.25 -0.225 -0.224 -0.223 -0.219 -0.213 13.85659 19.70797 -3.96207  31.971
 3.60 7.50 -0.168 -0.167 -0.165 -0.161 -0.155 14.02857 19.97304 -3.69702  38.976
 3.60 7.75 -0.117 -0.116 -0.114 -0.110 -0.104 14.19269 20.23513 -3.43494  47.079
 3.60 8.00 -0.073 -0.072 -0.069 -0.065 -0.059 14.34947 20.49415 -3.17594  56.381
 3.62-2.00 -3.282 -3.281 -3.279 -3.276 -3.271  7.31681 10.23905-13.43098   0.017
 3.62-1.50 -3.468 -3.467 -3.465 -3.461 -3.455  7.58081 10.73926-12.93070   0.023
 3.62-1.00 -3.636 -3.635 -3.632 -3.628 -3.622  7.85058 11.23930-12.43074   0.031
 3.62-0.50 -3.778 -3.776 -3.773 -3.768 -3.760  8.13033 11.73941-11.93070   0.043
 3.62 0.00 -3.876 -3.873 -3.870 -3.863 -3.853  8.42846 12.23955-11.43063   0.060
 3.62 0.50 -3.899 -3.896 -3.891 -3.881 -3.868  8.75679 12.73949-10.93070   0.088
 3.62 1.00 -3.806 -3.802 -3.795 -3.782 -3.764  9.13001 13.23955-10.43051   0.135
 3.62 1.25 -3.707 -3.702 -3.694 -3.679 -3.659  9.33669 13.48952-10.18061   0.171
 3.62 1.50 -3.575 -3.569 -3.560 -3.543 -3.520  9.55364 13.73949 -9.93070   0.220
 3.62 1.75 -3.413 -3.407 -3.396 -3.378 -3.352  9.78148 13.98952 -9.68061   0.287
 3.62 2.00 -3.229 -3.222 -3.211 -3.191 -3.163 10.01199 14.23955 -9.43051   0.374
 3.62 2.25 -3.030 -3.024 -3.012 -2.991 -2.962 10.24434 14.48957 -9.18061   0.488
 3.62 2.50 -2.825 -2.818 -2.805 -2.784 -2.755 10.47669 14.73957 -8.93070   0.638
 3.62 2.75 -2.619 -2.612 -2.600 -2.579 -2.550 10.70323 14.98956 -8.68055   0.828
 3.62 3.00 -2.415 -2.408 -2.396 -2.376 -2.347 10.92438 15.23955 -8.43039   1.068
 3.62 3.20 -2.256 -2.250 -2.239 -2.219 -2.192 11.09544 15.43962 -8.23037   1.301
 3.62 3.40 -2.101 -2.095 -2.084 -2.066 -2.040 11.26148 15.63974 -8.03034   1.575
 3.62 3.60 -1.950 -1.945 -1.935 -1.917 -1.893 11.42222 15.83988 -7.83026   1.895
 3.62 3.80 -1.804 -1.799 -1.790 -1.774 -1.752 11.57747 16.04006 -7.63003   2.265
 3.62 4.00 -1.662 -1.658 -1.650 -1.635 -1.614 11.72746 16.24030 -7.42969   2.692
 3.62 4.20 -1.525 -1.521 -1.514 -1.501 -1.482 11.87167 16.44079 -7.22924   3.178
 3.62 4.40 -1.392 -1.389 -1.383 -1.371 -1.354 12.01157 16.64159 -7.02855   3.733
 3.62 4.60 -1.263 -1.261 -1.255 -1.245 -1.230 12.14666 16.84274 -6.82748   4.362
 3.62 4.80 -1.138 -1.136 -1.131 -1.122 -1.109 12.27884 17.04460 -6.62559   5.079
 3.62 5.00 -1.016 -1.014 -1.010 -1.003 -0.991 12.40926 17.24724 -6.42285   5.902
 3.62 5.20 -0.898 -0.897 -0.893 -0.886 -0.876 12.53809 17.45143 -6.21860   6.846
 3.62 5.40 -0.784 -0.782 -0.780 -0.774 -0.764 12.66693 17.65750 -6.01246   7.941
 3.62 5.60 -0.675 -0.674 -0.671 -0.666 -0.657 12.79674 17.86615 -5.80378   9.222
 3.62 5.80 -0.572 -0.571 -0.568 -0.564 -0.556 12.92915 18.07811 -5.59184  10.739
 3.62 6.00 -0.475 -0.474 -0.472 -0.467 -0.460 13.06371 18.29292 -5.37706  12.537
 3.62 6.25 -0.364 -0.363 -0.361 -0.357 -0.350 13.23781 18.56722 -5.10287  15.320
 3.62 6.50 -0.264 -0.263 -0.261 -0.256 -0.250 13.41564 18.84273 -4.82740  18.802
 3.62 6.75 -0.173 -0.172 -0.170 -0.166 -0.160 13.59762 19.11903 -4.55107  23.184
 3.62 7.00 -0.092 -0.091 -0.089 -0.085 -0.079 13.77960 19.39533 -4.27474  28.588
 3.62 7.25 -0.021 -0.020 -0.018 -0.013 -0.007 13.95894 19.66748 -4.00257  35.143
 3.62 7.50  0.042  0.043  0.045  0.049  0.055 14.13513 19.93651 -3.73353  43.045
 3.62 7.75  0.097  0.098  0.100  0.105  0.111 14.30353 20.20193 -3.46811  52.257
 3.62 8.00  0.145  0.146  0.148  0.153  0.159 14.46568 20.46389 -3.20614  62.990
 3.64-2.00 -2.948 -2.946 -2.944 -2.940 -2.934  7.67505 10.21827-13.45173   0.025
 3.64-1.50 -3.151 -3.149 -3.147 -3.142 -3.136  7.93283 10.71883-12.95117   0.033
 3.64-1.00 -3.339 -3.338 -3.335 -3.330 -3.323  8.19340 11.21932-12.45087   0.045
 3.64-0.50 -3.506 -3.504 -3.501 -3.495 -3.487  8.45803 11.71933-11.95078   0.061
 3.64 0.00 -3.636 -3.634 -3.630 -3.623 -3.613  8.73014 12.21958-11.45063   0.083
 3.64 0.50 -3.703 -3.700 -3.695 -3.687 -3.675  9.01578 12.71950-10.95039   0.116
 3.64 1.00 -3.670 -3.666 -3.660 -3.650 -3.634  9.32469 13.21959-10.45051   0.165
 3.64 1.25 -3.606 -3.602 -3.595 -3.583 -3.566  9.49262 13.46958-10.20045   0.201
 3.64 1.50 -3.509 -3.504 -3.496 -3.483 -3.464  9.67117 13.71958 -9.95039   0.247
 3.64 1.75 -3.377 -3.372 -3.364 -3.349 -3.327  9.86317 13.96958 -9.70045   0.308
 3.64 2.00 -3.217 -3.211 -3.202 -3.186 -3.163 10.06670 14.21958 -9.45051   0.389
 3.64 2.25 -3.032 -3.026 -3.016 -2.999 -2.974 10.28322 14.46958 -9.20045   0.499
 3.64 2.50 -2.830 -2.824 -2.814 -2.796 -2.771 10.50569 14.71958 -8.95039   0.645
 3.64 2.75 -2.619 -2.613 -2.603 -2.584 -2.559 10.73339 14.96958 -8.70039   0.838
 3.64 3.00 -2.405 -2.399 -2.388 -2.369 -2.344 10.96109 15.21958 -8.45038   1.089
 3.64 3.20 -2.235 -2.229 -2.218 -2.200 -2.175 11.14036 15.41963 -8.25039   1.338
 3.64 3.40 -2.067 -2.061 -2.051 -2.033 -2.008 11.31691 15.61970 -8.05039   1.640
 3.64 3.60 -1.902 -1.897 -1.887 -1.870 -1.846 11.48962 15.81980 -7.85035   2.001
 3.64 3.80 -1.742 -1.737 -1.728 -1.712 -1.689 11.65694 16.01993 -7.65022   2.426
 3.64 4.00 -1.587 -1.582 -1.574 -1.558 -1.537 11.81941 16.22011 -7.45002   2.925
 3.64 4.20 -1.437 -1.433 -1.425 -1.411 -1.391 11.97609 16.42036 -7.24979   3.503
 3.64 4.40 -1.291 -1.288 -1.281 -1.268 -1.250 12.12759 16.62074 -7.04945   4.171
 3.64 4.60 -1.151 -1.148 -1.142 -1.131 -1.114 12.27355 16.82135 -6.84887   4.934
 3.64 4.80 -1.016 -1.014 -1.009 -0.999 -0.983 12.41479 17.02243 -6.64775   5.805
 3.64 5.00 -0.886 -0.884 -0.879 -0.870 -0.857 12.55194 17.22401 -6.44612   6.798
 3.64 5.20 -0.760 -0.758 -0.755 -0.747 -0.735 12.68450 17.42645 -6.24369   7.919
 3.64 5.40 -0.639 -0.637 -0.634 -0.628 -0.617 12.81581 17.63011 -6.04006   9.211
 3.64 5.60 -0.523 -0.522 -0.519 -0.513 -0.504 12.94583 17.83546 -5.83473  10.699
 3.64 5.80 -0.414 -0.413 -0.410 -0.405 -0.396 13.07552 18.04349 -5.62670  12.422
 3.64 6.00 -0.311 -0.310 -0.307 -0.302 -0.294 13.20520 18.25407 -5.41612  14.422
 3.64 6.25 -0.192 -0.191 -0.189 -0.184 -0.176 13.37107 18.52285 -5.14739  17.457
 3.64 6.50 -0.085 -0.084 -0.082 -0.077 -0.070 13.53996 18.79539 -4.87485  21.203
 3.64 6.75  0.009  0.010  0.013  0.017  0.024 13.71396 19.07214 -4.59798  25.905
 3.64 7.00  0.095  0.096  0.098  0.102  0.109 13.88885 19.34889 -4.32112  31.684
 3.64 7.25  0.170  0.171  0.173  0.178  0.185 14.06433 19.62390 -4.04612  38.779
 3.64 7.50  0.237  0.238  0.241  0.245  0.252 14.23980 19.89697 -3.77314  47.462
 3.64 7.75  0.296  0.297  0.300  0.305  0.312 14.40948 20.16588 -3.50425  57.702
 3.64 8.00  0.347  0.349  0.351  0.356  0.364 14.57530 20.43136 -3.23875  69.838
 3.66-2.00 -2.607 -2.605 -2.603 -2.598 -2.592  8.02449 10.19673-13.47340   0.036
 3.66-1.50 -2.823 -2.821 -2.818 -2.813 -2.806  8.27989 10.69793-12.97224   0.049
 3.66-1.00 -3.027 -3.025 -3.021 -3.016 -3.008  8.53605 11.19866-12.47147   0.065
 3.66-0.50 -3.211 -3.209 -3.205 -3.199 -3.189  8.79414 11.69906-11.97102   0.088
 3.66 0.00 -3.363 -3.360 -3.356 -3.348 -3.337  9.05538 12.19921-11.47083   0.119
 3.66 0.50 -3.456 -3.453 -3.448 -3.439 -3.426  9.32201 12.69940-10.97062   0.161
 3.66 1.00 -3.457 -3.454 -3.448 -3.437 -3.422  9.59912 13.19948-10.47057   0.222
 3.66 1.25 -3.416 -3.413 -3.406 -3.394 -3.378  9.74387 13.44949-10.22059   0.262
 3.66 1.50 -3.347 -3.343 -3.336 -3.323 -3.305  9.89426 13.69949 -9.97062   0.312
 3.66 1.75 -3.248 -3.244 -3.236 -3.222 -3.203 10.05244 13.94949 -9.72059   0.374
 3.66 2.00 -3.123 -3.119 -3.110 -3.095 -3.075 10.21959 14.19948 -9.47057   0.453
 3.66 2.25 -2.973 -2.967 -2.958 -2.943 -2.921 10.39871 14.44949 -9.22059   0.557
 3.66 2.50 -2.800 -2.795 -2.785 -2.769 -2.746 10.58917 14.69949 -8.97062   0.693
 3.66 2.75 -2.609 -2.603 -2.593 -2.576 -2.552 10.79303 14.94949 -8.72053   0.877
 3.66 3.00 -2.404 -2.398 -2.388 -2.370 -2.346 11.00518 15.19948 -8.47044   1.120
 3.66 3.20 -2.234 -2.228 -2.218 -2.200 -2.176 11.18191 15.39951 -8.27051   1.373
 3.66 3.40 -2.061 -2.055 -2.045 -2.028 -2.004 11.35864 15.59955 -8.07058   1.682
 3.66 3.60 -1.889 -1.883 -1.873 -1.856 -1.832 11.53494 15.79960 -7.87053   2.060
 3.66 3.80 -1.718 -1.713 -1.704 -1.687 -1.664 11.70965 15.99967 -7.67036   2.519
 3.66 4.00 -1.551 -1.546 -1.537 -1.521 -1.499 11.88281 16.19976 -7.47019   3.075
 3.66 4.20 -1.388 -1.383 -1.375 -1.360 -1.339 12.05036 16.39993 -7.27003   3.729
 3.66 4.40 -1.229 -1.225 -1.218 -1.204 -1.184 12.21335 16.60019 -7.06988   4.498
 3.66 4.60 -1.076 -1.073 -1.066 -1.053 -1.035 12.37126 16.80055 -6.86960   5.395
 3.66 4.80 -0.928 -0.925 -0.920 -0.908 -0.892 12.52373 17.00112 -6.66896   6.431
 3.66 5.00 -0.786 -0.783 -0.778 -0.768 -0.753 12.67117 17.20194 -6.46801   7.621
 3.66 5.20 -0.650 -0.648 -0.643 -0.635 -0.621 12.81293 17.40339 -6.26657   8.973
 3.66 5.40 -0.519 -0.517 -0.513 -0.506 -0.494 12.95103 17.60563 -6.06436  10.519
 3.66 5.60 -0.394 -0.393 -0.390 -0.383 -0.372 13.08490 17.80889 -5.86112  12.272
 3.66 5.80 -0.277 -0.276 -0.273 -0.267 -0.257 13.21677 18.01396 -5.65602  14.283
 3.66 6.00 -0.166 -0.164 -0.162 -0.156 -0.147 13.34792 18.22089 -5.44904  16.611
 3.66 6.25 -0.037 -0.036 -0.034 -0.028 -0.020 13.51125 18.48439 -5.18572  20.048
 3.66 6.50  0.078  0.079  0.082  0.087  0.095 13.67459 18.75236 -4.91793  24.195
 3.66 6.75  0.182  0.183  0.185  0.190  0.199 13.84141 19.02646 -4.64365  29.317
 3.66 7.00  0.273  0.274  0.276  0.282  0.290 14.00988 19.30190 -4.36815  35.591
 3.66 7.25  0.352  0.353  0.356  0.361  0.369 14.18016 19.57822 -4.09187  43.301
 3.66 7.50  0.422  0.423  0.426  0.431  0.439 14.35044 19.85455 -3.81559  52.682
 3.66 7.75  0.483  0.484  0.487  0.493  0.501 14.51798 20.12668 -3.54346  63.890
 3.66 8.00  0.537  0.538  0.541  0.546  0.555 14.68368 20.39602 -3.27409  77.316
 3.68-2.00 -2.267 -2.265 -2.263 -2.258 -2.251  8.35908 10.17290-13.49703   0.052
 3.68-1.50 -2.492 -2.490 -2.487 -2.482 -2.474  8.61395 10.67587-12.99439   0.070
 3.68-1.00 -2.707 -2.705 -2.701 -2.695 -2.686  8.86864 11.17754-12.49255   0.093
 3.68-0.50 -2.905 -2.902 -2.898 -2.891 -2.881  9.12385 11.67843-11.99183   0.125
 3.68 0.00 -3.073 -3.070 -3.065 -3.056 -3.044  9.38039 12.17898-11.49120   0.169
 3.68 0.50 -3.185 -3.181 -3.175 -3.166 -3.152  9.63909 12.67916-10.99097   0.227
 3.68 1.00 -3.207 -3.203 -3.197 -3.185 -3.169  9.90228 13.17927-10.49066   0.307
 3.68 1.25 -3.179 -3.174 -3.167 -3.155 -3.138 10.03659 13.42935-10.24059   0.359
 3.68 1.50 -3.124 -3.119 -3.112 -3.099 -3.080 10.17348 13.67943 -9.99055   0.420
 3.68 1.75 -3.044 -3.040 -3.032 -3.018 -2.998 10.31395 13.92950 -9.74053   0.494
 3.68 2.00 -2.943 -2.938 -2.930 -2.915 -2.894 10.45894 14.17955 -9.49053   0.583
 3.68 2.25 -2.822 -2.817 -2.808 -2.792 -2.770 10.61021 14.42954 -9.24054   0.694
 3.68 2.50 -2.683 -2.677 -2.668 -2.652 -2.630 10.76893 14.67952 -8.99055   0.833
 3.68 2.75 -2.526 -2.520 -2.511 -2.494 -2.471 10.93778 14.92953 -8.74054   1.012
 3.68 3.00 -2.353 -2.347 -2.337 -2.320 -2.297 11.11694 15.17955 -8.49053   1.244
 3.68 3.20 -2.203 -2.197 -2.187 -2.169 -2.146 11.26977 15.37957 -8.29054   1.483
 3.68 3.40 -2.044 -2.038 -2.028 -2.011 -1.987 11.42853 15.57959 -8.09055   1.781
 3.68 3.60 -1.879 -1.873 -1.864 -1.846 -1.822 11.59501 15.77966 -7.89049   2.157
 3.68 3.80 -1.710 -1.704 -1.695 -1.678 -1.654 11.76486 15.97975 -7.69038   2.624
 3.68 4.00 -1.539 -1.534 -1.525 -1.508 -1.485 11.93485 16.17984 -7.49026   3.191
 3.68 4.20 -1.368 -1.364 -1.355 -1.339 -1.317 12.10492 16.37993 -7.29021   3.881
 3.68 4.40 -1.200 -1.196 -1.188 -1.173 -1.152 12.27499 16.58002 -7.09015   4.720
 3.68 4.60 -1.036 -1.032 -1.025 -1.011 -0.991 12.44271 16.78016 -6.89001   5.725
 3.68 4.80 -0.875 -0.872 -0.866 -0.853 -0.835 12.60500 16.98049 -6.68964   6.901
 3.68 5.00 -0.720 -0.717 -0.712 -0.701 -0.684 12.76320 17.18099 -6.48905   8.280
 3.68 5.20 -0.572 -0.569 -0.564 -0.555 -0.540 12.91574 17.38183 -6.28815   9.869
 3.68 5.40 -0.428 -0.426 -0.422 -0.414 -0.401 13.06360 17.58318 -6.08677  11.700
 3.68 5.60 -0.293 -0.291 -0.288 -0.280 -0.268 13.20625 17.78516 -5.88480  13.789
 3.68 5.80 -0.166 -0.164 -0.161 -0.154 -0.143 13.34485 17.98836 -5.68167  16.176
 3.68 6.00 -0.044 -0.043 -0.040 -0.034 -0.023 13.48030 18.19285 -5.47729  18.906
 3.68 6.25  0.094  0.096  0.098  0.105  0.114 13.64519 18.45189 -5.21820  22.859
 3.68 6.50  0.222  0.224  0.226  0.232  0.242 13.80963 18.71492 -4.95507  27.622
 3.68 6.75  0.337  0.338  0.341  0.347  0.356 13.97381 18.98411 -4.68590  33.366
 3.68 7.00  0.438  0.439  0.442  0.447  0.456 14.13799 19.25696 -4.41308  40.304
 3.68 7.25  0.524  0.525  0.528  0.534  0.543 14.30339 19.53377 -4.13628  48.761
 3.68 7.50  0.598  0.599  0.602  0.608  0.617 14.46879 19.81057 -3.85949  58.992
 3.68 7.75  0.661  0.663  0.665  0.671  0.681 14.63249 20.08518 -3.58489  71.229
 3.68 8.00  0.716  0.717  0.720  0.727  0.736 14.79505 20.35832 -3.31176  85.891
 3.70-2.00 -1.933 -1.931 -1.929 -1.924 -1.916  8.67669 10.14520-13.52506   0.073
 3.70-1.50 -2.163 -2.162 -2.159 -2.153 -2.144  8.93440 10.65128-13.01877   0.099
 3.70-1.00 -2.385 -2.383 -2.380 -2.373 -2.363  9.18977 11.15503-12.51513   0.132
 3.70-0.50 -2.593 -2.591 -2.586 -2.579 -2.567  9.44420 11.65687-12.01318   0.177
 3.70 0.00 -2.774 -2.771 -2.765 -2.756 -2.743  9.69880 12.15806-11.51201   0.238
 3.70 0.50 -2.901 -2.897 -2.891 -2.881 -2.865  9.95415 12.65868-11.01140   0.319
 3.70 1.00 -2.941 -2.937 -2.930 -2.917 -2.899 10.21139 13.15897-10.51103   0.429
 3.70 1.25 -2.921 -2.916 -2.908 -2.895 -2.876 10.34109 13.40911-10.26092   0.498
 3.70 1.50 -2.875 -2.870 -2.862 -2.847 -2.827 10.47188 13.65925-10.01082   0.579
 3.70 1.75 -2.805 -2.800 -2.791 -2.776 -2.755 10.60433 13.90941 -9.76071   0.674
 3.70 2.00 -2.716 -2.711 -2.702 -2.686 -2.665 10.73886 14.15957 -9.51060   0.787
 3.70 2.25 -2.611 -2.606 -2.596 -2.580 -2.557 10.87632 14.40950 -9.26062   0.922
 3.70 2.50 -2.492 -2.487 -2.477 -2.460 -2.437 11.01745 14.65944 -9.01064   1.084
 3.70 2.75 -2.361 -2.355 -2.345 -2.328 -2.304 11.16364 14.90950 -8.76063   1.283
 3.70 3.00 -2.218 -2.212 -2.202 -2.184 -2.160 11.31597 15.15957 -8.51060   1.529
 3.70 3.20 -2.093 -2.087 -2.077 -2.059 -2.035 11.44388 15.35956 -8.31059   1.772
 3.70 3.40 -1.961 -1.955 -1.945 -1.927 -1.903 11.57758 15.55954 -8.11056   2.066
 3.70 3.60 -1.820 -1.814 -1.804 -1.786 -1.762 11.71804 15.75953 -7.91054   2.429
 3.70 3.80 -1.670 -1.665 -1.655 -1.637 -1.613 11.86539 15.95954 -7.71051   2.878
 3.70 4.00 -1.514 -1.508 -1.499 -1.481 -1.457 12.01870 16.15957 -7.51046   3.434
 3.70 4.20 -1.350 -1.345 -1.336 -1.319 -1.296 12.17980 16.35963 -7.31041   4.134
 3.70 4.40 -1.184 -1.179 -1.171 -1.155 -1.132 12.34256 16.55975 -7.11033   4.985
 3.70 4.60 -1.016 -1.012 -1.004 -0.989 -0.968 12.50695 16.75991 -6.91020   6.024
 3.70 4.80 -0.849 -0.845 -0.838 -0.825 -0.805 12.67173 16.96014 -6.70997   7.283
 3.70 5.00 -0.684 -0.681 -0.675 -0.663 -0.644 12.83651 17.16047 -6.50962   8.804
 3.70 5.20 -0.525 -0.522 -0.517 -0.506 -0.489 12.99672 17.36096 -6.30912  10.587
 3.70 5.40 -0.369 -0.367 -0.363 -0.353 -0.338 13.15342 17.56171 -6.10834  12.679
 3.70 5.60 -0.222 -0.220 -0.216 -0.208 -0.194 13.30570 17.76285 -5.90718  15.108
 3.70 5.80 -0.083 -0.081 -0.078 -0.070 -0.057 13.45308 17.96480 -5.70520  17.903
 3.70 6.00  0.049  0.051  0.054  0.061  0.073 13.59627 18.16761 -5.50238  21.113
 3.70 6.25  0.202  0.203  0.206  0.213  0.224 13.76899 18.42354 -5.24652  25.758
 3.70 6.50  0.343  0.344  0.347  0.354  0.365 13.93767 18.68260 -4.98758  31.279
 3.70 6.75  0.470  0.471  0.474  0.481  0.491 14.10298 18.94691 -4.72330  37.838
 3.70 7.00  0.583  0.584  0.587  0.594  0.604 14.26694 19.21564 -4.45457  45.699
 3.70 7.25  0.680  0.681  0.684  0.690  0.701 14.43040 19.49036 -4.17975  55.160
 3.70 7.50  0.762  0.763  0.766  0.773  0.783 14.59273 19.76597 -3.90413  66.492
 3.70 7.75  0.830  0.831  0.834  0.841  0.851 14.75326 20.04187 -3.62825  79.990
 3.70 8.00  0.887  0.888  0.891  0.898  0.909 14.91222 20.31827 -3.35193  96.055
 3.73-2.00 -1.451 -1.449 -1.447 -1.441 -1.433  9.10619 10.08636-13.58369   0.116
 3.73-1.50 -1.683 -1.681 -1.678 -1.672 -1.662  9.37767 10.60455-13.06550   0.159
 3.73-1.00 -1.909 -1.907 -1.903 -1.897 -1.886  9.64008 11.11528-12.55471   0.215
 3.73-0.50 -2.124 -2.121 -2.117 -2.110 -2.098  9.89768 11.62149-12.04861   0.289
 3.73 0.00 -2.316 -2.313 -2.308 -2.299 -2.285 10.15290 12.12516-11.54500   0.387
 3.73 0.50 -2.461 -2.458 -2.451 -2.440 -2.424 10.40705 12.62696-11.04311   0.519
 3.73 1.00 -2.524 -2.520 -2.512 -2.499 -2.480 10.66115 13.12808-10.54197   0.695
 3.73 1.25 -2.516 -2.511 -2.503 -2.488 -2.468 10.78841 13.37849-10.29162   0.805
 3.73 1.50 -2.481 -2.476 -2.467 -2.452 -2.430 10.91593 13.62880-10.04134   0.932
 3.73 1.75 -2.422 -2.417 -2.408 -2.392 -2.369 11.04396 13.87892 -9.79110   1.080
 3.73 2.00 -2.345 -2.339 -2.330 -2.313 -2.290 11.17260 14.12905 -9.54091   1.252
 3.73 2.25 -2.252 -2.247 -2.237 -2.220 -2.196 11.30206 14.37918 -9.29084   1.454
 3.73 2.50 -2.149 -2.143 -2.133 -2.115 -2.091 11.43265 14.62931 -9.04077   1.690
 3.73 2.75 -2.036 -2.030 -2.019 -2.001 -1.976 11.56496 14.87934 -8.79069   1.968
 3.73 3.00 -1.915 -1.910 -1.899 -1.881 -1.855 11.69940 15.12937 -8.54061   2.297
 3.73 3.20 -1.814 -1.808 -1.797 -1.779 -1.753 11.80905 15.32942 -8.34060   2.606
 3.73 3.40 -1.708 -1.702 -1.691 -1.673 -1.647 11.92106 15.52948 -8.14058   2.964
 3.73 3.60 -1.597 -1.591 -1.580 -1.562 -1.536 12.03570 15.72955 -7.94055   3.383
 3.73 3.80 -1.480 -1.474 -1.464 -1.445 -1.419 12.15406 15.92962 -7.74051   3.877
 3.73 4.00 -1.358 -1.352 -1.342 -1.323 -1.298 12.27623 16.12969 -7.54046   4.463
 3.73 4.20 -1.227 -1.222 -1.212 -1.194 -1.169 12.40372 16.32970 -7.34043   5.168
 3.73 4.40 -1.091 -1.085 -1.076 -1.059 -1.034 12.53639 16.52971 -7.14040   6.021
 3.73 4.60 -0.946 -0.941 -0.933 -0.916 -0.892 12.67511 16.72975 -6.94034   7.063
 3.73 4.80 -0.794 -0.790 -0.782 -0.767 -0.744 12.81933 16.92985 -6.74020   8.339
 3.73 5.00 -0.638 -0.635 -0.628 -0.614 -0.592 12.96797 17.13001 -6.54001   9.895
 3.73 5.20 -0.478 -0.475 -0.469 -0.456 -0.437 13.12243 17.33024 -6.33978  11.820
 3.73 5.40 -0.317 -0.315 -0.310 -0.298 -0.280 13.27688 17.53061 -6.13945  14.120
 3.73 5.60 -0.160 -0.157 -0.153 -0.143 -0.127 13.43124 17.73115 -5.93893  16.866
 3.73 5.80 -0.007 -0.005  0.000  0.008  0.023 13.58511 17.93213 -5.73797  20.135
 3.73 6.00  0.142  0.143  0.147  0.155  0.169 13.73847 18.13354 -5.53656  24.025
 3.73 6.25  0.313  0.315  0.318  0.326  0.340 13.92366 18.38658 -5.28350  29.735
 3.73 6.50  0.475  0.476  0.480  0.488  0.501 14.10380 18.64147 -5.02858  36.587
 3.73 6.75  0.622  0.624  0.628  0.635  0.648 14.27792 18.89981 -4.77025  44.707
 3.73 7.00  0.757  0.758  0.762  0.769  0.782 14.44762 19.16197 -4.50808  54.352
 3.73 7.25  0.874  0.876  0.879  0.887  0.899 14.61376 19.43004 -4.23988  65.810
 3.73 7.50  0.974  0.976  0.979  0.987  0.999 14.77648 19.70209 -3.96778  79.371
 3.73 7.75  1.056  1.058  1.061  1.069  1.081 14.93618 19.97714 -3.69282  95.391
 3.73 8.00  1.123  1.124  1.128  1.135  1.148 15.09272 20.25551 -3.41465 114.228
 3.76-2.00 -1.011 -1.010 -1.007 -1.001 -0.992  9.44979  9.98963-13.68048   0.166
 3.76-1.50 -1.228 -1.226 -1.223 -1.217 -1.207  9.75922 10.53186-13.13817   0.238
 3.76-1.00 -1.447 -1.446 -1.442 -1.436 -1.425 10.04336 11.05956-12.61030   0.330
 3.76-0.50 -1.660 -1.658 -1.654 -1.647 -1.635 10.31323 11.57657-12.09350   0.450
 3.76 0.00 -1.854 -1.851 -1.847 -1.838 -1.825 10.57473 12.08636-11.58353   0.608
 3.76 0.50 -2.007 -2.004 -1.999 -1.988 -1.972 10.83168 12.59218-11.07795   0.817
 3.76 1.00 -2.088 -2.084 -2.077 -2.064 -2.045 11.08636 13.09552-10.57463   1.096
 3.76 1.25 -2.092 -2.087 -2.079 -2.065 -2.045 11.21346 13.34651-10.32363   1.268
 3.76 1.50 -2.069 -2.064 -2.056 -2.041 -2.019 11.34044 13.59726-10.07289   1.468
 3.76 1.75 -2.023 -2.018 -2.009 -1.993 -1.970 11.46731 13.84785 -9.82231   1.699
 3.76 2.00 -1.956 -1.951 -1.942 -1.926 -1.902 11.59417 14.09830 -9.57187   1.966
 3.76 2.25 -1.874 -1.869 -1.860 -1.843 -1.818 11.72131 14.34854 -9.32152   2.276
 3.76 2.50 -1.781 -1.776 -1.766 -1.749 -1.724 11.84874 14.59879 -9.07125   2.635
 3.76 2.75 -1.679 -1.673 -1.663 -1.646 -1.621 11.97663 14.84906 -8.82104   3.053
 3.76 3.00 -1.570 -1.565 -1.555 -1.537 -1.511 12.10517 15.09934 -8.57089   3.541
 3.76 3.20 -1.479 -1.474 -1.464 -1.445 -1.419 12.20881 15.29934 -8.37083   3.989
 3.76 3.40 -1.385 -1.380 -1.370 -1.351 -1.325 12.31330 15.49934 -8.17077   4.499
 3.76 3.60 -1.288 -1.283 -1.273 -1.254 -1.228 12.41869 15.69934 -7.97070   5.079
 3.76 3.80 -1.188 -1.183 -1.173 -1.154 -1.127 12.52541 15.89934 -7.77064   5.743
 3.76 4.00 -1.085 -1.080 -1.070 -1.051 -1.024 12.63357 16.09934 -7.57057   6.505
 3.76 4.20 -0.977 -0.972 -0.962 -0.944 -0.917 12.74379 16.29942 -7.37055   7.385
 3.76 4.40 -0.866 -0.861 -0.851 -0.833 -0.807 12.85643 16.49951 -7.17054   8.408
 3.76 4.60 -0.749 -0.744 -0.735 -0.718 -0.692 12.97177 16.69958 -6.97049   9.601
 3.76 4.80 -0.626 -0.622 -0.613 -0.597 -0.572 13.09071 16.89963 -6.77038  11.011
 3.76 5.00 -0.499 -0.495 -0.487 -0.472 -0.448 13.21325 17.09968 -6.57025  12.679
 3.76 5.20 -0.364 -0.360 -0.353 -0.339 -0.317 13.34060 17.29982 -6.37012  14.681
 3.76 5.40 -0.223 -0.220 -0.214 -0.202 -0.181 13.47213 17.50006 -6.16996  17.081
 3.76 5.60 -0.080 -0.077 -0.072 -0.060 -0.042 13.60856 17.70040 -5.96971  19.986
 3.76 5.80  0.065  0.068  0.072  0.083  0.100 13.74864 17.90096 -5.76921  23.483
 3.76 6.00  0.213  0.215  0.220  0.229  0.245 13.89120 18.10175 -5.56848  27.672
 3.76 6.25  0.390  0.392  0.396  0.405  0.421 14.07263 18.35328 -5.31693  34.100
 3.76 6.50  0.563  0.565  0.569  0.578  0.593 14.25407 18.60574 -5.06439  42.021
 3.76 6.75  0.727  0.729  0.733  0.742  0.756 14.43318 18.86022 -4.80983  51.644
 3.76 7.00  0.881  0.883  0.887  0.896  0.910 14.60981 19.11727 -4.55269  63.289
 3.76 7.25  1.020  1.021  1.025  1.034  1.048 14.78167 19.37895 -4.29105  77.138
 3.76 7.50  1.142  1.144  1.148  1.156  1.171 14.94924 19.64503 -4.02503  93.555
 3.76 7.75  1.244  1.246  1.250  1.259  1.273 15.11221 19.91612 -3.75392 112.862
 3.76 8.00  1.328  1.330  1.334  1.342  1.356 15.27068 20.19201 -3.47795 135.447
 3.79-2.00 -0.686 -0.684 -0.681 -0.675 -0.665  9.64856  9.86273-13.80743   0.202
 3.79-1.50 -0.835 -0.833 -0.830 -0.824 -0.813 10.03623 10.41929-13.25081   0.316
 3.79-1.00 -1.020 -1.018 -1.015 -1.008 -0.998 10.37365 10.97202-12.69810   0.466
 3.79-0.50 -1.214 -1.212 -1.209 -1.202 -1.190 10.67532 11.51028-12.15977   0.659
 3.79 0.00 -1.397 -1.395 -1.391 -1.383 -1.370 10.95506 12.03503-11.63507   0.910
 3.79 0.50 -1.546 -1.543 -1.539 -1.529 -1.515 11.22220 12.54962-11.12045   1.237
 3.79 1.00 -1.634 -1.631 -1.625 -1.614 -1.596 11.48216 13.05805-10.61190   1.669
 3.79 1.25 -1.647 -1.644 -1.637 -1.624 -1.605 11.61054 13.31092-10.35909   1.935
 3.79 1.50 -1.637 -1.633 -1.626 -1.612 -1.592 11.73831 13.56313-10.10696   2.242
 3.79 1.75 -1.604 -1.600 -1.592 -1.578 -1.556 11.86560 13.81474 -9.85536   2.595
 3.79 2.00 -1.551 -1.547 -1.539 -1.524 -1.502 11.99264 14.06595 -9.60415   3.004
 3.79 2.25 -1.482 -1.478 -1.469 -1.454 -1.431 12.11946 14.31681 -9.35326   3.476
 3.79 2.50 -1.400 -1.396 -1.387 -1.371 -1.348 12.24625 14.56750 -9.10259   4.023
 3.79 2.75 -1.309 -1.304 -1.296 -1.280 -1.256 12.37304 14.81810 -8.85210   4.655
 3.79 3.00 -1.211 -1.206 -1.197 -1.181 -1.157 12.49982 15.06856 -8.60171   5.387
 3.79 3.20 -1.128 -1.123 -1.114 -1.098 -1.073 12.60153 15.26870 -8.40146   6.056
 3.79 3.40 -1.043 -1.038 -1.029 -1.012 -0.987 12.70350 15.46884 -8.20125   6.811
 3.79 3.60 -0.955 -0.950 -0.940 -0.923 -0.898 12.80580 15.66898 -8.00108   7.661
 3.79 3.80 -0.864 -0.859 -0.850 -0.832 -0.807 12.90864 15.86914 -7.80095   8.623
 3.79 4.00 -0.772 -0.767 -0.757 -0.739 -0.713 13.01199 16.06930 -7.60085   9.712
 3.79 4.20 -0.676 -0.671 -0.661 -0.643 -0.617 13.11593 16.26933 -7.40080  10.948
 3.79 4.40 -0.577 -0.573 -0.563 -0.545 -0.519 13.22073 16.46936 -7.20075  12.353
 3.79 4.60 -0.476 -0.471 -0.462 -0.445 -0.419 13.32663 16.66943 -7.00068  13.957
 3.79 4.80 -0.370 -0.366 -0.357 -0.340 -0.315 13.43417 16.86955 -6.80059  15.795
 3.79 5.00 -0.262 -0.258 -0.250 -0.234 -0.209 13.54332 17.06967 -6.60050  17.908
 3.79 5.20 -0.148 -0.144 -0.137 -0.122 -0.098 13.65450 17.26974 -6.40042  20.353
 3.79 5.40 -0.030 -0.027 -0.020 -0.006  0.014 13.76803 17.46981 -6.20033  23.196
 3.79 5.60  0.091  0.093  0.099  0.112  0.132 13.88424 17.66990 -6.00019  26.518
 3.79 5.80  0.216  0.218  0.223  0.235  0.254 14.00365 17.87011 -5.79989  30.428
 3.79 6.00  0.345  0.347  0.351  0.361  0.379 14.12613 18.07041 -5.59946  35.037
 3.79 6.25  0.502  0.504  0.509  0.519  0.536 14.28445 18.32122 -5.34869  42.041
 3.79 6.50  0.663  0.665  0.669  0.679  0.696 14.44700 18.57264 -5.09745  50.691
 3.79 6.75  0.824  0.825  0.830  0.840  0.856 14.61437 18.82515 -4.84504  61.465
 3.79 7.00  0.982  0.984  0.988  0.998  1.014 14.78233 19.07918 -4.59108  74.575
 3.79 7.25  1.132  1.134  1.138  1.148  1.164 14.95063 19.33589 -4.33428  90.514
 3.79 7.50  1.272  1.274  1.278  1.288  1.303 15.11893 19.59594 -4.07407 109.859
 3.79 7.75  1.394  1.396  1.400  1.410  1.425 15.28280 19.86153 -3.80849 132.674
 3.79 8.00  1.499  1.501  1.505  1.514  1.530 15.44373 20.13194 -3.53820 159.694
 3.82-2.00 -0.550 -0.548 -0.545 -0.538 -0.526  9.69819  9.77583-13.89415   0.207
 3.82-1.50 -0.593 -0.592 -0.588 -0.581 -0.569 10.16227 10.30363-13.36643   0.353
 3.82-1.00 -0.684 -0.682 -0.679 -0.671 -0.660 10.58377 10.85266-12.81730   0.573
 3.82-0.50 -0.816 -0.815 -0.811 -0.804 -0.793 10.95177 11.40993-12.26019   0.876
 3.82 0.00 -0.962 -0.960 -0.957 -0.950 -0.938 11.27439 11.95785-11.71220   1.269
 3.82 0.50 -1.090 -1.088 -1.084 -1.075 -1.062 11.56656 12.49080-11.17934   1.777
 3.82 1.00 -1.172 -1.169 -1.164 -1.154 -1.139 11.84086 13.01115-10.65876   2.437
 3.82 1.25 -1.188 -1.185 -1.180 -1.169 -1.152 11.97377 13.26806-10.40199   2.840
 3.82 1.50 -1.186 -1.183 -1.177 -1.165 -1.147 12.10483 13.52336-10.14679   3.302
 3.82 1.75 -1.165 -1.162 -1.155 -1.143 -1.124 12.23442 13.77723 -9.89283   3.834
 3.82 2.00 -1.126 -1.123 -1.116 -1.103 -1.083 12.36305 14.03020 -9.63979   4.446
 3.82 2.25 -1.072 -1.068 -1.061 -1.047 -1.027 12.49095 14.28250 -9.38748   5.151
 3.82 2.50 -1.004 -1.001 -0.993 -0.979 -0.958 12.61836 14.53428 -9.13573   5.965
 3.82 2.75 -0.926 -0.923 -0.915 -0.901 -0.880 12.74539 14.78562 -8.88439   6.904
 3.82 3.00 -0.841 -0.837 -0.829 -0.814 -0.793 12.87222 15.03663 -8.63339   7.990
 3.82 3.20 -0.767 -0.763 -0.755 -0.740 -0.719 12.97352 15.23725 -8.43284   8.979
 3.82 3.40 -0.690 -0.686 -0.678 -0.663 -0.641 13.07483 15.43775 -8.23238  10.090
 3.82 3.60 -0.611 -0.607 -0.599 -0.583 -0.560 13.17621 15.63811 -8.03198  11.339
 3.82 3.80 -0.529 -0.525 -0.516 -0.500 -0.477 13.27777 15.83839 -7.83162  12.744
 3.82 4.00 -0.445 -0.440 -0.432 -0.416 -0.392 13.37949 16.03862 -7.63134  14.326
 3.82 4.20 -0.357 -0.353 -0.345 -0.328 -0.304 13.48138 16.23882 -7.43123  16.109
 3.82 4.40 -0.269 -0.264 -0.256 -0.239 -0.214 13.58357 16.43900 -7.23112  18.122
 3.82 4.60 -0.177 -0.173 -0.164 -0.148 -0.123 13.68616 16.63915 -7.03101  20.395
 3.82 4.80 -0.082 -0.078 -0.070 -0.054 -0.029 13.78939 16.83930 -6.83089  22.969
 3.82 5.00  0.014  0.018  0.025  0.041  0.066 13.89326 17.03941 -6.63078  25.886
 3.82 5.20  0.115  0.119  0.126  0.141  0.165 13.99804 17.23948 -6.43069  29.203
 3.82 5.40  0.219  0.222  0.229  0.243  0.266 14.10386 17.43955 -6.23058  32.985
 3.82 5.60  0.326  0.329  0.335  0.348  0.369 14.21080 17.63962 -6.03046  37.306
 3.82 5.80  0.436  0.439  0.444  0.456  0.476 14.31925 17.83970 -5.83028  42.270
 3.82 6.00  0.549  0.551  0.556  0.566  0.585 14.42927 18.03981 -5.63004  47.982
 3.82 6.25  0.686  0.688  0.693  0.703  0.721 14.56972 18.29027 -5.37964  56.404
 3.82 6.50  0.827  0.829  0.833  0.843  0.861 14.71341 18.54108 -5.12901  66.549
 3.82 6.75  0.969  0.971  0.976  0.986  1.004 14.86098 18.79241 -4.87774  78.864
 3.82 7.00  1.114  1.116  1.120  1.131  1.148 15.01157 19.04454 -4.62562  93.787
 3.82 7.25  1.258  1.260  1.264  1.274  1.291 15.16562 19.29817 -4.37198 111.994
 3.82 7.50  1.398  1.400  1.405  1.415  1.432 15.32036 19.55388 -4.11623 133.839
 3.82 7.75  1.529  1.531  1.535  1.545  1.562 15.47535 19.81386 -3.85620 159.989
 3.82 8.00  1.648  1.650  1.654  1.664  1.680 15.63073 20.07737 -3.59261 191.332
 3.85-2.00 -0.521 -0.519 -0.516 -0.508 -0.495  9.68458  9.73167-13.93855   0.197
 3.85-1.50 -0.517 -0.515 -0.511 -0.502 -0.488 10.17696 10.23830-13.43180   0.347
 3.85-1.00 -0.519 -0.517 -0.513 -0.505 -0.491 10.65543 10.75626-12.91364   0.601
 3.85-0.50 -0.544 -0.542 -0.538 -0.530 -0.518 11.10209 11.29425-12.37582   1.006
 3.85 0.00 -0.601 -0.599 -0.595 -0.588 -0.576 11.49859 11.84967-11.82045   1.588
 3.85 0.50 -0.670 -0.668 -0.664 -0.657 -0.645 11.84367 12.40415-11.26600   2.362
 3.85 1.00 -0.720 -0.718 -0.714 -0.705 -0.692 12.15045 12.94507-10.72492   3.362
 3.85 1.25 -0.730 -0.728 -0.723 -0.714 -0.700 12.29391 13.20984-10.46017   3.966
 3.85 1.50 -0.728 -0.725 -0.720 -0.710 -0.695 12.43297 13.47159-10.19846   4.655
 3.85 1.75 -0.712 -0.709 -0.704 -0.694 -0.678 12.56855 13.73070 -9.93939   5.442
 3.85 2.00 -0.683 -0.680 -0.674 -0.664 -0.647 12.70165 13.98776 -9.68235   6.343
 3.85 2.25 -0.641 -0.638 -0.633 -0.621 -0.604 12.83282 14.24302 -9.42703   7.377
 3.85 2.50 -0.589 -0.585 -0.579 -0.568 -0.550 12.96261 14.49707 -9.17295   8.565
 3.85 2.75 -0.526 -0.523 -0.517 -0.504 -0.486 13.09135 14.75022 -8.91989   9.933
 3.85 3.00 -0.455 -0.452 -0.445 -0.433 -0.414 13.21932 15.00260 -8.66756  11.510
 3.85 3.20 -0.392 -0.389 -0.383 -0.370 -0.351 13.32118 15.20398 -8.46614  12.943
 3.85 3.40 -0.326 -0.323 -0.316 -0.303 -0.283 13.42286 15.40510 -8.26498  14.551
 3.85 3.60 -0.257 -0.254 -0.247 -0.233 -0.213 13.52436 15.60599 -8.06407  16.354
 3.85 3.80 -0.184 -0.181 -0.174 -0.160 -0.139 13.62580 15.80673 -7.86333  18.380
 3.85 4.00 -0.109 -0.106 -0.099 -0.084 -0.063 13.72722 16.00732 -7.66274  20.656
 3.85 4.20 -0.031 -0.028 -0.020 -0.006  0.015 13.82862 16.20773 -7.46230  23.214
 3.85 4.40  0.048  0.051  0.059  0.074  0.097 13.93003 16.40810 -7.26194  26.089
 3.85 4.60  0.130  0.134  0.142  0.157  0.180 14.03153 16.60844 -7.06163  29.323
 3.85 4.80  0.216  0.220  0.227  0.242  0.265 14.13329 16.80875 -6.86136  32.967
 3.85 5.00  0.304  0.307  0.314  0.329  0.352 14.23528 17.00903 -6.66115  37.074
 3.85 5.20  0.395  0.398  0.405  0.420  0.442 14.33761 17.20910 -6.46102  41.710
 3.85 5.40  0.489  0.492  0.498  0.512  0.534 14.44038 17.40917 -6.26090  46.948
 3.85 5.60  0.586  0.588  0.594  0.607  0.628 14.54365 17.60924 -6.06078  52.876
 3.85 5.80  0.685  0.687  0.693  0.705  0.725 14.64764 17.80934 -5.86066  59.601
 3.85 6.00  0.787  0.789  0.793  0.804  0.823 14.75236 18.00945 -5.66055  67.237
 3.85 6.25  0.911  0.913  0.917  0.928  0.946 14.88451 18.25972 -5.41029  78.295
 3.85 6.50  1.038  1.040  1.044  1.054  1.072 15.01829 18.51014 -5.15989  91.344
 3.85 6.75  1.165  1.167  1.172  1.182  1.200 15.15427 18.76086 -4.90923 106.820
 3.85 7.00  1.295  1.297  1.302  1.312  1.330 15.29226 19.01199 -4.65817 125.200
 3.85 7.25  1.427  1.429  1.433  1.443  1.461 15.43251 19.26380 -4.40638 147.135
 3.85 7.50  1.559  1.560  1.565  1.575  1.592 15.57415 19.51667 -4.15348 173.190
 3.85 7.75  1.686  1.688  1.692  1.702  1.719 15.71668 19.77217 -3.89790 204.070
 3.85 8.00  1.808  1.810  1.814  1.824  1.840 15.86028 20.02979 -3.64016 240.750
 3.88-2.00 -0.521 -0.520 -0.516 -0.509 -0.497  9.65753  9.69897-13.97102   0.184
 3.88-1.50 -0.507 -0.505 -0.500 -0.491 -0.477 10.15594 10.20030-13.46980   0.327
 3.88-1.00 -0.482 -0.479 -0.475 -0.465 -0.448 10.65138 10.70449-12.96577   0.578
 3.88-0.50 -0.443 -0.440 -0.436 -0.426 -0.410 11.13767 11.21617-12.45383   1.012
 3.88 0.00 -0.395 -0.393 -0.388 -0.380 -0.366 11.60097 11.74461-11.92555   1.725
 3.88 0.50 -0.355 -0.353 -0.349 -0.341 -0.329 12.02119 12.29403-11.37613   2.799
 3.88 1.00 -0.326 -0.324 -0.320 -0.312 -0.300 12.38828 12.85114-10.81901   4.271
 3.88 1.25 -0.311 -0.309 -0.305 -0.297 -0.284 12.55362 13.12634-10.54376   5.167
 3.88 1.50 -0.292 -0.290 -0.286 -0.277 -0.264 12.70995 13.39863-10.27140   6.186
 3.88 1.75 -0.268 -0.266 -0.262 -0.253 -0.240 12.85862 13.66670-10.00337   7.341
 3.88 2.00 -0.238 -0.236 -0.232 -0.223 -0.209 13.00173 13.93136 -9.73874   8.656
 3.88 2.25 -0.202 -0.200 -0.195 -0.186 -0.171 13.14036 14.19265 -9.47739  10.153
 3.88 2.50 -0.159 -0.156 -0.151 -0.142 -0.127 13.27577 14.45148 -9.21853  11.866
 3.88 2.75 -0.108 -0.106 -0.101 -0.091 -0.075 13.40863 14.70831 -8.96182  13.828
 3.88 3.00 -0.051 -0.049 -0.044 -0.033 -0.017 13.53970 14.96355 -8.70664  16.080
 3.88 3.20 -0.001  0.000  0.006  0.017  0.033 13.64353 15.16674 -8.50338  18.121
 3.88 3.40  0.052  0.055  0.060  0.072  0.089 13.74673 15.36934 -8.30072  20.406
 3.88 3.60  0.110  0.113  0.119  0.130  0.148 13.84934 15.57139 -8.09867  22.964
 3.88 3.80  0.171  0.174  0.180  0.192  0.210 13.95156 15.77308 -7.89703  25.833
 3.88 4.00  0.236  0.239  0.245  0.257  0.276 14.05346 15.97442 -7.69573  29.049
 3.88 4.20  0.303  0.306  0.313  0.325  0.345 14.15499 16.17548 -7.49469  32.655
 3.88 4.40  0.373  0.376  0.383  0.396  0.416 14.25652 16.37634 -7.29384  36.705
 3.88 4.60  0.446  0.449  0.456  0.469  0.490 14.35805 16.57699 -7.09314  41.255
 3.88 4.80  0.522  0.525  0.532  0.545  0.566 14.45957 16.77752 -6.89254  46.367
 3.88 5.00  0.600  0.603  0.610  0.623  0.645 14.56110 16.97795 -6.69208  52.112
 3.88 5.20  0.682  0.685  0.691  0.704  0.726 14.66271 17.17830 -6.49179  58.578
 3.88 5.40  0.766  0.769  0.775  0.788  0.808 14.76442 17.37859 -6.29155  65.857
 3.88 5.60  0.853  0.855  0.861  0.873  0.894 14.86632 17.57880 -6.09136  74.057
 3.88 5.80  0.943  0.945  0.950  0.962  0.982 14.96857 17.77897 -5.89119  83.312
 3.88 6.00  1.035  1.037  1.042  1.053  1.071 15.07115 17.97914 -5.69101  93.758
 3.88 6.25  1.150  1.152  1.156  1.166  1.185 15.20006 18.22935 -5.44077 108.757
 3.88 6.50  1.267  1.269  1.273  1.283  1.301 15.32981 18.47958 -5.19051 126.273
 3.88 6.75  1.384  1.386  1.390  1.400  1.418 15.46058 18.72990 -4.94018 146.790
 3.88 7.00  1.503  1.505  1.509  1.519  1.537 15.59240 18.98037 -4.68973 170.848
 3.88 7.25  1.625  1.627  1.631  1.641  1.658 15.72551 19.23116 -4.43893 199.144
 3.88 7.50  1.748  1.750  1.754  1.764  1.781 15.85944 19.48244 -4.18762 232.348
 3.88 7.75  1.871  1.872  1.876  1.886  1.903 15.99392 19.73505 -3.93499 271.269
 3.88 8.00  1.991  1.993  1.997  2.006  2.022 16.12905 19.98869 -3.68131 316.951
 3.91-2.00 -0.527 -0.526 -0.523 -0.517 -0.507  9.62808  9.66848-14.00161   0.172
 3.91-1.50 -0.513 -0.511 -0.508 -0.499 -0.486 10.12775 10.16879-13.50128   0.306
 3.91-1.00 -0.486 -0.484 -0.479 -0.469 -0.452 10.62675 10.66969-13.00039   0.543
 3.91-0.50 -0.434 -0.431 -0.426 -0.414 -0.396 11.12353 11.17231-12.49757   0.962
 3.91 0.00 -0.344 -0.341 -0.336 -0.325 -0.307 11.61426 11.68070-11.98928   1.693
 3.91 0.50 -0.214 -0.212 -0.207 -0.197 -0.182 12.08778 12.20194-11.46801   2.920
 3.91 1.00 -0.067 -0.065 -0.061 -0.052 -0.039 12.52556 12.74453-10.92555   4.833
 3.91 1.25  0.000  0.002  0.006  0.014  0.027 12.72482 13.02289-10.64721   6.079
 3.91 1.50  0.063  0.065  0.069  0.076  0.089 12.91137 13.30125-10.36886   7.535
 3.91 1.75  0.117  0.119  0.123  0.131  0.144 13.08457 13.57826-10.09183   9.199
 3.91 2.00  0.168  0.170  0.174  0.182  0.194 13.24748 13.85358 -9.81645  11.097
 3.91 2.25  0.214  0.216  0.220  0.228  0.241 13.40135 14.12419 -9.54580  13.246
 3.91 2.50  0.261  0.263  0.267  0.275  0.288 13.54851 14.39129 -9.27868  15.691
 3.91 2.75  0.307  0.309  0.314  0.322  0.336 13.69018 14.65482 -9.01516  18.471
 3.91 3.00  0.357  0.359  0.363  0.372  0.386 13.82789 14.91551 -8.75449  21.645
 3.91 3.20  0.398  0.401  0.405  0.414  0.429 13.93570 15.12215 -8.54785  24.507
 3.91 3.40  0.443  0.445  0.450  0.459  0.474 14.04213 15.32762 -8.34239  27.702
 3.91 3.60  0.490  0.492  0.497  0.507  0.522 14.14726 15.53198 -8.13805  31.266
 3.91 3.80  0.540  0.543  0.548  0.558  0.574 14.25155 15.73556 -7.93449  35.254
 3.91 4.00  0.593  0.596  0.601  0.612  0.628 14.35507 15.93842 -7.73166  39.715
 3.91 4.20  0.650  0.652  0.658  0.668  0.685 14.45794 16.14068 -7.52944  44.708
 3.91 4.40  0.709  0.711  0.717  0.728  0.746 14.56042 16.34251 -7.32763  50.307
 3.91 4.60  0.771  0.774  0.779  0.791  0.809 14.66251 16.54393 -7.12617  56.582
 3.91 4.80  0.836  0.839  0.844  0.856  0.874 14.76441 16.74509 -6.92496  63.626
 3.91 5.00  0.904  0.906  0.912  0.924  0.943 14.86617 16.94601 -6.72400  71.536
 3.91 5.20  0.975  0.977  0.983  0.994  1.014 14.96780 17.14676 -6.52332  80.417
 3.91 5.40  1.048  1.051  1.056  1.068  1.087 15.06943 17.34737 -6.32274  90.401
 3.91 5.60  1.125  1.128  1.133  1.144  1.163 15.17112 17.54784 -6.12225 101.628
 3.91 5.80  1.205  1.208  1.212  1.223  1.242 15.27296 17.74822 -5.92182 114.266
 3.91 6.00  1.289  1.290  1.295  1.305  1.323 15.37493 17.94851 -5.72148 128.491
 3.91 6.25  1.393  1.395  1.399  1.409  1.426 15.50265 18.19876 -5.47126 148.845
 3.91 6.50  1.501  1.503  1.507  1.516  1.533 15.63073 18.44901 -5.22105 172.502
 3.91 6.75  1.609  1.611  1.615  1.624  1.641 15.75945 18.69929 -4.97082 200.056
 3.91 7.00  1.720  1.721  1.725  1.735  1.751 15.88874 18.94959 -4.72056 232.166
 3.91 7.25  1.833  1.835  1.839  1.848  1.865 16.01874 19.19994 -4.47020 269.659
 3.91 7.50  1.949  1.951  1.955  1.964  1.980 16.14922 19.45040 -4.21968 313.374
 3.91 7.75  2.067  2.068  2.072  2.081  2.097 16.28005 19.70136 -3.96871 364.309
 3.91 8.00  2.185  2.187  2.190  2.199  2.214 16.41128 19.95270 -3.71738 423.700
 3.94-2.00 -0.531 -0.530 -0.528 -0.523 -0.516  9.59846  9.63809-14.03198   0.161
 3.94-1.50 -0.521 -0.520 -0.517 -0.510 -0.499 10.09830 10.13830-13.53180   0.285
 3.94-1.00 -0.499 -0.498 -0.493 -0.484 -0.469 10.59791 10.63859-13.03147   0.507
 3.94-0.50 -0.453 -0.450 -0.445 -0.434 -0.415 11.09726 11.13925-12.53077   0.901
 3.94 0.00 -0.361 -0.358 -0.352 -0.339 -0.319 11.59484 11.64137-12.02872   1.599
 3.94 0.50 -0.206 -0.203 -0.197 -0.185 -0.166 12.08778 12.14737-11.52259   2.821
 3.94 1.00  0.013  0.015  0.021  0.031  0.048 12.56785 12.66427-11.00582   4.901
 3.94 1.25  0.137  0.140  0.144  0.154  0.170 12.79733 12.93007-10.74003   6.383
 3.94 1.50  0.261  0.263  0.268  0.277  0.292 13.01745 13.20058-10.46954   8.226
 3.94 1.75  0.375  0.376  0.381  0.389  0.403 13.22425 13.47777-10.19249  10.437
 3.94 2.00  0.474  0.476  0.480  0.489  0.502 13.41847 13.75519 -9.91507  13.051
 3.94 2.25  0.557  0.559  0.563  0.571  0.584 13.59851 14.03273 -9.63744  16.057
 3.94 2.50  0.628  0.630  0.634  0.642  0.655 13.76730 14.31027 -9.35982  19.501
 3.94 2.75  0.689  0.690  0.694  0.702  0.715 13.92578 14.58303 -9.08712  23.405
 3.94 3.00  0.744  0.746  0.750  0.758  0.771 14.07664 14.85236 -8.81787  27.844
 3.94 3.20  0.786  0.787  0.791  0.800  0.813 14.19264 15.06484 -8.60533  31.821
 3.94 3.40  0.827  0.829  0.833  0.841  0.855 14.30572 15.27534 -8.39477  36.245
 3.94 3.60  0.868  0.870  0.874  0.883  0.897 14.41601 15.48389 -8.18617  41.152
 3.94 3.80  0.911  0.913  0.917  0.926  0.940 14.52445 15.69094 -7.97910  46.625
 3.94 4.00  0.955  0.957  0.962  0.971  0.986 14.63124 15.89664 -7.77340  52.725
 3.94 4.20  1.002  1.004  1.008  1.018  1.033 14.73671 16.10114 -7.56890  59.533
 3.94 4.40  1.051  1.053  1.057  1.067  1.083 14.84130 16.30483 -7.36522  67.151
 3.94 4.60  1.102  1.104  1.109  1.119  1.135 14.94505 16.50777 -7.16229  75.669
 3.94 4.80  1.156  1.158  1.163  1.173  1.190 15.04829 16.71019 -6.95987  85.217
 3.94 5.00  1.213  1.215  1.220  1.230  1.247 15.15106 16.91212 -6.75796  95.920
 3.94 5.20  1.273  1.275  1.280  1.290  1.308 15.25344 17.11360 -6.55646 107.918
 3.94 5.40  1.336  1.338  1.343  1.353  1.370 15.35566 17.31481 -6.35526 121.397
 3.94 5.60  1.403  1.405  1.409  1.419  1.436 15.45771 17.51577 -6.15435 136.533
 3.94 5.80  1.473  1.474  1.479  1.488  1.505 15.55972 17.71657 -5.95361 153.549
 3.94 6.00  1.546  1.547  1.551  1.560  1.577 15.66172 17.91719 -5.75301 172.686
 3.94 6.25  1.639  1.641  1.645  1.654  1.669 15.78933 18.16771 -5.50238 200.019
 3.94 6.50  1.737  1.739  1.742  1.751  1.766 15.91709 18.41814 -5.25189 231.714
 3.94 6.75  1.835  1.837  1.840  1.849  1.864 16.04526 18.66853 -5.00158 268.547
 3.94 7.00  1.937  1.939  1.942  1.951  1.966 16.17377 18.91887 -4.75129 311.358
 3.94 7.25  2.043  2.045  2.048  2.056  2.071 16.30265 19.16908 -4.50101 361.189
 3.94 7.50  2.152  2.154  2.157  2.165  2.180 16.43185 19.41929 -4.25073 419.144
 3.94 7.75  2.264  2.266  2.269  2.277  2.291 16.56132 19.66964 -4.00041 486.523
 3.94 8.00  2.379  2.380  2.383  2.391  2.404 16.69108 19.92007 -3.75007 564.896
 3.97-2.00 -0.529 -0.528 -0.526 -0.523 -0.517  9.57019  9.60649-14.06359   0.150
 3.97-1.50 -0.525 -0.524 -0.522 -0.516 -0.508 10.06893 10.10755-13.56241   0.267
 3.97-1.00 -0.511 -0.509 -0.506 -0.498 -0.486 10.56820 10.60831-13.06178   0.474
 3.97-0.50 -0.476 -0.473 -0.469 -0.459 -0.442 11.06781 11.10857-12.56146   0.842
 3.97 0.00 -0.398 -0.395 -0.389 -0.377 -0.356 11.56714 11.60927-12.06078   1.496
 3.97 0.50 -0.251 -0.248 -0.241 -0.227 -0.205 12.06521 12.11093-11.55909   2.655
 3.97 1.00 -0.018 -0.015 -0.009  0.004  0.026 12.55955 12.61606-11.05399   4.690
 3.97 1.25  0.128  0.130  0.137  0.149  0.170 12.80318 12.87155-10.79855   6.209
 3.97 1.50  0.290  0.292  0.298  0.310  0.329 13.04297 13.13001-10.54016   8.183
 3.97 1.75  0.455  0.458  0.463  0.474  0.492 13.27593 13.39361-10.27654  10.700
 3.97 2.00  0.615  0.618  0.622  0.633  0.649 13.50065 13.66191-10.00820  13.859
 3.97 2.25  0.758  0.760  0.765  0.774  0.790 13.71265 13.93673 -9.73326  17.690
 3.97 2.50  0.882  0.884  0.888  0.897  0.911 13.91238 14.21352 -9.45643  22.264
 3.97 2.75  0.982  0.984  0.988  0.996  1.010 14.09778 14.49178 -9.17820  27.560
 3.97 3.00  1.065  1.067  1.071  1.080  1.093 14.27138 14.77004 -8.89997  33.656
 3.97 3.20  1.121  1.123  1.127  1.135  1.149 14.40192 14.98954 -8.68046  39.115
 3.97 3.40  1.171  1.173  1.177  1.185  1.199 14.52712 15.20698 -8.46302  45.180
 3.97 3.60  1.217  1.219  1.223  1.231  1.245 14.64711 15.42204 -8.24797  51.875
 3.97 3.80  1.260  1.262  1.266  1.274  1.288 14.76348 15.63471 -8.03533  59.313
 3.97 4.00  1.302  1.304  1.308  1.316  1.330 14.87662 15.84528 -7.82478  67.566
 3.97 4.20  1.344  1.345  1.349  1.358  1.372 14.98716 16.05379 -7.61627  76.735
 3.97 4.40  1.386  1.388  1.392  1.400  1.415 15.09587 16.26083 -7.40924  86.963
 3.97 4.60  1.430  1.432  1.435  1.444  1.459 15.20281 16.46647 -7.20363  98.358
 3.97 4.80  1.475  1.477  1.481  1.490  1.505 15.30864 16.67112 -6.99903 111.103
 3.97 5.00  1.523  1.525  1.529  1.538  1.553 15.41347 16.87483 -6.79534 125.356
 3.97 5.20  1.574  1.575  1.579  1.588  1.603 15.51749 17.07775 -6.59239 141.306
 3.97 5.40  1.627  1.629  1.633  1.641  1.656 15.62105 17.28013 -6.38997 159.199
 3.97 5.60  1.683  1.685  1.689  1.697  1.712 15.72415 17.48201 -6.18802 179.260
 3.97 5.80  1.743  1.744  1.748  1.756  1.771 15.82702 17.68357 -5.98641 201.795
 3.97 6.00  1.806  1.807  1.810  1.818  1.833 15.92972 17.88480 -5.78516 227.122
 3.97 6.25  1.887  1.889  1.892  1.900  1.914 16.05792 18.13597 -5.53408 263.246
 3.97 6.50  1.974  1.976  1.979  1.986  1.999 16.18611 18.38686 -5.28325 305.116
 3.97 6.75  2.062  2.063  2.066  2.074  2.087 16.31451 18.63752 -5.03254 353.721
 3.97 7.00  2.155  2.156  2.159  2.166  2.180 16.44311 18.88801 -4.78199 410.157
 3.97 7.25  2.252  2.253  2.256  2.263  2.276 16.57203 19.13834 -4.53168 475.787
 3.97 7.50  2.353  2.354  2.357  2.364  2.377 16.70122 19.38863 -4.28142 552.092
 3.97 7.75  2.458  2.459  2.462  2.469  2.482 16.83067 19.63892 -4.03117 640.823
 3.97 8.00  2.567  2.568  2.571  2.577  2.589 16.96038 19.88919 -3.78094 744.038
 4.00-2.00 -0.513 -0.512 -0.511 -0.507 -0.503  9.54949  9.56820-14.10193   0.142
 4.00-1.50 -0.518 -0.517 -0.515 -0.511 -0.504 10.04376 10.07335-13.59671   0.250
 4.00-1.00 -0.514 -0.513 -0.510 -0.504 -0.494 10.54033 10.57669-13.09334   0.443
 4.00-0.50 -0.491 -0.490 -0.486 -0.477 -0.464 11.03862 11.07809-12.59193   0.787
 4.00 0.00 -0.433 -0.431 -0.426 -0.415 -0.396 11.53807 11.57887-12.09125   1.398
 4.00 0.50 -0.309 -0.306 -0.300 -0.286 -0.263 12.03743 12.07954-11.59057   2.483
 4.00 1.00 -0.093 -0.089 -0.082 -0.067 -0.042 12.53555 12.58104-11.08900   4.408
 4.00 1.25  0.052  0.055  0.062  0.078  0.102 12.78365 12.83279-10.83729   5.865
 4.00 1.50  0.221  0.224  0.231  0.246  0.271 13.03060 13.08565-10.58453   7.793
 4.00 1.75  0.406  0.409  0.416  0.430  0.453 13.27506 13.34042-10.32971  10.326
 4.00 2.00  0.600  0.603  0.609  0.623  0.645 13.51614 13.59781-10.07222  13.630
 4.00 2.25  0.792  0.794  0.800  0.812  0.832 13.75097 13.85996 -9.81001  17.861
 4.00 2.50  0.972  0.975  0.980  0.991  1.010 13.97818 14.12678 -9.54318  23.202
 4.00 2.75  1.131  1.134  1.138  1.149  1.166 14.19351 14.40044 -9.26970  29.729
 4.00 3.00  1.268  1.270  1.274  1.284  1.300 14.39690 14.67669 -8.99353  37.571
 4.00 3.20  1.357  1.359  1.363  1.373  1.388 14.54890 14.89942 -8.77078  44.757
 4.00 3.40  1.434  1.436  1.440  1.449  1.464 14.69316 15.12214 -8.54802  52.845
 4.00 3.60  1.499  1.501  1.505  1.513  1.528 14.82941 15.34383 -8.32630  61.824
 4.00 3.80  1.555  1.557  1.561  1.569  1.583 14.95926 15.56306 -8.10707  71.799
 4.00 4.00  1.605  1.607  1.611  1.619  1.633 15.08350 15.78039 -7.88975  82.843
 4.00 4.20  1.650  1.652  1.655  1.663  1.677 15.20297 15.99479 -7.67535  95.052
 4.00 4.40  1.692  1.694  1.698  1.706  1.719 15.31897 16.20706 -7.46307 108.625
 4.00 4.60  1.734  1.735  1.739  1.747  1.760 15.43163 16.41714 -7.25295 123.663
 4.00 4.80  1.775  1.776  1.780  1.788  1.801 15.54206 16.62547 -7.04455 140.425
 4.00 5.00  1.817  1.818  1.822  1.829  1.843 15.65050 16.83225 -6.83773 159.097
 4.00 5.20  1.860  1.861  1.865  1.873  1.886 15.75733 17.03768 -6.63232 179.923
 4.00 5.40  1.905  1.907  1.910  1.917  1.931 15.86311 17.24214 -6.42790 203.227
 4.00 5.60  1.953  1.954  1.957  1.965  1.978 15.96791 17.44568 -6.22442 229.282
 4.00 5.80  2.003  2.005  2.008  2.015  2.028 16.07211 17.64859 -6.02158 258.498
 4.00 6.00  2.057  2.058  2.061  2.068  2.080 16.17580 17.85089 -5.81930 291.267
 4.00 6.25  2.128  2.129  2.131  2.138  2.150 16.30481 18.10304 -5.56706 337.900
 4.00 6.50  2.203  2.204  2.207  2.213  2.225 16.43361 18.35469 -5.31533 391.917
 4.00 6.75  2.281  2.282  2.285  2.291  2.303 16.56226 18.60597 -5.06402 454.506
 4.00 7.00  2.364  2.365  2.368  2.374  2.385 16.69090 18.85697 -4.81304 527.090
 4.00 7.25  2.453  2.454  2.456  2.462  2.474 16.81983 19.10774 -4.56237 611.431
 4.00 7.50  2.546  2.547  2.550  2.556  2.567 16.94905 19.35832 -4.31185 709.489
 4.00 7.75  2.645  2.646  2.648  2.654  2.664 17.07889 19.60873 -4.06141 823.860
 4.00 8.00  2.748  2.749  2.751  2.757  2.767 17.20925 19.85896 -3.81107 957.220
 4.05-2.00 -0.492 -0.491 -0.489 -0.486 -0.480  9.50840  9.50947-14.16065   0.128
 4.05-1.50 -0.491 -0.490 -0.488 -0.484 -0.477 10.00732 10.01072-13.65956   0.226
 4.05-1.00 -0.491 -0.490 -0.487 -0.482 -0.474 10.50433 10.51348-13.15658   0.401
 4.05-0.50 -0.487 -0.486 -0.483 -0.476 -0.465 10.99904 11.01870-12.65150   0.709
 4.05 0.00 -0.465 -0.463 -0.459 -0.450 -0.435 11.49346 11.52388-12.14624   1.254
 4.05 0.50 -0.394 -0.392 -0.386 -0.374 -0.355 11.98998 12.02694-11.64302   2.220
 4.05 1.00 -0.237 -0.234 -0.227 -0.212 -0.187 12.48827 12.52866-11.14146   3.941
 4.05 1.25 -0.116 -0.113 -0.106 -0.089 -0.063 12.73763 12.77923-10.89091   5.251
 4.05 1.50  0.032  0.036  0.044  0.061  0.089 12.98700 13.02979-10.64035   6.997
 4.05 1.75  0.210  0.214  0.222  0.239  0.268 13.23602 13.28068-10.38945   9.320
 4.05 2.00  0.410  0.414  0.422  0.439  0.468 13.48458 13.53199-10.13811  12.409
 4.05 2.25  0.623  0.627  0.635  0.652  0.680 13.73202 13.78424 -9.88585  16.499
 4.05 2.50  0.844  0.847  0.855  0.871  0.898 13.97786 14.03783 -9.63227  21.896
 4.05 2.75  1.064  1.067  1.073  1.088  1.113 14.22059 14.29411 -9.37599  28.955
 4.05 3.00  1.277  1.280  1.286  1.300  1.322 14.45909 14.55364 -9.11645  38.104
 4.05 3.20  1.437  1.439  1.445  1.457  1.478 14.64446 14.76519 -8.90486  47.169
 4.05 3.40  1.584  1.587  1.592  1.603  1.622 14.82414 14.97974 -8.69028  58.008
 4.05 3.60  1.716  1.718  1.723  1.733  1.750 14.99693 15.19848 -8.47153  70.774
 4.05 3.80  1.831  1.833  1.837  1.846  1.862 15.16115 15.41962 -8.25040  85.500
 4.05 4.00  1.930  1.932  1.935  1.944  1.959 15.31744 15.64138 -8.02868 102.352
 4.05 4.20  2.012  2.014  2.017  2.025  2.039 15.46425 15.86352 -7.80657 121.205
 4.05 4.40  2.083  2.084  2.087  2.095  2.108 15.60382 16.08566 -7.58446 142.338
 4.05 4.60  2.143  2.144  2.147  2.154  2.167 15.73608 16.30639 -7.36372 165.751
 4.05 4.80  2.196  2.197  2.200  2.206  2.218 15.86270 16.52409 -7.14596 191.765
 4.05 5.00  2.244  2.245  2.248  2.254  2.265 15.98435 16.73965 -6.93033 220.594
 4.05 5.20  2.288  2.289  2.292  2.298  2.309 16.10173 16.95253 -6.71750 252.527
 4.05 5.40  2.331  2.332  2.335  2.341  2.351 16.21618 17.16342 -6.50665 288.101
 4.05 5.60  2.374  2.375  2.377  2.383  2.393 16.32784 17.37230 -6.29776 327.617
 4.05 5.80  2.417  2.418  2.420  2.426  2.436 16.43769 17.57965 -6.09037 371.774
 4.05 6.00  2.462  2.463  2.465  2.470  2.479 16.54593 17.78562 -5.88439 421.100
 4.05 6.25  2.520  2.521  2.523  2.527  2.536 16.67946 18.04150 -5.62862 491.069
 4.05 6.50  2.582  2.582  2.584  2.588  2.597 16.81178 18.29601 -5.37417 571.882
 4.05 6.75  2.646  2.647  2.648  2.653  2.661 16.94305 18.54934 -5.12070 665.250
 4.05 7.00  2.715  2.716  2.717  2.722  2.730 17.07409 18.80188 -4.86806 773.592
 4.05 7.25  2.790  2.791  2.792  2.796  2.804 17.20497 19.05385 -4.61625 899.354
 4.05 7.50  2.871  2.872  2.873  2.877  2.885 17.33586 19.30535 -4.364821045.560
 4.05 7.75  2.958  2.959  2.960  2.964  2.971 17.46722 19.55650 -4.113601216.277
 4.05 8.00  3.051  3.052  3.053  3.057  3.063 17.59890 19.80726 -3.862651415.442
 4.10-2.00 -0.483 -0.482 -0.480 -0.475 -0.465  9.45894  9.45894-14.21120   0.114
 4.10-1.50 -0.480 -0.479 -0.477 -0.471 -0.461  9.95885  9.95895-13.71108   0.202
 4.10-1.00 -0.477 -0.475 -0.473 -0.466 -0.455 10.45864 10.45924-13.21091   0.360
 4.10-0.50 -0.470 -0.468 -0.465 -0.458 -0.446 10.95799 10.95980-12.71019   0.639
 4.10 0.00 -0.454 -0.452 -0.448 -0.440 -0.426 11.45637 11.46150-12.20859   1.134
 4.10 0.50 -0.414 -0.412 -0.408 -0.397 -0.379 11.95255 11.96515-11.70487   2.008
 4.10 1.00 -0.321 -0.319 -0.313 -0.300 -0.277 12.44685 12.47071-11.19935   3.547
 4.10 1.25 -0.242 -0.239 -0.233 -0.218 -0.193 12.69415 12.72323-10.94686   4.715
 4.10 1.50 -0.135 -0.132 -0.125 -0.109 -0.082 12.94166 12.97548-10.69465   6.270
 4.10 1.75  0.001  0.005  0.012  0.030  0.059 13.19006 13.22702-10.44308   8.345
 4.10 2.00  0.168  0.172  0.180  0.198  0.228 13.43870 13.47828-10.19179  11.111
 4.10 2.25  0.363  0.367  0.375  0.393  0.424 13.68753 13.72930 -9.94076  14.797
 4.10 2.50  0.578  0.581  0.589  0.608  0.638 13.93636 13.98032 -9.68973  19.706
 4.10 2.75  0.806  0.810  0.818  0.835  0.865 14.18474 14.23180 -9.43824  26.229
 4.10 3.00  1.042  1.046  1.053  1.070  1.098 14.43249 14.48387 -9.18615  34.885
 4.10 3.20  1.230  1.233  1.239  1.255  1.281 14.62940 14.68657 -8.98349  43.763
 4.10 3.40  1.415  1.418  1.424  1.438  1.463 14.82475 14.89054 -8.77958  54.802
 4.10 3.60  1.596  1.599  1.604  1.617  1.639 15.01809 15.09624 -8.57393  68.467
 4.10 3.80  1.770  1.772  1.777  1.788  1.808 15.20773 15.30469 -8.36548  85.174
 4.10 4.00  1.933  1.935  1.940  1.950  1.967 15.39358 15.51574 -8.15441 105.493
 4.10 4.20  2.082  2.084  2.088  2.097  2.112 15.57277 15.73105 -7.93902 129.663
 4.10 4.40  2.217  2.218  2.221  2.229  2.243 15.74515 15.94892 -7.72110 158.124
 4.10 4.60  2.333  2.335  2.337  2.344  2.356 15.90958 16.17005 -7.49997 191.072
 4.10 4.80  2.433  2.434  2.437  2.443  2.454 16.06523 16.39252 -7.27752 228.566
 4.10 5.00  2.520  2.520  2.523  2.528  2.538 16.21299 16.61500 -7.05507 270.947
 4.10 5.20  2.592  2.592  2.594  2.599  2.609 16.35221 16.83627 -6.83380 318.072
 4.10 5.40  2.655  2.656  2.657  2.662  2.671 16.48521 17.05629 -6.61375 370.722
 4.10 5.60  2.711  2.712  2.714  2.718  2.726 16.61207 17.27427 -6.39571 429.020
 4.10 5.80  2.763  2.763  2.765  2.769  2.776 16.73450 17.48950 -6.18044 493.938
 4.10 6.00  2.812  2.812  2.814  2.817  2.824 16.85297 17.70252 -5.96738 566.101
 4.10 6.25  2.870  2.871  2.872  2.875  2.882 16.99653 17.96552 -5.70443 667.871
 4.10 6.50  2.929  2.930  2.931  2.934  2.940 17.13672 18.22583 -5.44418 784.872
 4.10 6.75  2.989  2.990  2.991  2.994  3.000 17.27427 18.48387 -5.18618 919.522
 4.10 7.00  3.052  3.053  3.054  3.057  3.062 17.41027 18.74013 -4.929961075.346
 4.10 7.25  3.120  3.120  3.121  3.124  3.129 17.54489 18.99486 -4.675291255.595
 4.10 7.50  3.191  3.192  3.193  3.195  3.201 17.67934 19.24846 -4.421701465.791
 4.10 7.75  3.269  3.269  3.270  3.273  3.278 17.81373 19.50128 -4.168851711.081
 4.10 8.00  3.353  3.353  3.354  3.357  3.361 17.94802 19.75320 -3.916861997.224
 4.15-2.00 -0.484 -0.483 -0.481 -0.477 -0.470  9.40909  9.40892-14.26122   0.101
 4.15-1.50 -0.476 -0.475 -0.472 -0.466 -0.456  9.90897  9.90881-13.76120   0.180
 4.15-1.00 -0.467 -0.466 -0.462 -0.455 -0.441 10.40892 10.40892-13.26114   0.321
 4.15-0.50 -0.459 -0.457 -0.453 -0.444 -0.428 10.90886 10.90891-12.76120   0.570
 4.15 0.00 -0.446 -0.444 -0.440 -0.430 -0.412 11.40875 11.40909-12.26098   1.013
 4.15 0.50 -0.419 -0.417 -0.412 -0.401 -0.381 11.90822 11.90956-11.76045   1.801
 4.15 1.00 -0.356 -0.353 -0.348 -0.334 -0.311 12.40705 12.41078-11.25932   3.199
 4.15 1.25 -0.300 -0.297 -0.291 -0.276 -0.251 12.65584 12.66195-11.00814   4.260
 4.15 1.50 -0.223 -0.221 -0.214 -0.198 -0.171 12.90412 12.91360-10.75647   5.669
 4.15 1.75 -0.123 -0.120 -0.113 -0.096 -0.067 13.15158 13.16614-10.50401   7.538
 4.15 2.00  0.000  0.003  0.010  0.028  0.058 13.39881 13.41880-10.25135  10.020
 4.15 2.25  0.150  0.154  0.161  0.180  0.211 13.64587 13.67154 -9.99852  13.316
 4.15 2.50  0.325  0.328  0.336  0.355  0.386 13.89293 13.92428 -9.74569  17.697
 4.15 2.75  0.526  0.529  0.537  0.555  0.586 14.14070 14.17639 -9.49365  23.538
 4.15 3.00  0.745  0.748  0.755  0.772  0.802 14.38863 14.42830 -9.24177  31.314
 4.15 3.20  0.932  0.935  0.942  0.958  0.986 14.58708 14.62968 -9.04037  39.351
 4.15 3.40  1.124  1.127  1.134  1.149  1.175 14.78552 14.83107 -8.83896  49.452
 4.15 3.60  1.320  1.322  1.328  1.342  1.366 14.98370 15.03269 -8.63734  62.127
 4.15 3.80  1.516  1.518  1.524  1.536  1.558 15.18101 15.23510 -8.43496  77.974
 4.15 4.00  1.708  1.710  1.715  1.726  1.747 15.37749 15.43823 -8.23188  97.771
 4.15 4.20  1.897  1.898  1.903  1.913  1.931 15.57196 15.64300 -8.02710 122.303
 4.15 4.40  2.079  2.081  2.084  2.093  2.109 15.76386 15.84972 -7.82035 152.532
 4.15 4.60  2.253  2.254  2.258  2.265  2.279 15.95237 16.05911 -7.61095 189.497
 4.15 4.80  2.416  2.417  2.419  2.426  2.437 16.13533 16.27188 -7.39818 233.932
 4.15 5.00  2.564  2.565  2.567  2.573  2.582 16.31281 16.48756 -7.18250 286.975
 4.15 5.20  2.695  2.695  2.697  2.702  2.710 16.48187 16.70772 -6.96231 348.642
 4.15 5.40  2.810  2.810  2.812  2.816  2.823 16.64330 16.92866 -6.74136 419.848
 4.15 5.60  2.908  2.909  2.910  2.913  2.920 16.79634 17.15034 -6.51968 500.715
 4.15 5.80  2.992  2.993  2.994  2.997  3.003 16.94145 17.37220 -6.29783 591.720
 4.15 6.00  3.067  3.068  3.068  3.071  3.076 17.07954 17.59406 -6.07598 693.653
 4.15 6.25  3.147  3.147  3.148  3.150  3.155 17.24286 17.86715 -5.80289 837.232
 4.15 6.50  3.220  3.220  3.221  3.223  3.227 17.39881 18.13704 -5.532981001.974
 4.15 6.75  3.288  3.288  3.289  3.291  3.295 17.54867 18.40299 -5.267041190.648
 4.15 7.00  3.355  3.355  3.356  3.357  3.361 17.69443 18.66586 -5.004191408.169
 4.15 7.25  3.422  3.422  3.423  3.425  3.429 17.83680 18.92595 -4.744221658.946
 4.15 7.50  3.492  3.493  3.493  3.495  3.498 17.97750 19.18384 -4.486381950.628
 4.15 7.75  3.566  3.567  3.567  3.569  3.572 18.11732 19.44006 -4.230082291.292
 4.15 8.00  3.645  3.645  3.646  3.648  3.650 18.25600 19.69443 -3.975512687.925
 4.20-2.00 -0.488 -0.488 -0.487 -0.485 -0.481  9.35908  9.35889-14.31122   0.090
 4.20-1.50 -0.482 -0.482 -0.480 -0.477 -0.471  9.85896  9.85884-13.81135   0.161
 4.20-1.00 -0.473 -0.472 -0.470 -0.465 -0.456 10.35889 10.35889-13.31122   0.286
 4.20-0.50 -0.459 -0.457 -0.454 -0.447 -0.434 10.85890 10.85884-12.81135   0.508
 4.20 0.00 -0.441 -0.439 -0.434 -0.424 -0.406 11.35889 11.35889-12.31114   0.903
 4.20 0.50 -0.416 -0.414 -0.408 -0.395 -0.372 11.85878 11.85902-11.81107   1.606
 4.20 1.00 -0.372 -0.370 -0.363 -0.348 -0.321 12.35870 12.35927-11.31087   2.856
 4.20 1.25 -0.335 -0.333 -0.326 -0.309 -0.281 12.60849 12.60942-11.06072   3.808
 4.20 1.50 -0.283 -0.280 -0.272 -0.255 -0.224 12.85818 12.85962-10.81051   5.076
 4.20 1.75 -0.209 -0.206 -0.198 -0.180 -0.147 13.10777 13.11008-10.56006   6.765
 4.20 2.00 -0.114 -0.110 -0.102 -0.083 -0.050 13.35717 13.36078-10.30936   9.015
 4.20 2.25  0.007  0.011  0.019  0.038  0.072 13.60604 13.61181-10.05834  12.007
 4.20 2.50  0.152  0.155  0.163  0.183  0.216 13.85443 13.86326 -9.80688  15.983
 4.20 2.75  0.322  0.325  0.333  0.351  0.384 14.10218 14.11560 -9.55451  21.257
 4.20 3.00  0.509  0.512  0.519  0.537  0.568 14.34947 14.36829 -9.30181  28.256
 4.20 3.20  0.674  0.677  0.684  0.701  0.730 14.54685 14.57067 -9.09944  35.467
 4.20 3.40  0.848  0.850  0.857  0.872  0.899 14.74423 14.77306 -8.89707  44.518
 4.20 3.60  1.030  1.033  1.039  1.053  1.078 14.94179 14.97530 -8.69482  55.889
 4.20 3.80  1.221  1.223  1.229  1.241  1.264 15.13953 15.17739 -8.49269  70.178
 4.20 4.00  1.416  1.418  1.422  1.434  1.454 15.33726 15.37949 -8.29056  88.119
 4.20 4.20  1.616  1.617  1.622  1.632  1.650 15.53481 15.58171 -8.08832 110.622
 4.20 4.40  1.816  1.817  1.821  1.830  1.846 15.73207 15.78413 -7.88590 138.824
 4.20 4.60  2.014  2.015  2.019  2.027  2.041 15.92864 15.98717 -7.68289 174.076
 4.20 4.80  2.209  2.210  2.213  2.220  2.232 16.12340 16.19176 -7.47834 217.826
 4.20 5.00  2.399  2.399  2.402  2.408  2.418 16.31639 16.39777 -7.27238 272.013
 4.20 5.20  2.581  2.581  2.583  2.588  2.597 16.50555 16.60658 -7.06354 338.201
 4.20 5.40  2.752  2.753  2.755  2.758  2.766 16.69031 16.81808 -6.85200 418.376
 4.20 5.60  2.910  2.910  2.911  2.914  2.920 16.86958 17.03327 -6.63680 514.308
 4.20 5.80  3.051  3.051  3.052  3.055  3.059 17.04143 17.25150 -6.41859 626.852
 4.20 6.00  3.177  3.177  3.178  3.180  3.183 17.20629 17.47159 -6.19853 757.893
 4.20 6.25  3.308  3.308  3.309  3.310  3.314 17.40003 17.74906 -5.92106 947.234
 4.20 6.50  3.421  3.421  3.422  3.423  3.426 17.58252 18.02653 -5.643591168.641
 4.20 6.75  3.516  3.516  3.516  3.518  3.520 17.75391 18.30122 -5.368891423.531
 4.20 7.00  3.602  3.602  3.603  3.604  3.606 17.91719 18.57334 -5.096751717.965
 4.20 7.25  3.682  3.682  3.682  3.684  3.686 18.07343 18.84136 -4.828692056.684
 4.20 7.50  3.760  3.760  3.760  3.761  3.763 18.22531 19.10619 -4.563842449.743
 4.20 7.75  3.838  3.838  3.838  3.839  3.841 18.37452 19.36820 -4.301842908.714
 4.20 8.00  3.918  3.918  3.918  3.919  3.921 18.52048 19.62726 -4.042823440.587
 4.25-2.00 -0.484 -0.484 -0.483 -0.481 -0.478  9.30899  9.30878-14.36131   0.081
 4.25-1.50 -0.482 -0.481 -0.480 -0.478 -0.474  9.80895  9.80882-13.86138   0.143
 4.25-1.00 -0.477 -0.476 -0.475 -0.472 -0.466 10.30899 10.30878-13.36121   0.255
 4.25-0.50 -0.467 -0.466 -0.464 -0.460 -0.452 10.80889 10.80882-12.86138   0.453
 4.25 0.00 -0.450 -0.449 -0.447 -0.440 -0.429 11.30899 11.30899-12.36121   0.805
 4.25 0.50 -0.425 -0.423 -0.420 -0.410 -0.394 11.80882 11.80895-11.86107   1.432
 4.25 1.00 -0.385 -0.383 -0.377 -0.364 -0.340 12.30878 12.30899-11.36101   2.546
 4.25 1.25 -0.355 -0.353 -0.346 -0.331 -0.303 12.55871 12.55903-11.11104   3.395
 4.25 1.50 -0.314 -0.311 -0.304 -0.286 -0.254 12.80862 12.80909-10.86107   4.526
 4.25 1.75 -0.260 -0.257 -0.249 -0.229 -0.195 13.05850 13.05924-10.61093   6.035
 4.25 2.00 -0.188 -0.185 -0.176 -0.155 -0.117 13.30835 13.30942-10.36071   8.047
 4.25 2.25 -0.097 -0.094 -0.085 -0.062 -0.023 13.55818 13.55961-10.11046  10.728
 4.25 2.50  0.015  0.019  0.028  0.050  0.090 13.80794 13.80983 -9.86012  14.301
 4.25 2.75  0.154  0.158  0.167  0.188  0.227 14.05752 14.06034 -9.60967  19.061
 4.25 3.00  0.317  0.321  0.329  0.349  0.385 14.30685 14.31112 -9.35902  25.398
 4.25 3.20  0.467  0.470  0.478  0.497  0.530 14.50589 14.51198 -9.15820  31.940
 4.25 3.40  0.628  0.631  0.638  0.655  0.686 14.70458 14.71315 -8.95706  40.152
 4.25 3.60  0.800  0.803  0.809  0.824  0.852 14.90289 14.91481 -8.75540  50.450
 4.25 3.80  0.980  0.982  0.988  1.002  1.026 15.10083 15.11693 -8.55328  63.358
 4.25 4.00  1.164  1.166  1.170  1.182  1.203 15.29842 15.31932 -8.35086  79.539
 4.25 4.20  1.355  1.356  1.361  1.371  1.390 15.49555 15.52190 -8.14821  99.812
 4.25 4.40  1.548  1.550  1.553  1.563  1.579 15.69258 15.72461 -7.94547 125.232
 4.25 4.60  1.746  1.748  1.751  1.759  1.773 15.88957 15.92738 -7.74268 157.112
 4.25 4.80  1.949  1.950  1.952  1.959  1.972 16.08649 16.13024 -7.53983 197.087
 4.25 5.00  2.151  2.152  2.154  2.160  2.170 16.28330 16.33325 -7.33687 247.182
 4.25 5.20  2.355  2.356  2.358  2.363  2.372 16.47903 16.53699 -7.13311 309.661
 4.25 5.40  2.554  2.555  2.557  2.561  2.568 16.67346 16.74170 -6.92838 387.369
 4.25 5.60  2.749  2.749  2.750  2.754  2.760 16.86605 16.94796 -6.72211 483.541
 4.25 5.80  2.936  2.936  2.937  2.940  2.945 17.05509 17.15683 -6.51324 601.081
 4.25 6.00  3.113  3.113  3.114  3.116  3.119 17.24055 17.36810 -6.30199 744.098
 4.25 6.25  3.312  3.312  3.313  3.314  3.317 17.46334 17.63748 -6.03259 961.702
 4.25 6.50  3.489  3.489  3.489  3.491  3.493 17.67624 17.91036 -5.759701228.901
 4.25 6.75  3.637  3.637  3.637  3.638  3.640 17.87656 18.18713 -5.482961547.565
 4.25 7.00  3.766  3.766  3.767  3.767  3.769 18.06595 18.46389 -5.206211924.531
 4.25 7.25  3.876  3.876  3.876  3.877  3.878 18.24398 18.73907 -4.931082362.630
 4.25 7.50  3.976  3.976  3.977  3.977  3.978 18.41397 19.01241 -4.657772873.670
 4.25 7.75  4.068  4.068  4.068  4.069  4.070 18.57817 19.28169 -4.388483471.709
 4.25 8.00  4.158  4.158  4.158  4.159  4.160 18.73584 19.54765 -4.122464162.452
 4.30-2.00 -0.476 -0.475 -0.474 -0.472 -0.467  9.26031  9.25744-14.41251   0.072
 4.30-1.50 -0.474 -0.474 -0.473 -0.470 -0.465  9.75937  9.75838-13.91186   0.128
 4.30-1.00 -0.471 -0.471 -0.469 -0.466 -0.460 10.25912 10.25864-13.41139   0.227
 4.30-0.50 -0.465 -0.465 -0.463 -0.459 -0.452 10.75899 10.75876-12.91116   0.404
 4.30 0.00 -0.454 -0.453 -0.451 -0.447 -0.438 11.25888 11.25888-12.41117   0.718
 4.30 0.50 -0.434 -0.433 -0.430 -0.424 -0.413 11.75884 11.75891-11.91116   1.276
 4.30 1.00 -0.402 -0.400 -0.397 -0.389 -0.374 12.25888 12.25888-11.41106   2.269
 4.30 1.25 -0.378 -0.377 -0.373 -0.362 -0.344 12.50882 12.50893-11.16111   3.025
 4.30 1.50 -0.347 -0.345 -0.340 -0.328 -0.306 12.75876 12.75899-10.91116   4.034
 4.30 1.75 -0.305 -0.302 -0.296 -0.282 -0.256 13.00870 13.00905-10.66105   5.380
 4.30 2.00 -0.248 -0.245 -0.238 -0.220 -0.189 13.25864 13.25912-10.41094   7.174
 4.30 2.25 -0.174 -0.171 -0.163 -0.143 -0.107 13.50856 13.50920-10.16087   9.566
 4.30 2.50 -0.080 -0.076 -0.068 -0.046 -0.006 13.75846 13.75929 -9.91080  12.754
 4.30 2.75  0.032  0.036  0.045  0.068  0.109 14.00833 14.00942 -9.66062  17.005
 4.30 3.00  0.168  0.172  0.181  0.204  0.246 14.25816 14.25959 -9.41039  22.672
 4.30 3.20  0.295  0.298  0.307  0.329  0.369 14.45793 14.45982 -9.21017  28.535
 4.30 3.40  0.436  0.439  0.447  0.467  0.505 14.65760 14.66015 -9.00990  35.910
 4.30 3.60  0.592  0.595  0.603  0.621  0.655 14.85717 14.86058 -8.80951  45.187
 4.30 3.80  0.763  0.765  0.772  0.788  0.817 15.05656 15.06118 -8.60889  56.848
 4.30 4.00  0.941  0.943  0.949  0.963  0.988 15.25576 15.26198 -8.40805  71.503
 4.30 4.20  1.131  1.133  1.137  1.149  1.171 15.45457 15.46314 -8.20690  89.891
 4.30 4.40  1.324  1.325  1.329  1.339  1.357 15.65299 15.66468 -8.00538 112.956
 4.30 4.60  1.520  1.521  1.525  1.533  1.548 15.85091 15.86670 -7.80336 141.861
 4.30 4.80  1.719  1.721  1.723  1.730  1.743 16.04831 16.06919 -7.60084 178.061
 4.30 5.00  1.919  1.919  1.922  1.927  1.938 16.24527 16.27207 -7.39794 223.385
 4.30 5.20  2.123  2.124  2.125  2.130  2.139 16.44194 16.47518 -7.19483 280.148
 4.30 5.40  2.327  2.328  2.329  2.334  2.341 16.63810 16.67870 -6.99132 351.128
 4.30 5.60  2.534  2.534  2.535  2.539  2.544 16.83382 16.88257 -6.78743 439.863
 4.30 5.80  2.740  2.740  2.741  2.744  2.748 17.02867 17.08712 -6.58287 550.476
 4.30 6.00  2.941  2.941  2.942  2.943  2.947 17.22246 17.29248 -6.37748 688.070
 4.30 6.25  3.185  3.186  3.186  3.187  3.190 17.46093 17.55206 -6.11792 905.487
 4.30 6.50  3.417  3.417  3.417  3.418  3.420 17.69452 17.81491 -5.855111184.930
 4.30 6.75  3.625  3.625  3.626  3.626  3.628 17.91975 18.08295 -5.587061535.641
 4.30 7.00  3.814  3.814  3.814  3.814  3.816 18.13609 18.35449 -5.315511969.839
 4.30 7.25  3.973  3.973  3.973  3.974  3.975 18.34056 18.63020 -5.039872492.727
 4.30 7.50  4.116  4.116  4.116  4.116  4.117 18.53491 18.90590 -4.764223117.931
 4.30 7.75  4.237  4.237  4.238  4.238  4.239 18.71992 19.18034 -4.489763858.116
 4.30 8.00  4.351  4.351  4.351  4.351  4.352 18.89531 19.45393 -4.216104721.478
 4.35-2.00 -0.451 -0.451 -0.450 -0.448 -0.444  9.22246  9.19479-14.47521   0.067
 4.35-1.50 -0.455 -0.455 -0.454 -0.451 -0.446  9.71775  9.69984-13.97021   0.117
 4.35-1.00 -0.458 -0.458 -0.456 -0.453 -0.446 10.21325 10.20466-13.46547   0.205
 4.35-0.50 -0.456 -0.455 -0.454 -0.449 -0.441 10.71054 10.70723-12.96297   0.362
 4.35 0.00 -0.448 -0.447 -0.446 -0.440 -0.431 11.20951 11.20844-12.46168   0.641
 4.35 0.50 -0.433 -0.432 -0.429 -0.424 -0.413 11.70902 11.70876-11.96138   1.138
 4.35 1.00 -0.405 -0.404 -0.401 -0.395 -0.382 12.20898 12.20898-11.46118   2.023
 4.35 1.25 -0.385 -0.384 -0.381 -0.374 -0.359 12.45887 12.45900-11.21108   2.697
 4.35 1.50 -0.361 -0.360 -0.357 -0.348 -0.333 12.70876 12.70902-10.96098   3.596
 4.35 1.75 -0.330 -0.328 -0.324 -0.315 -0.297 12.95874 12.95913-10.71094   4.795
 4.35 2.00 -0.289 -0.287 -0.283 -0.271 -0.251 13.20871 13.20925-10.46092   6.394
 4.35 2.25 -0.233 -0.231 -0.226 -0.213 -0.188 13.45866 13.45922-10.21095   8.526
 4.35 2.50 -0.161 -0.159 -0.153 -0.137 -0.109 13.70859 13.70918 -9.96098  11.369
 4.35 2.75 -0.068 -0.065 -0.058 -0.041 -0.009 13.95852 13.95935 -9.71083  15.160
 4.35 3.00  0.046  0.049  0.056  0.076  0.111 14.20844 14.20951 -9.46067  20.214
 4.35 3.20  0.156  0.159  0.166  0.186  0.223 14.40831 14.40959 -9.26064  25.444
 4.35 3.40  0.281  0.284  0.292  0.312  0.348 14.60816 14.60966 -9.06060  32.027
 4.35 3.60  0.422  0.425  0.432  0.451  0.487 14.80800 14.80979 -8.86047  40.312
 4.35 3.80  0.578  0.580  0.587  0.605  0.638 15.00783 15.01002 -8.66017  50.738
 4.35 4.00  0.745  0.747  0.753  0.769  0.799 15.20763 15.21032 -8.45980  63.860
 4.35 4.20  0.925  0.927  0.933  0.946  0.973 15.40728 15.41064 -8.25939  80.363
 4.35 4.40  1.112  1.114  1.119  1.130  1.153 15.60677 15.61106 -8.05889 101.113
 4.35 4.60  1.307  1.309  1.312  1.322  1.341 15.80610 15.81164 -7.85826 127.197
 4.35 4.80  1.508  1.509  1.512  1.520  1.535 16.00513 16.01255 -7.65736 159.957
 4.35 5.00  1.710  1.711  1.713  1.720  1.732 16.20385 16.21378 -7.45618 201.082
 4.35 5.20  1.918  1.919  1.921  1.926  1.936 16.40203 16.41559 -7.25441 252.613
 4.35 5.40  2.125  2.125  2.127  2.131  2.139 16.59967 16.61790 -7.05212 317.148
 4.35 5.60  2.332  2.333  2.334  2.337  2.343 16.79672 16.82072 -6.84932 397.914
 4.35 5.80  2.541  2.542  2.543  2.545  2.550 16.99305 17.02412 -6.64592 498.847
 4.35 6.00  2.749  2.749  2.750  2.752  2.755 17.18865 17.22814 -6.44189 624.855
 4.35 6.25  3.012  3.012  3.013  3.014  3.017 17.43211 17.48405 -6.18595 826.995
 4.35 6.50  3.268  3.268  3.268  3.269  3.271 17.67367 17.74147 -5.928491092.089
 4.35 6.75  3.515  3.515  3.516  3.516  3.518 17.91184 18.00143 -5.668561436.539
 4.35 7.00  3.750  3.750  3.750  3.751  3.752 18.14551 18.26435 -5.405721879.865
 4.35 7.25  3.962  3.962  3.962  3.963  3.964 18.37130 18.53197 -5.138182438.040
 4.35 7.50  4.157  4.157  4.157  4.157  4.158 18.58894 18.80277 -4.867423132.541
 4.35 7.75  4.323  4.323  4.323  4.323  4.324 18.79636 19.07603 -4.594153977.510
 4.35 8.00  4.475  4.475  4.475  4.475  4.475 18.99423 19.35199 -4.318134995.109
 4.40-2.00 -0.443 -0.443 -0.442 -0.441 -0.437  9.17696  9.14019-14.53003   0.061
 4.40-1.50 -0.440 -0.440 -0.439 -0.437 -0.434  9.67642  9.64058-14.02951   0.107
 4.40-1.00 -0.438 -0.437 -0.436 -0.434 -0.429 10.17522 10.14208-13.52812   0.190
 4.40-0.50 -0.436 -0.435 -0.434 -0.430 -0.424 10.67210 10.64523-13.02484   0.335
 4.40 0.00 -0.433 -0.432 -0.431 -0.426 -0.417 11.16732 11.15045-12.51971   0.586
 4.40 0.50 -0.424 -0.423 -0.421 -0.414 -0.403 11.66276 11.65495-12.01511   1.027
 4.40 1.00 -0.401 -0.400 -0.397 -0.390 -0.376 12.16047 12.15746-11.51258   1.811
 4.40 1.25 -0.384 -0.383 -0.380 -0.372 -0.356 12.40974 12.40807-11.26197   2.410
 4.40 1.50 -0.361 -0.360 -0.356 -0.348 -0.332 12.65925 12.65849-11.01157   3.210
 4.40 1.75 -0.333 -0.331 -0.328 -0.319 -0.301 12.90911 12.90878-10.76133   4.277
 4.40 2.00 -0.298 -0.297 -0.293 -0.283 -0.265 13.15897 13.15897-10.51117   5.700
 4.40 2.25 -0.254 -0.253 -0.249 -0.238 -0.218 13.40882 13.40901-10.26108   7.600
 4.40 2.50 -0.200 -0.198 -0.193 -0.182 -0.159 13.65868 13.65906-10.01100  10.133
 4.40 2.75 -0.128 -0.126 -0.121 -0.108 -0.083 13.90867 13.90916 -9.76087  13.512
 4.40 3.00 -0.038 -0.036 -0.031 -0.016  0.009 14.15866 14.15927 -9.51075  18.017
 4.40 3.20  0.051  0.054  0.059  0.074  0.102 14.35852 14.35934 -9.31070  22.680
 4.40 3.40  0.157  0.159  0.165  0.180  0.209 14.55837 14.55941 -9.11066  28.549
 4.40 3.60  0.280  0.282  0.288  0.303  0.332 14.75825 14.75953 -8.91059  35.937
 4.40 3.80  0.421  0.423  0.429  0.444  0.472 14.95816 14.95970 -8.71047  45.237
 4.40 4.00  0.576  0.578  0.583  0.597  0.625 15.15806 15.15987 -8.51032  56.942
 4.40 4.20  0.747  0.749  0.754  0.767  0.793 15.35789 15.36004 -8.31016  71.671
 4.40 4.40  0.928  0.930  0.935  0.946  0.969 15.55767 15.56021 -8.10995  90.206
 4.40 4.60  1.118  1.120  1.124  1.134  1.154 15.75739 15.76046 -7.90971 113.528
 4.40 4.80  1.315  1.316  1.320  1.328  1.346 15.95702 15.96085 -7.70936 142.869
 4.40 5.00  1.516  1.517  1.519  1.526  1.541 16.15655 16.16137 -7.50892 179.772
 4.40 5.20  1.723  1.724  1.726  1.732  1.744 16.35590 16.36196 -7.30829 226.151
 4.40 5.40  1.932  1.933  1.934  1.939  1.948 16.55501 16.56276 -7.10741 284.408
 4.40 5.60  2.143  2.144  2.145  2.149  2.156 16.75381 16.76390 -6.90620 357.546
 4.40 5.80  2.357  2.357  2.358  2.361  2.367 16.95209 16.96564 -6.70447 449.227
 4.40 6.00  2.569  2.569  2.570  2.572  2.576 17.14983 17.16791 -6.50224 564.071
 4.40 6.25  2.838  2.838  2.839  2.840  2.843 17.39582 17.42166 -6.24850 748.736
 4.40 6.50  3.105  3.105  3.105  3.106  3.108 17.64038 17.67660 -5.99353 992.234
 4.40 6.75  3.372  3.372  3.372  3.373  3.374 17.88329 17.93297 -5.737051312.452
 4.40 7.00  3.630  3.630  3.630  3.630  3.631 18.12385 18.19117 -5.478731731.367
 4.40 7.25  3.876  3.876  3.876  3.877  3.878 18.36099 18.45194 -5.218122274.814
 4.40 7.50  4.110  4.110  4.110  4.110  4.111 18.59362 18.71559 -4.954682973.290
 4.40 7.75  4.321  4.321  4.321  4.321  4.322 18.81862 18.98298 -4.687213852.589
 4.40 8.00  4.516  4.516  4.516  4.516  4.517 19.03703 19.25382 -4.416124954.447
 4.45-2.00 -0.439 -0.438 -0.438 -0.436 -0.433  9.12710  9.08991-14.58021   0.054
 4.45-1.50 -0.437 -0.436 -0.436 -0.434 -0.430  9.62716  9.58984-14.08024   0.096
 4.45-1.00 -0.434 -0.433 -0.433 -0.430 -0.426 10.12711 10.08990-13.58004   0.171
 4.45-0.50 -0.429 -0.429 -0.428 -0.425 -0.420 10.62675 10.59028-13.07988   0.303
 4.45 0.00 -0.423 -0.422 -0.421 -0.418 -0.411 11.12613 11.09096-12.57905   0.538
 4.45 0.50 -0.412 -0.411 -0.410 -0.405 -0.396 11.62418 11.59295-12.07712   0.951
 4.45 1.00 -0.393 -0.392 -0.390 -0.384 -0.372 12.12057 12.09726-11.57300   1.670
 4.45 1.25 -0.379 -0.378 -0.375 -0.368 -0.354 12.36795 12.34982-11.32034   2.208
 4.45 1.50 -0.358 -0.357 -0.354 -0.346 -0.330 12.61532 12.60239-11.06768   2.920
 4.45 1.75 -0.332 -0.330 -0.327 -0.318 -0.300 12.86326 12.85448-10.81555   3.866
 4.45 2.00 -0.297 -0.295 -0.292 -0.281 -0.261 13.11160 13.10619-10.56384   5.126
 4.45 2.25 -0.256 -0.254 -0.250 -0.239 -0.217 13.36041 13.35732-10.31271   6.810
 4.45 2.50 -0.206 -0.204 -0.200 -0.187 -0.164 13.60960 13.60810-10.06193   9.057
 4.45 2.75 -0.145 -0.143 -0.138 -0.125 -0.100 13.85920 13.85858 -9.81146  12.058
 4.45 3.00 -0.071 -0.069 -0.064 -0.050 -0.025 14.10890 14.10890 -9.56114  16.064
 4.45 3.20  0.002  0.004  0.009  0.023  0.049 14.30868 14.30907 -9.36098  20.219
 4.45 3.40  0.088  0.090  0.095  0.109  0.135 14.50850 14.50921 -9.16084  25.450
 4.45 3.60  0.190  0.192  0.197  0.211  0.237 14.70838 14.70934 -8.96073  32.035
 4.45 3.80  0.311  0.313  0.318  0.331  0.356 14.90830 14.90946 -8.76062  40.325
 4.45 4.00  0.446  0.448  0.453  0.465  0.489 15.10823 15.10958 -8.56051  50.760
 4.45 4.20  0.603  0.605  0.609  0.621  0.643 15.30812 15.30971 -8.36038  63.893
 4.45 4.40  0.772  0.774  0.777  0.788  0.808 15.50797 15.50984 -8.16022  80.423
 4.45 4.60  0.954  0.955  0.958  0.968  0.986 15.70777 15.71004 -7.96004 101.227
 4.45 4.80  1.146  1.147  1.150  1.158  1.175 15.90751 15.91031 -7.75982 127.410
 4.45 5.00  1.343  1.344  1.347  1.353  1.368 16.10721 16.11059 -7.55956 160.360
 4.45 5.20  1.549  1.550  1.552  1.558  1.570 16.30691 16.31087 -7.35928 201.810
 4.45 5.40  1.757  1.758  1.760  1.764  1.775 16.50657 16.51115 -7.15894 253.944
 4.45 5.60  1.968  1.969  1.970  1.974  1.982 16.70612 16.71157 -6.95846 319.508
 4.45 5.80  2.181  2.182  2.183  2.186  2.193 16.90543 16.91229 -6.75772 401.912
 4.45 6.00  2.395  2.396  2.396  2.399  2.404 17.10449 17.11327 -6.55674 505.442
 4.45 6.25  2.668  2.668  2.669  2.671  2.675 17.35271 17.36502 -6.30504 672.636
 4.45 6.50  2.940  2.940  2.941  2.942  2.945 17.60010 17.61753 -6.05262 894.276
 4.45 6.75  3.217  3.217  3.217  3.218  3.220 17.84615 17.87130 -5.798911187.207
 4.45 7.00  3.490  3.490  3.490  3.491  3.492 18.09061 18.12646 -5.543791573.227
 4.45 7.25  3.759  3.759  3.760  3.760  3.761 18.33298 18.38332 -5.286852079.512
 4.45 7.50  4.016  4.016  4.016  4.017  4.017 18.57264 18.64227 -5.027802740.030
 4.45 7.75  4.257  4.257  4.257  4.258  4.258 18.80808 18.90419 -4.765913592.796
 4.45 8.00  4.486  4.486  4.486  4.486  4.486 19.03981 19.16879 -4.501414690.716
 4.50-2.00 -0.438 -0.438 -0.437 -0.436 -0.432  9.07737  9.03981-14.63023   0.048
 4.50-1.50 -0.434 -0.434 -0.433 -0.431 -0.428  9.57715  9.53983-14.13024   0.086
 4.50-1.00 -0.430 -0.430 -0.429 -0.427 -0.423 10.07700 10.03981-13.63023   0.152
 4.50-0.50 -0.426 -0.425 -0.424 -0.422 -0.417 10.57715 10.53983-13.13024   0.270
 4.50 0.00 -0.420 -0.420 -0.419 -0.416 -0.409 11.07700 11.03981-12.63004   0.481
 4.50 0.50 -0.412 -0.411 -0.410 -0.406 -0.398 11.57680 11.54008-12.12995   0.855
 4.50 1.00 -0.397 -0.396 -0.394 -0.390 -0.380 12.07628 12.04060-11.62930   1.517
 4.50 1.25 -0.384 -0.383 -0.381 -0.376 -0.364 12.32575 12.29119-11.37876   2.020
 4.50 1.50 -0.366 -0.365 -0.363 -0.357 -0.344 12.57496 12.54208-11.12796   2.687
 4.50 1.75 -0.341 -0.340 -0.337 -0.330 -0.315 12.82364 12.79346-10.87647   3.568
 4.50 2.00 -0.307 -0.306 -0.303 -0.294 -0.278 13.07188 13.04532-10.62452   4.730
 4.50 2.25 -0.263 -0.262 -0.258 -0.249 -0.230 13.31946 13.29796-10.37200   6.257
 4.50 2.50 -0.210 -0.209 -0.205 -0.194 -0.173 13.56703 13.55060-10.11947   8.276
 4.50 2.75 -0.149 -0.147 -0.143 -0.131 -0.107 13.81472 13.80309 -9.86704  10.950
 4.50 3.00 -0.077 -0.075 -0.070 -0.056 -0.030 14.06258 14.05538 -9.61475  14.494
 4.50 3.20 -0.011 -0.009 -0.004  0.010  0.038 14.26131 14.25656 -9.41354  18.170
 4.50 3.40  0.064  0.066  0.072  0.087  0.116 14.46031 14.45749 -9.21259  22.800
 4.50 3.60  0.153  0.155  0.161  0.176  0.205 14.65964 14.65821 -9.01190  28.637
 4.50 3.80  0.256  0.258  0.264  0.279  0.307 14.85917 14.85877 -8.81139  35.995
 4.50 4.00  0.374  0.376  0.381  0.395  0.421 15.05881 15.05918 -8.61101  45.270
 4.50 4.20  0.512  0.514  0.519  0.531  0.555 15.25849 15.25942 -8.41080  56.972
 4.50 4.40  0.664  0.666  0.670  0.680  0.701 15.45822 15.45960 -8.21058  71.704
 4.50 4.60  0.832  0.833  0.836  0.845  0.863 15.65802 15.65972 -8.01037  90.250
 4.50 4.80  1.012  1.013  1.016  1.024  1.040 15.85784 15.85983 -7.81016 113.595
 4.50 5.00  1.199  1.200  1.202  1.209  1.222 16.05767 16.05994 -7.60995 142.979
 4.50 5.20  1.400  1.400  1.402  1.408  1.419 16.25744 16.26022 -7.40974 179.952
 4.50 5.40  1.603  1.604  1.605  1.610  1.619 16.45717 16.46056 -7.20952 226.476
 4.50 5.60  1.811  1.812  1.813  1.817  1.825 16.65688 16.66093 -7.00925 285.016
 4.50 5.80  2.024  2.024  2.025  2.028  2.035 16.85655 16.86135 -6.80886 358.660
 4.50 6.00  2.237  2.237  2.238  2.240  2.246 17.05614 17.06183 -6.60836 451.291
 4.50 6.25  2.508  2.508  2.509  2.511  2.515 17.30527 17.31262 -6.35755 601.220
 4.50 6.50  2.779  2.779  2.779  2.781  2.784 17.55400 17.56372 -6.10640 800.616
 4.50 6.75  3.058  3.058  3.058  3.059  3.062 17.80221 17.81554 -5.854641065.410
 4.50 7.00  3.337  3.337  3.337  3.338  3.339 18.04961 18.06819 -5.602061416.415
 4.50 7.25  3.617  3.617  3.618  3.618  3.619 18.29549 18.32203 -5.348161879.910
 4.50 7.50  3.892  3.893  3.893  3.893  3.894 18.53958 18.57738 -5.092702489.983
 4.50 7.75  4.158  4.158  4.158  4.158  4.159 18.78081 18.83507 -4.834933287.287
 4.50 8.00  4.408  4.408  4.408  4.408  4.408 19.01953 19.09482 -4.575124327.515
 4.55-2.00 -0.439 -0.438 -0.438 -0.437 -0.433  9.02735  8.98985-14.68027   0.043
 4.55-1.50 -0.436 -0.436 -0.436 -0.434 -0.431  9.52711  9.48982-14.18026   0.076
 4.55-1.00 -0.432 -0.432 -0.432 -0.430 -0.426 10.02735  9.98985-13.68027   0.136
 4.55-0.50 -0.427 -0.427 -0.426 -0.424 -0.419 10.52711 10.48982-13.18026   0.241
 4.55 0.00 -0.420 -0.420 -0.419 -0.416 -0.410 11.02735 10.98989-12.68027   0.429
 4.55 0.50 -0.411 -0.411 -0.410 -0.406 -0.399 11.52711 11.48996-12.18019   0.762
 4.55 1.00 -0.399 -0.398 -0.397 -0.393 -0.384 12.02694 11.99003-11.68006   1.355
 4.55 1.25 -0.390 -0.390 -0.388 -0.383 -0.373 12.27690 12.24006-11.43000   1.807
 4.55 1.50 -0.378 -0.377 -0.376 -0.370 -0.359 12.52686 12.49010-11.17993   2.409
 4.55 1.75 -0.361 -0.360 -0.358 -0.352 -0.339 12.77674 12.74032-10.92975   3.211
 4.55 2.00 -0.336 -0.335 -0.332 -0.326 -0.311 13.02653 12.99069-10.67944   4.277
 4.55 2.25 -0.299 -0.298 -0.296 -0.288 -0.272 13.27600 13.24119-10.42891   5.695
 4.55 2.50 -0.250 -0.249 -0.246 -0.237 -0.220 13.52518 13.49192-10.17809   7.576
 4.55 2.75 -0.185 -0.184 -0.180 -0.171 -0.151 13.77401 13.74323 -9.92683  10.064
 4.55 3.00 -0.105 -0.104 -0.100 -0.089 -0.068 14.02243 13.99502 -9.67510  13.350
 4.55 3.20 -0.031 -0.030 -0.026 -0.014  0.008 14.22049 14.19705 -9.47306  16.701
 4.55 3.40  0.049  0.051  0.055  0.068  0.092 14.41856 14.39908 -9.27101  20.892
 4.55 3.60  0.138  0.140  0.144  0.158  0.184 14.61663 14.60112 -9.06897  26.133
 4.55 3.80  0.236  0.238  0.243  0.257  0.284 14.81472 14.80315 -8.86695  32.688
 4.55 4.00  0.346  0.348  0.352  0.367  0.394 15.01284 15.00518 -8.66494  40.887
 4.55 4.20  0.469  0.471  0.475  0.489  0.515 15.21138 15.20651 -8.46359  51.229
 4.55 4.40  0.606  0.607  0.611  0.624  0.648 15.41022 15.40757 -8.26252  64.252
 4.55 4.60  0.757  0.759  0.763  0.774  0.795 15.60949 15.60835 -8.06177  80.683
 4.55 4.80  0.923  0.924  0.927  0.936  0.955 15.80903 15.80897 -7.86120 101.409
 4.55 5.00  1.097  1.098  1.100  1.108  1.122 16.00860 16.00945 -7.66075 127.536
 4.55 5.20  1.286  1.286  1.288  1.294  1.307 16.20817 16.20978 -7.46041 160.490
 4.55 5.40  1.478  1.479  1.481  1.485  1.495 16.40777 16.41011 -7.26006 201.966
 4.55 5.60  1.679  1.679  1.680  1.684  1.692 16.60745 16.61045 -7.05972 254.168
 4.55 5.80  1.885  1.886  1.887  1.890  1.897 16.80717 16.81079 -6.85935 319.866
 4.55 6.00  2.093  2.093  2.094  2.096  2.102 17.00690 17.01115 -6.65896 402.544
 4.55 6.25  2.361  2.361  2.362  2.364  2.368 17.25633 17.26166 -6.40846 536.465
 4.55 6.50  2.628  2.628  2.629  2.630  2.633 17.50556 17.51229 -6.15789 714.804
 4.55 6.75  2.902  2.902  2.902  2.903  2.905 17.75449 17.76321 -5.90696 952.157
 4.55 7.00  3.179  3.179  3.179  3.180  3.181 18.00303 18.01452 -5.655611267.763
 4.55 7.25  3.460  3.460  3.461  3.461  3.462 18.25103 18.26653 -5.403601686.546
 4.55 7.50  3.741  3.741  3.741  3.741  3.742 18.49817 18.51944 -5.150702241.185
 4.55 7.75  4.018  4.018  4.018  4.018  4.019 18.74336 18.77393 -4.896212972.136
 4.55 8.00  4.286  4.286  4.286  4.287  4.287 18.98695 19.02979 -4.640363934.669
 4.60-2.00 -0.435 -0.435 -0.435 -0.434 -0.430  8.97717  8.93982-14.73025   0.038
 4.60-1.50 -0.434 -0.434 -0.434 -0.432 -0.429  9.47712  9.43981-14.23025   0.068
 4.60-1.00 -0.432 -0.432 -0.432 -0.430 -0.426  9.97717  9.93987-13.73025   0.121
 4.60-0.50 -0.429 -0.429 -0.429 -0.427 -0.422 10.47712 10.43981-13.23025   0.215
 4.60 0.00 -0.425 -0.425 -0.424 -0.422 -0.417 10.97717 10.93987-12.73025   0.382
 4.60 0.50 -0.417 -0.417 -0.416 -0.414 -0.407 11.47712 11.43981-12.23025   0.679
 4.60 1.00 -0.406 -0.406 -0.405 -0.401 -0.394 11.97708 11.93992-11.73025   1.208
 4.60 1.25 -0.398 -0.398 -0.397 -0.393 -0.384 12.22703 12.18994-11.48018   1.611
 4.60 1.50 -0.388 -0.388 -0.386 -0.382 -0.372 12.47698 12.43996-11.23011   2.148
 4.60 1.75 -0.375 -0.375 -0.373 -0.368 -0.356 12.72696 12.69001-10.98006   2.864
 4.60 2.00 -0.357 -0.356 -0.354 -0.348 -0.335 12.97695 12.94007-10.73002   3.819
 4.60 2.25 -0.332 -0.331 -0.329 -0.322 -0.307 13.22684 13.19015-10.47994   5.091
 4.60 2.50 -0.296 -0.295 -0.292 -0.285 -0.268 13.47669 13.44028-10.22981   6.786
 4.60 2.75 -0.246 -0.245 -0.242 -0.233 -0.215 13.72651 13.69051 -9.97962   9.043
 4.60 3.00 -0.179 -0.178 -0.175 -0.165 -0.145 13.97626 13.94087 -9.72932  12.047
 4.60 3.20 -0.110 -0.109 -0.106 -0.095 -0.074 14.17587 14.14131 -9.52888  15.147
 4.60 3.40 -0.029 -0.028 -0.024 -0.013  0.009 14.37530 14.34194 -9.32823  19.034
 4.60 3.60  0.065  0.067  0.071  0.082  0.105 14.57449 14.54281 -9.12729  23.901
 4.60 3.80  0.174  0.176  0.180  0.191  0.214 14.77336 14.74402 -8.92602  29.979
 4.60 4.00  0.294  0.295  0.299  0.310  0.334 14.97193 14.94552 -8.72446  37.567
 4.60 4.20  0.425  0.426  0.430  0.441  0.464 15.16990 15.14760 -8.52243  46.985
 4.60 4.40  0.564  0.565  0.569  0.580  0.602 15.36788 15.34967 -8.32041  58.764
 4.60 4.60  0.712  0.713  0.716  0.727  0.747 15.56588 15.55174 -8.11839  73.497
 4.60 4.80  0.868  0.869  0.872  0.881  0.900 15.76396 15.75374 -7.91640  91.929
 4.60 5.00  1.032  1.033  1.035  1.043  1.060 15.96213 15.95569 -7.71444 114.990
 4.60 5.20  1.205  1.206  1.208  1.215  1.229 16.16072 16.15706 -7.51306 144.062
 4.60 5.40  1.385  1.386  1.387  1.393  1.404 16.35957 16.35818 -7.31194 180.680
 4.60 5.60  1.573  1.573  1.575  1.579  1.589 16.55876 16.55902 -7.11114 226.986
 4.60 5.80  1.768  1.768  1.770  1.773  1.781 16.75815 16.75968 -6.91051 285.465
 4.60 6.00  1.966  1.966  1.967  1.970  1.975 16.95761 16.96023 -6.70997 359.110
 4.60 6.25  2.224  2.224  2.225  2.227  2.232 17.20699 17.21079 -6.45935 478.543
 4.60 6.50  2.484  2.484  2.484  2.486  2.489 17.45637 17.46135 -6.20873 637.696
 4.60 6.75  2.747  2.747  2.747  2.748  2.751 17.70567 17.71206 -5.95798 849.698
 4.60 7.00  3.017  3.017  3.017  3.018  3.019 17.95487 17.96294 -5.707081132.024
 4.60 7.25  3.292  3.292  3.293  3.293  3.295 18.20365 18.21410 -5.455931507.475
 4.60 7.50  3.569  3.569  3.569  3.569  3.570 18.45194 18.46568 -5.204402006.334
 4.60 7.75  3.845  3.845  3.846  3.846  3.847 18.69931 18.71823 -4.951862667.375
 4.60 8.00  4.118  4.118  4.118  4.118  4.118 18.94591 18.97155 -4.698543542.985
 4.65-2.00 -0.433 -0.433 -0.433 -0.431 -0.427  8.92722  8.88986-14.78015   0.034
 4.65-1.50 -0.432 -0.432 -0.431 -0.430 -0.426  9.42716  9.38987-14.28025   0.061
 4.65-1.00 -0.430 -0.430 -0.429 -0.428 -0.423  9.92722  9.88986-13.78015   0.108
 4.65-0.50 -0.428 -0.428 -0.427 -0.426 -0.421 10.42716 10.38988-13.28026   0.192
 4.65 0.00 -0.425 -0.425 -0.425 -0.423 -0.418 10.92717 10.88986-12.78015   0.341
 4.65 0.50 -0.421 -0.421 -0.420 -0.418 -0.412 11.42716 11.38988-12.28025   0.606
 4.65 1.00 -0.414 -0.413 -0.413 -0.410 -0.403 11.92711 11.88992-11.78015   1.077
 4.65 1.25 -0.408 -0.408 -0.407 -0.404 -0.397 12.17706 12.13990-11.53016   1.436
 4.65 1.50 -0.402 -0.401 -0.400 -0.397 -0.389 12.42700 12.38987-11.28017   1.915
 4.65 1.75 -0.392 -0.391 -0.390 -0.386 -0.377 12.67703 12.63995-11.03017   2.553
 4.65 2.00 -0.379 -0.379 -0.377 -0.373 -0.362 12.92706 12.89003-10.78015   3.404
 4.65 2.25 -0.361 -0.360 -0.359 -0.353 -0.342 13.17704 13.14004-10.53008   4.539
 4.65 2.50 -0.335 -0.335 -0.333 -0.327 -0.313 13.42700 13.39005-10.28001   6.052
 4.65 2.75 -0.299 -0.298 -0.296 -0.289 -0.273 13.67694 13.64013-10.02995   8.069
 4.65 3.00 -0.248 -0.247 -0.245 -0.237 -0.219 13.92686 13.89025 -9.77989  10.758
 4.65 3.20 -0.195 -0.194 -0.191 -0.182 -0.162 14.12675 14.09036 -9.57980  13.539
 4.65 3.40 -0.128 -0.127 -0.124 -0.114 -0.092 14.32660 14.29050 -9.37967  17.037
 4.65 3.60 -0.046 -0.045 -0.042 -0.031 -0.008 14.52642 14.49068 -9.17950  21.437
 4.65 3.80  0.050  0.051  0.055  0.066  0.090 14.72619 14.69095 -8.97922  26.966
 4.65 4.00  0.162  0.164  0.167  0.178  0.203 14.92588 14.89131 -8.77885  33.913
 4.65 4.20  0.292  0.294  0.297  0.308  0.332 15.12532 15.09184 -8.57826  42.622
 4.65 4.40  0.436  0.438  0.441  0.452  0.474 15.32454 15.29259 -8.37745  53.531
 4.65 4.60  0.594  0.595  0.599  0.608  0.629 15.52350 15.49370 -8.17634  67.167
 4.65 4.80  0.763  0.764  0.767  0.775  0.794 15.72217 15.69522 -7.97489  84.180
 4.65 5.00  0.937  0.938  0.940  0.948  0.964 15.92054 15.89702 -7.77314 105.402
 4.65 5.20  1.116  1.116  1.118  1.125  1.139 16.11838 16.09919 -7.57093 131.765
 4.65 5.40  1.296  1.296  1.298  1.303  1.316 16.31622 16.30135 -7.36871 164.722
 4.65 5.60  1.477  1.478  1.479  1.484  1.494 16.51415 16.50346 -7.16658 205.953
 4.65 5.80  1.662  1.662  1.664  1.667  1.676 16.71232 16.70538 -6.96467 257.648
 4.65 6.00  1.849  1.849  1.850  1.853  1.861 16.91068 16.90714 -6.76296 322.491
 4.65 6.25  2.092  2.092  2.093  2.095  2.101 17.15914 17.15870 -6.51141 428.152
 4.65 6.50  2.338  2.338  2.339  2.340  2.344 17.40790 17.40993 -6.26019 569.334
 4.65 6.75  2.589  2.589  2.590  2.591  2.594 17.65698 17.66084 -6.00932 758.431
 4.65 7.00  2.844  2.844  2.844  2.845  2.847 17.90607 17.91174 -5.758451010.334
 4.65 7.25  3.109  3.109  3.109  3.109  3.111 18.15508 18.16272 -5.507471345.753
 4.65 7.50  3.374  3.374  3.374  3.375  3.376 18.40398 18.41380 -5.256331792.252
 4.65 7.75  3.642  3.642  3.642  3.643  3.644 18.65234 18.66539 -5.004732385.521
 4.65 8.00  3.909  3.909  3.909  3.909  3.910 18.90031 18.91735 -4.752763173.794
 4.70-2.00 -0.433 -0.433 -0.433 -0.431 -0.427  8.87720  8.83986-14.83033   0.030
 4.70-1.50 -0.431 -0.430 -0.430 -0.428 -0.424  9.37712  9.33985-14.33031   0.054
 4.70-1.00 -0.428 -0.428 -0.427 -0.425 -0.421  9.87720  9.83986-13.83033   0.096
 4.70-0.50 -0.426 -0.425 -0.425 -0.423 -0.418 10.37712 10.33985-13.33022   0.171
 4.70 0.00 -0.423 -0.423 -0.422 -0.420 -0.415 10.87714 10.83986-12.83033   0.304
 4.70 0.50 -0.420 -0.420 -0.419 -0.417 -0.411 11.37712 11.33985-12.33022   0.540
 4.70 1.00 -0.415 -0.415 -0.414 -0.412 -0.406 11.87714 11.83992-11.83003   0.960
 4.70 1.25 -0.412 -0.412 -0.411 -0.409 -0.402 12.12714 12.08988-11.58013   1.280
 4.70 1.50 -0.408 -0.407 -0.407 -0.404 -0.397 12.37712 12.33985-11.33022   1.706
 4.70 1.75 -0.402 -0.401 -0.400 -0.397 -0.390 12.62711 12.58992-11.08013   2.275
 4.70 2.00 -0.394 -0.393 -0.392 -0.389 -0.380 12.87708 12.83998-10.83003   3.034
 4.70 2.25 -0.382 -0.382 -0.381 -0.377 -0.367 13.12701 13.09002-10.58008   4.046
 4.70 2.50 -0.366 -0.366 -0.364 -0.360 -0.349 13.37694 13.34005-10.33013   5.395
 4.70 2.75 -0.343 -0.342 -0.340 -0.335 -0.323 13.62696 13.59008-10.08010   7.193
 4.70 3.00 -0.309 -0.308 -0.306 -0.300 -0.286 13.87697 13.84011 -9.83003   9.591
 4.70 3.20 -0.271 -0.270 -0.268 -0.261 -0.245 14.07688 14.04015 -9.62996  12.073
 4.70 3.40 -0.221 -0.220 -0.218 -0.210 -0.192 14.27680 14.24021 -9.42988  15.196
 4.70 3.60 -0.158 -0.157 -0.154 -0.146 -0.126 14.47673 14.44028 -9.22983  19.127
 4.70 3.80 -0.079 -0.078 -0.075 -0.066 -0.044 14.67668 14.64038 -9.02978  24.074
 4.70 4.00  0.015  0.016  0.020  0.030  0.053 14.87662 14.84048 -8.82974  30.298
 4.70 4.20  0.128  0.129  0.133  0.144  0.168 15.07643 15.04060 -8.62955  38.125
 4.70 4.40  0.258  0.259  0.262  0.273  0.298 15.27618 15.24075 -8.42927  47.965
 4.70 4.60  0.403  0.405  0.408  0.419  0.443 15.47589 15.44101 -8.22894  60.332
 4.70 4.80  0.564  0.565  0.568  0.578  0.602 15.67555 15.64147 -8.02852  75.860
 4.70 5.00  0.735  0.736  0.739  0.749  0.770 15.87512 15.84211 -7.82798  95.345
 4.70 5.20  0.919  0.920  0.922  0.930  0.949 16.07430 16.04298 -7.62714 119.728
 4.70 5.40  1.108  1.109  1.111  1.118  1.134 16.27320 16.24411 -7.42600 150.211
 4.70 5.60  1.301  1.302  1.304  1.310  1.323 16.47176 16.44565 -7.22443 188.217
 4.70 5.80  1.496  1.497  1.498  1.503  1.515 16.67002 16.64753 -7.02253 235.574
 4.70 6.00  1.691  1.691  1.692  1.696  1.706 16.86806 16.84960 -6.82045 294.635
 4.70 6.25  1.933  1.933  1.934  1.937  1.944 17.11527 17.10243 -6.56767 389.321
 4.70 6.50  2.174  2.174  2.175  2.177  2.183 17.36248 17.35526 -6.31489 514.435
 4.70 6.75  2.417  2.418  2.418  2.420  2.424 17.61031 17.60747 -6.06266 680.968
 4.70 7.00  2.649  2.650  2.650  2.651  2.654 17.85848 17.85932 -5.81079 902.958
 4.70 7.25  2.900  2.900  2.900  2.901  2.903 18.10705 18.11071 -5.559411202.168
 4.70 7.50  3.152  3.152  3.152  3.152  3.154 18.35564 18.36211 -5.308041600.526
 4.70 7.75  3.407  3.407  3.407  3.407  3.409 18.60424 18.61351 -5.056632130.848
 4.70 8.00  3.662  3.662  3.662  3.662  3.663 18.85285 18.86493 -4.805212836.854
 4.75-2.00 -0.434 -0.434 -0.434 -0.432 -0.428  8.82718  8.78986-14.88008   0.027
 4.75-1.50 -0.432 -0.432 -0.432 -0.430 -0.426  9.32715  9.28981-14.38028   0.048
 4.75-1.00 -0.430 -0.430 -0.429 -0.427 -0.423  9.82718  9.78986-13.88008   0.086
 4.75-0.50 -0.426 -0.426 -0.426 -0.424 -0.419 10.32716 10.28981-13.38028   0.152
 4.75 0.00 -0.422 -0.422 -0.421 -0.419 -0.414 10.82718 10.78986-12.88008   0.271
 4.75 0.50 -0.418 -0.417 -0.417 -0.414 -0.408 11.32716 11.28981-12.38028   0.481
 4.75 1.00 -0.413 -0.413 -0.412 -0.410 -0.403 11.82718 11.78993-11.88008   0.855
 4.75 1.25 -0.411 -0.411 -0.410 -0.407 -0.400 12.07717 12.03987-11.63013   1.140
 4.75 1.50 -0.408 -0.408 -0.407 -0.404 -0.397 12.32716 12.28981-11.38018   1.521
 4.75 1.75 -0.404 -0.404 -0.403 -0.400 -0.393 12.57714 12.53987-11.13013   2.028
 4.75 2.00 -0.399 -0.399 -0.398 -0.395 -0.387 12.82711 12.78993-10.88008   2.704
 4.75 2.25 -0.392 -0.392 -0.391 -0.387 -0.379 13.07703 13.03999-10.63007   3.606
 4.75 2.50 -0.382 -0.382 -0.381 -0.377 -0.368 13.32695 13.29003-10.38007   4.808
 4.75 2.75 -0.368 -0.367 -0.366 -0.362 -0.352 13.57697 13.54006-10.13008   6.411
 4.75 3.00 -0.347 -0.346 -0.345 -0.340 -0.329 13.82698 13.79007 -9.88008   8.549
 4.75 3.20 -0.323 -0.322 -0.320 -0.315 -0.303 14.02698 13.99006 -9.68005  10.761
 4.75 3.40 -0.291 -0.290 -0.288 -0.282 -0.268 14.22696 14.19004 -9.48000  13.546
 4.75 3.60 -0.247 -0.247 -0.245 -0.238 -0.223 14.42693 14.39009 -9.27993  17.051
 4.75 3.80 -0.191 -0.190 -0.188 -0.181 -0.163 14.62686 14.59019 -9.07984  21.464
 4.75 4.00 -0.120 -0.119 -0.117 -0.108 -0.089 14.82679 14.79029 -8.87976  27.018
 4.75 4.20 -0.030 -0.029 -0.027 -0.018  0.003 15.02670 14.99036 -8.67972  34.006
 4.75 4.40  0.075  0.076  0.079  0.089  0.112 15.22660 15.19044 -8.47968  42.799
 4.75 4.60  0.200  0.201  0.205  0.215  0.239 15.42649 15.39054 -8.27956  53.862
 4.75 4.80  0.343  0.344  0.347  0.358  0.382 15.62636 15.59070 -8.07935  67.778
 4.75 5.00  0.500  0.501  0.504  0.514  0.539 15.82621 15.79092 -7.87910  85.280
 4.75 5.20  0.671  0.672  0.675  0.685  0.708 16.02593 15.99120 -7.67885 107.277
 4.75 5.40  0.852  0.853  0.855  0.864  0.886 16.22554 16.19158 -7.47857 134.907
 4.75 5.60  1.040  1.040  1.043  1.051  1.070 16.42506 16.39209 -7.27815 169.590
 4.75 5.80  1.233  1.234  1.236  1.243  1.260 16.62443 16.59280 -7.07744 213.046
 4.75 6.00  1.430  1.431  1.433  1.439  1.453 16.82360 16.79372 -6.87648 267.452
 4.75 6.25  1.680  1.681  1.682  1.687  1.699 17.07201 17.04539 -6.62468 354.750
 4.75 6.50  1.933  1.933  1.934  1.938  1.947 17.31994 17.29754 -6.37243 469.801
 4.75 6.75  2.183  2.183  2.184  2.187  2.194 17.56716 17.55047 -6.11961 620.757
 4.75 7.00  2.422  2.423  2.423  2.425  2.431 17.81438 17.80339 -5.86678 820.217
 4.75 7.25  2.667  2.667  2.667  2.669  2.673 18.06172 18.05609 -5.614041083.953
 4.75 7.50  2.911  2.911  2.911  2.912  2.915 18.30920 18.30857 -5.361411432.939
 4.75 7.75  3.154  3.154  3.155  3.155  3.157 18.55709 18.56069 -5.109321903.069
 4.75 8.00  3.398  3.398  3.399  3.399  3.401 18.80530 18.81251 -4.857612535.517
 4.80-2.00 -0.433 -0.433 -0.433 -0.431 -0.427  8.77721  8.73981-14.93033   0.024
 4.80-1.50 -0.432 -0.432 -0.432 -0.430 -0.426  9.27715  9.23980-14.43027   0.043
 4.80-1.00 -0.431 -0.431 -0.430 -0.428 -0.424  9.77721  9.73981-13.93033   0.076
 4.80-0.50 -0.428 -0.428 -0.428 -0.426 -0.421 10.27715 10.23980-13.43027   0.136
 4.80 0.00 -0.425 -0.425 -0.425 -0.423 -0.417 10.77721 10.73989-12.93033   0.241
 4.80 0.50 -0.421 -0.421 -0.420 -0.418 -0.412 11.27715 11.23980-12.43027   0.429
 4.80 1.00 -0.415 -0.414 -0.414 -0.411 -0.405 11.77714 11.73989-11.93033   0.762
 4.80 1.25 -0.411 -0.411 -0.410 -0.408 -0.401 12.02714 11.98984-11.68025   1.016
 4.80 1.50 -0.407 -0.407 -0.406 -0.403 -0.396 12.27715 12.23980-11.43016   1.356
 4.80 1.75 -0.403 -0.402 -0.401 -0.398 -0.390 12.52715 12.48988-11.18006   1.808
 4.80 2.00 -0.397 -0.397 -0.396 -0.393 -0.385 12.77714 12.73997-10.92996   2.410
 4.80 2.25 -0.392 -0.392 -0.391 -0.388 -0.379 13.02703 12.99002-10.68006   3.214
 4.80 2.50 -0.386 -0.385 -0.384 -0.381 -0.371 13.27692 13.24005-10.43016   4.286
 4.80 2.75 -0.376 -0.376 -0.375 -0.371 -0.361 13.52696 13.49005-10.18006   5.715
 4.80 3.00 -0.364 -0.363 -0.362 -0.358 -0.348 13.77699 13.74005 -9.92996   7.620
 4.80 3.20 -0.349 -0.349 -0.347 -0.343 -0.332 13.97696 13.94005 -9.72999   9.592
 4.80 3.40 -0.330 -0.329 -0.328 -0.323 -0.312 14.17694 14.14005 -9.53003  12.074
 4.80 3.60 -0.302 -0.302 -0.300 -0.296 -0.283 14.37691 14.34008 -9.33003  15.199
 4.80 3.80 -0.265 -0.265 -0.263 -0.258 -0.244 14.57688 14.54014 -9.13001  19.133
 4.80 4.00 -0.218 -0.217 -0.215 -0.209 -0.194 14.77685 14.74020 -8.92996  24.084
 4.80 4.20 -0.154 -0.153 -0.151 -0.145 -0.128 14.97679 14.94024 -8.72991  30.315
 4.80 4.40 -0.075 -0.075 -0.072 -0.065 -0.046 15.17673 15.14028 -8.52984  38.158
 4.80 4.60  0.021  0.021  0.024  0.032  0.053 15.37666 15.34035 -8.32977  48.028
 4.80 4.80  0.137  0.138  0.140  0.149  0.171 15.57658 15.54046 -8.12969  60.449
 4.80 5.00  0.269  0.270  0.273  0.282  0.305 15.77648 15.74060 -7.92959  76.080
 4.80 5.20  0.421  0.422  0.425  0.434  0.457 15.97630 15.94076 -7.72942  95.741
 4.80 5.40  0.586  0.587  0.590  0.599  0.622 16.17611 16.14095 -7.52922 120.469
 4.80 5.60  0.763  0.764  0.766  0.775  0.797 16.37590 16.34115 -7.32900 151.569
 4.80 5.80  0.949  0.949  0.952  0.960  0.980 16.57569 16.54140 -7.12876 190.664
 4.80 6.00  1.140  1.141  1.143  1.151  1.169 16.77547 16.74170 -6.92849 239.791
 4.80 6.25  1.383  1.384  1.386  1.392  1.408 17.02485 16.99234 -6.67780 319.144
 4.80 6.50  1.630  1.631  1.633  1.638  1.651 17.27393 17.24329 -6.42678 424.373
 4.80 6.75  1.880  1.881  1.882  1.886  1.897 17.52262 17.49472 -6.17530 563.452
 4.80 7.00  2.132  2.133  2.134  2.137  2.146 17.77085 17.74664 -5.92336 746.936
 4.80 7.25  2.379  2.380  2.380  2.383  2.390 18.01831 17.99926 -5.67077 987.752
 4.80 7.50  2.630  2.631  2.631  2.633  2.638 18.26553 18.25212 -5.417941305.035
 4.80 7.75  2.875  2.875  2.875  2.876  2.880 18.51263 18.50510 -5.164981723.474
 4.80 8.00  3.117  3.117  3.117  3.118  3.121 18.75959 18.75823 -4.911862274.728
 4.85-2.00 -0.433 -0.433 -0.432 -0.431 -0.427  8.72722  8.68984-14.98005   0.021
 4.85-1.50 -0.431 -0.431 -0.430 -0.429 -0.425  9.22712  9.18977-14.48030   0.038
 4.85-1.00 -0.429 -0.429 -0.429 -0.427 -0.422  9.72722  9.68984-13.98005   0.068
 4.85-0.50 -0.428 -0.428 -0.427 -0.425 -0.420 10.22712 10.18977-13.48030   0.121
 4.85 0.00 -0.426 -0.426 -0.425 -0.423 -0.418 10.72722 10.68984-12.98005   0.215
 4.85 0.50 -0.423 -0.423 -0.422 -0.420 -0.415 11.22711 11.18977-12.48030   0.382
 4.85 1.00 -0.419 -0.419 -0.418 -0.416 -0.410 11.72713 11.68984-11.98005   0.679
 4.85 1.25 -0.416 -0.416 -0.415 -0.413 -0.407 11.97713 11.93981-11.73011   0.906
 4.85 1.50 -0.413 -0.413 -0.412 -0.409 -0.403 12.22712 12.18977-11.48017   1.208
 4.85 1.75 -0.408 -0.408 -0.407 -0.405 -0.398 12.47713 12.43985-11.23011   1.611
 4.85 2.00 -0.403 -0.403 -0.402 -0.399 -0.392 12.72713 12.68993-10.98005   2.148
 4.85 2.25 -0.396 -0.396 -0.395 -0.392 -0.384 12.97713 12.94000-10.73011   2.865
 4.85 2.50 -0.388 -0.388 -0.387 -0.383 -0.375 13.22712 13.19005-10.48017   3.820
 4.85 2.75 -0.379 -0.378 -0.377 -0.374 -0.364 13.47709 13.44004-10.23011   5.094
 4.85 3.00 -0.367 -0.367 -0.366 -0.362 -0.351 13.72705 13.69002 -9.98005   6.792
 4.85 3.20 -0.356 -0.356 -0.355 -0.351 -0.340 13.92698 13.89002 -9.78004   8.550
 4.85 3.40 -0.343 -0.342 -0.341 -0.337 -0.326 14.12690 14.09004 -9.58004  10.762
 4.85 3.60 -0.325 -0.325 -0.324 -0.319 -0.307 14.32686 14.29008 -9.38004  13.548
 4.85 3.80 -0.302 -0.302 -0.300 -0.296 -0.283 14.52688 14.49014 -9.18005  17.054
 4.85 4.00 -0.272 -0.271 -0.270 -0.265 -0.252 14.72689 14.69020 -8.98005  21.468
 4.85 4.20 -0.230 -0.229 -0.228 -0.223 -0.209 14.92689 14.89025 -8.77994  27.023
 4.85 4.40 -0.176 -0.176 -0.174 -0.169 -0.153 15.12687 15.09031 -8.57983  34.014
 4.85 4.60 -0.107 -0.107 -0.105 -0.099 -0.083 15.32683 15.29036 -8.37975  42.814
 4.85 4.80 -0.021 -0.020 -0.018 -0.012  0.005 15.52675 15.49041 -8.17970  53.890
 4.85 5.00  0.081  0.081  0.083  0.091  0.109 15.72665 15.69046 -7.97964  67.831
 4.85 5.20  0.205  0.206  0.208  0.215  0.235 15.92653 15.89052 -7.77956  85.369
 4.85 5.40  0.345  0.346  0.348  0.356  0.376 16.12641 16.09058 -7.57945 107.435
 4.85 5.60  0.502  0.503  0.505  0.513  0.533 16.32628 16.29069 -7.37927 135.202
 4.85 5.80  0.673  0.674  0.676  0.684  0.704 16.52614 16.49087 -7.17904 170.137
 4.85 6.00  0.855  0.855  0.857  0.864  0.883 16.72599 16.69108 -6.97881 214.085
 4.85 6.25  1.091  1.091  1.093  1.100  1.117 16.97570 16.94137 -6.72858 285.232
 4.85 6.50  1.332  1.333  1.334  1.340  1.355 17.22531 17.19173 -6.47834 379.890
 4.85 6.75  1.575  1.575  1.577  1.582  1.595 17.47478 17.44236 -6.22770 505.689
 4.85 7.00  1.824  1.825  1.826  1.830  1.841 17.72403 17.69329 -5.97675 672.628
 4.85 7.25  2.067  2.068  2.069  2.072  2.082 17.97283 17.94464 -5.72549 893.416
 4.85 7.50  2.317  2.317  2.318  2.321  2.328 18.22116 18.19645 -5.473791184.877
 4.85 7.75  2.563  2.563  2.564  2.566  2.572 18.46886 18.44883 -5.221321568.211
 4.85 8.00  2.812  2.812  2.812  2.814  2.818 18.71601 18.70174 -4.968192071.683
 4.90-2.00 -0.435 -0.435 -0.434 -0.433 -0.430  8.67724  8.63979-15.03026   0.019
 4.90-1.50 -0.433 -0.432 -0.432 -0.431 -0.427  9.17725  9.13988-14.53032   0.034
 4.90-1.00 -0.430 -0.430 -0.429 -0.428 -0.424  9.67724  9.63988-14.03026   0.061
 4.90-0.50 -0.427 -0.427 -0.426 -0.425 -0.420 10.17725 10.13988-13.53033   0.108
 4.90 0.00 -0.424 -0.424 -0.423 -0.422 -0.416 10.67715 10.63988-13.03021   0.192
 4.90 0.50 -0.421 -0.421 -0.420 -0.418 -0.413 11.17725 11.13988-12.53033   0.341
 4.90 1.00 -0.418 -0.418 -0.417 -0.415 -0.409 11.67715 11.63988-12.03021   0.606
 4.90 1.25 -0.417 -0.416 -0.416 -0.413 -0.407 11.92720 11.88988-11.78019   0.808
 4.90 1.50 -0.414 -0.414 -0.414 -0.411 -0.405 12.17725 12.13988-11.53018   1.077
 4.90 1.75 -0.412 -0.411 -0.411 -0.408 -0.402 12.42722 12.38988-11.28017   1.436
 4.90 2.00 -0.408 -0.408 -0.407 -0.405 -0.398 12.67715 12.63988-11.03017   1.915
 4.90 2.25 -0.404 -0.403 -0.403 -0.400 -0.392 12.92706 12.88988-10.78017   2.554
 4.90 2.50 -0.398 -0.397 -0.397 -0.394 -0.386 13.17696 13.13988-10.53018   3.405
 4.90 2.75 -0.389 -0.389 -0.388 -0.385 -0.376 13.42701 13.38993-10.28013   4.540
 4.90 3.00 -0.379 -0.378 -0.377 -0.374 -0.365 13.67706 13.63999-10.03007   6.054
 4.90 3.20 -0.367 -0.367 -0.366 -0.363 -0.353 13.87702 13.83994 -9.83006   7.621
 4.90 3.40 -0.354 -0.354 -0.353 -0.349 -0.339 14.07698 14.03990 -9.63004   9.593
 4.90 3.60 -0.338 -0.337 -0.336 -0.332 -0.321 14.27696 14.23992 -9.43001  12.076
 4.90 3.80 -0.318 -0.318 -0.317 -0.313 -0.301 14.47696 14.44000 -9.22997  15.201
 4.90 4.00 -0.294 -0.294 -0.293 -0.288 -0.276 14.67697 14.64008 -9.02993  19.136
 4.90 4.20 -0.265 -0.264 -0.263 -0.258 -0.245 14.87685 14.84013 -8.82991  24.087
 4.90 4.40 -0.227 -0.227 -0.225 -0.220 -0.206 15.07673 15.04017 -8.62989  30.320
 4.90 4.60 -0.179 -0.179 -0.177 -0.172 -0.157 15.27668 15.24023 -8.42985  38.165
 4.90 4.80 -0.118 -0.118 -0.116 -0.111 -0.095 15.47669 15.44031 -8.22977  48.040
 4.90 5.00 -0.044 -0.044 -0.042 -0.036 -0.020 15.67669 15.64038 -8.02970  60.469
 4.90 5.20  0.049  0.050  0.051  0.057  0.074 15.87657 15.84043 -7.82966  76.109
 4.90 5.40  0.160  0.160  0.162  0.168  0.185 16.07644 16.04048 -7.62961  95.791
 4.90 5.60  0.289  0.290  0.292  0.298  0.315 16.27635 16.24058 -7.42951 120.559
 4.90 5.80  0.438  0.439  0.440  0.447  0.464 16.47630 16.44073 -7.22935 151.724
 4.90 6.00  0.600  0.600  0.602  0.608  0.625 16.67624 16.64088 -7.02919 190.936
 4.90 6.25  0.822  0.822  0.824  0.830  0.846 16.92605 16.89101 -6.77902 254.469
 4.90 6.50  1.056  1.056  1.058  1.063  1.078 17.17580 17.14114 -6.52886 339.091
 4.90 6.75  1.290  1.290  1.292  1.296  1.310 17.42551 17.39152 -6.27851 451.762
 4.90 7.00  1.537  1.537  1.539  1.543  1.555 17.67514 17.64207 -6.02803 601.681
 4.90 7.25  1.779  1.779  1.781  1.784  1.794 17.92457 17.89275 -5.77739 800.867
 4.90 7.50  2.025  2.026  2.027  2.030  2.038 18.17377 18.14364 -5.526511065.167
 4.90 7.75  2.267  2.268  2.268  2.271  2.278 18.42252 18.39495 -5.275201414.717
 4.90 8.00  2.514  2.514  2.514  2.516  2.522 18.67090 18.64660 -5.023511876.746
 4.95-2.00 -0.437 -0.437 -0.437 -0.436 -0.434  8.62716  8.58984-15.08024   0.017
 4.95-1.50 -0.436 -0.436 -0.436 -0.435 -0.432  9.12710  9.08991-14.58021   0.030
 4.95-1.00 -0.434 -0.434 -0.434 -0.433 -0.429  9.62716  9.58984-14.08024   0.054
 4.95-0.50 -0.431 -0.431 -0.431 -0.429 -0.426 10.12711 10.08990-13.58021   0.096
 4.95 0.00 -0.427 -0.427 -0.427 -0.425 -0.420 10.62716 10.58984-13.08024   0.171
 4.95 0.50 -0.422 -0.422 -0.422 -0.420 -0.415 11.12710 11.08991-12.58021   0.304
 4.95 1.00 -0.417 -0.417 -0.417 -0.414 -0.408 11.62716 11.58984-12.08019   0.540
 4.95 1.25 -0.415 -0.415 -0.414 -0.412 -0.405 11.87713 11.83987-11.83020   0.720
 4.95 1.50 -0.412 -0.412 -0.411 -0.409 -0.402 12.12710 12.08991-11.58021   0.960
 4.95 1.75 -0.409 -0.409 -0.408 -0.406 -0.399 12.37713 12.33993-11.33020   1.280
 4.95 2.00 -0.406 -0.406 -0.405 -0.403 -0.395 12.62716 12.58995-11.08019   1.707
 4.95 2.25 -0.403 -0.403 -0.402 -0.399 -0.392 12.87713 12.83993-10.83020   2.276
 4.95 2.50 -0.399 -0.399 -0.398 -0.395 -0.387 13.12711 13.08991-10.58021   3.034
 4.95 2.75 -0.394 -0.394 -0.393 -0.390 -0.381 13.37708 13.33993-10.33015   4.046
 4.95 3.00 -0.387 -0.387 -0.386 -0.383 -0.374 13.62706 13.58995-10.08009   5.396
 4.95 3.20 -0.379 -0.379 -0.378 -0.375 -0.366 13.82708 13.78993 -9.88007   6.792
 4.95 3.40 -0.370 -0.369 -0.369 -0.365 -0.356 14.02710 13.98991 -9.68005   8.550
 4.95 3.60 -0.357 -0.357 -0.356 -0.352 -0.342 14.22708 14.18993 -9.48003  10.763
 4.95 3.80 -0.340 -0.340 -0.339 -0.335 -0.325 14.42702 14.38999 -9.28001  13.550
 4.95 4.00 -0.320 -0.319 -0.318 -0.315 -0.304 14.62696 14.59006 -9.07998  17.057
 4.95 4.20 -0.294 -0.293 -0.292 -0.288 -0.277 14.82689 14.79014 -8.87994  21.471
 4.95 4.40 -0.261 -0.261 -0.260 -0.256 -0.243 15.02682 14.99022 -8.67990  27.026
 4.95 4.60 -0.222 -0.222 -0.220 -0.216 -0.203 15.22678 15.19026 -8.47986  34.020
 4.95 4.80 -0.174 -0.174 -0.172 -0.167 -0.153 15.42676 15.39028 -8.27981  42.822
 4.95 5.00 -0.116 -0.115 -0.114 -0.108 -0.094 15.62675 15.59029 -8.07977  53.903
 4.95 5.20 -0.044 -0.044 -0.042 -0.037 -0.021 15.82663 15.79042 -7.87975  67.846
 4.95 5.40  0.040  0.040  0.042  0.047  0.063 16.02652 15.99055 -7.67973  85.395
 4.95 5.60  0.142  0.143  0.144  0.150  0.166 16.22645 16.19063 -7.47964 107.480
 4.95 5.80  0.263  0.263  0.265  0.270  0.286 16.42645 16.39068 -7.27950 135.277
 4.95 6.00  0.398  0.399  0.400  0.406  0.421 16.62644 16.59073 -7.07936 170.257
 4.95 6.25  0.597  0.597  0.599  0.604  0.618 16.87632 16.84083 -6.82921 226.928
 4.95 6.50  0.812  0.813  0.814  0.819  0.831 17.12613 17.09096 -6.57905 302.433
 4.95 6.75  1.034  1.034  1.035  1.039  1.051 17.37591 17.34127 -6.32882 403.038
 4.95 7.00  1.274  1.274  1.275  1.279  1.289 17.62562 17.59162 -6.07852 537.041
 4.95 7.25  1.516  1.516  1.517  1.520  1.530 17.87527 17.84198 -5.82818 715.374
 4.95 7.50  1.761  1.762  1.763  1.765  1.774 18.12483 18.09237 -5.57774 952.565
 4.95 7.75  2.003  2.003  2.004  2.006  2.013 18.37418 18.34310 -5.327001267.570
 4.95 8.00  2.247  2.248  2.248  2.250  2.256 18.62335 18.59406 -5.076031685.798
 5.00-2.00 -0.438 -0.438 -0.437 -0.437 -0.435  8.57726  8.53983-15.13024   0.015
 5.00-1.50 -0.437 -0.437 -0.437 -0.436 -0.434  9.07700  9.03981-14.63023   0.027
 5.00-1.00 -0.436 -0.436 -0.436 -0.435 -0.433  9.57715  9.53983-14.13024   0.048
 5.00-0.50 -0.435 -0.435 -0.435 -0.434 -0.431 10.07700 10.03981-13.63023   0.086
 5.00 0.00 -0.433 -0.433 -0.433 -0.432 -0.429 10.57715 10.53983-13.13024   0.152
 5.00 0.50 -0.430 -0.430 -0.429 -0.428 -0.424 11.07700 11.03981-12.63023   0.271
 5.00 1.00 -0.424 -0.424 -0.424 -0.422 -0.418 11.57715 11.53983-12.13024   0.481
 5.00 1.25 -0.421 -0.421 -0.420 -0.419 -0.413 11.82708 11.78982-11.88024   0.641
 5.00 1.50 -0.417 -0.417 -0.416 -0.414 -0.409 12.07700 12.03981-11.63023   0.855
 5.00 1.75 -0.413 -0.413 -0.412 -0.410 -0.404 12.32708 12.28988-11.38021   1.140
 5.00 2.00 -0.408 -0.408 -0.407 -0.405 -0.398 12.57715 12.53995-11.13018   1.521
 5.00 2.25 -0.404 -0.403 -0.403 -0.400 -0.393 12.82708 12.78988-10.88021   2.028
 5.00 2.50 -0.398 -0.398 -0.397 -0.395 -0.386 13.07701 13.03981-10.63023   2.705
 5.00 2.75 -0.393 -0.393 -0.392 -0.389 -0.380 13.32702 13.28988-10.38018   3.607
 5.00 3.00 -0.387 -0.386 -0.386 -0.382 -0.373 13.57703 13.53995-10.13012   4.809
 5.00 3.20 -0.381 -0.381 -0.380 -0.376 -0.367 13.77702 13.73990 -9.93009   6.054
 5.00 3.40 -0.374 -0.374 -0.373 -0.369 -0.359 13.97701 13.93984 -9.73006   7.620
 5.00 3.60 -0.365 -0.365 -0.364 -0.360 -0.350 14.17701 14.13986 -9.53003   9.593
 5.00 3.80 -0.354 -0.353 -0.352 -0.349 -0.338 14.37702 14.33997 -9.33001  12.077
 5.00 4.00 -0.339 -0.339 -0.338 -0.334 -0.324 14.57703 14.54008 -9.13001  15.203
 5.00 4.20 -0.319 -0.319 -0.318 -0.314 -0.304 14.77703 14.74015 -8.93002  19.137
 5.00 4.40 -0.295 -0.294 -0.293 -0.289 -0.278 14.97702 14.94019 -8.73003  24.089
 5.00 4.60 -0.263 -0.262 -0.261 -0.257 -0.246 15.17696 15.14021 -8.53000  30.323
 5.00 4.80 -0.222 -0.222 -0.221 -0.217 -0.205 15.37688 15.34021 -8.32992  38.171
 5.00 5.00 -0.174 -0.173 -0.172 -0.168 -0.156 15.57680 15.54020 -8.12983  48.049
 5.00 5.20 -0.113 -0.113 -0.112 -0.107 -0.095 15.77674 15.74020 -7.92977  60.479
 5.00 5.40 -0.042 -0.041 -0.040 -0.035 -0.022 15.97667 15.94021 -7.72970  76.124
 5.00 5.60  0.043  0.043  0.044  0.049  0.063 16.17660 16.14028 -7.52964  95.815
 5.00 5.80  0.143  0.143  0.145  0.150  0.164 16.37653 16.34042 -7.32956 120.598
 5.00 6.00  0.258  0.258  0.260  0.265  0.279 16.57646 16.54058 -7.12948 151.789
 5.00 6.25  0.427  0.428  0.429  0.434  0.448 16.82637 16.79079 -6.87930 202.325
 5.00 6.50  0.618  0.618  0.620  0.624  0.636 17.07628 17.04100 -6.62912 269.670
 5.00 6.75  0.829  0.829  0.830  0.834  0.846 17.32611 17.29116 -6.37895 359.424
 5.00 7.00  1.047  1.047  1.048  1.052  1.061 17.57588 17.54133 -6.12878 479.019
 5.00 7.25  1.283  1.284  1.284  1.287  1.296 17.82555 17.79153 -5.87852 638.277
 5.00 7.50  1.525  1.525  1.526  1.528  1.536 18.07518 18.04179 -5.62819 850.299
 5.00 7.75  1.766  1.766  1.767  1.769  1.775 18.32479 18.29223 -5.377751132.396
 5.00 8.00  2.010  2.011  2.011  2.013  2.018 18.57438 18.54283 -5.127201507.658
 5.05-2.00 -0.436 -0.436 -0.435 -0.435 -0.433  8.52724  8.48982-15.18026   0.014
 5.05-1.50 -0.436 -0.436 -0.435 -0.435 -0.433  9.02735  8.98981-14.68027   0.024
 5.05-1.00 -0.435 -0.435 -0.435 -0.435 -0.433  9.52724  9.48982-14.18026   0.043
 5.05-0.50 -0.435 -0.435 -0.435 -0.434 -0.432 10.02735  9.98981-13.68027   0.076
 5.05 0.00 -0.434 -0.434 -0.434 -0.433 -0.431 10.52724 10.48982-13.18026   0.136
 5.05 0.50 -0.433 -0.433 -0.432 -0.432 -0.429 11.02735 10.98981-12.68027   0.241
 5.05 1.00 -0.430 -0.430 -0.430 -0.429 -0.426 11.52724 11.48982-12.18019   0.429
 5.05 1.25 -0.428 -0.428 -0.428 -0.427 -0.424 11.77709 11.73983-11.93023   0.572
 5.05 1.50 -0.426 -0.426 -0.426 -0.424 -0.421 12.02694 11.98985-11.68027   0.762
 5.05 1.75 -0.423 -0.423 -0.423 -0.421 -0.417 12.27703 12.23991-11.43023   1.016
 5.05 2.00 -0.419 -0.419 -0.419 -0.417 -0.413 12.52711 12.48996-11.18019   1.356
 5.05 2.25 -0.415 -0.414 -0.414 -0.412 -0.407 12.77703 12.73993-10.93023   1.808
 5.05 2.50 -0.409 -0.409 -0.408 -0.406 -0.400 13.02694 12.98989-10.68027   2.410
 5.05 2.75 -0.402 -0.402 -0.401 -0.399 -0.392 13.27703 13.23993-10.43020   3.214
 5.05 3.00 -0.394 -0.394 -0.393 -0.390 -0.383 13.52711 13.48996-10.18013   4.286
 5.05 3.20 -0.387 -0.387 -0.386 -0.383 -0.375 13.72705 13.68995 -9.98009   5.396
 5.05 3.40 -0.379 -0.379 -0.378 -0.375 -0.366 13.92698 13.88994 -9.78007   6.792
 5.05 3.60 -0.370 -0.370 -0.369 -0.366 -0.356 14.12695 14.08997 -9.58006   8.551
 5.05 3.80 -0.360 -0.360 -0.359 -0.355 -0.345 14.32697 14.29004 -9.38006  10.764
 5.05 4.00 -0.347 -0.347 -0.346 -0.342 -0.332 14.52699 14.49010 -9.18006  13.551
 5.05 4.20 -0.332 -0.332 -0.331 -0.327 -0.316 14.72697 14.69009 -8.98006  17.058
 5.05 4.40 -0.313 -0.313 -0.312 -0.308 -0.296 14.92696 14.89008 -8.78006  21.472
 5.05 4.60 -0.289 -0.288 -0.287 -0.283 -0.272 15.12693 15.09011 -8.58002  27.029
 5.05 4.80 -0.258 -0.257 -0.256 -0.252 -0.240 15.32690 15.29017 -8.37994  34.024
 5.05 5.00 -0.219 -0.219 -0.218 -0.214 -0.202 15.52686 15.49024 -8.17986  42.830
 5.05 5.20 -0.170 -0.169 -0.168 -0.164 -0.153 15.72673 15.69026 -7.97986  53.911
 5.05 5.40 -0.111 -0.110 -0.109 -0.105 -0.094 15.92660 15.89028 -7.77986  67.857
 5.05 5.60 -0.039 -0.039 -0.037 -0.033 -0.022 16.12655 16.09034 -7.57979  85.412
 5.05 5.80  0.046  0.046  0.048  0.052  0.063 16.32657 16.29043 -7.37966 107.507
 5.05 6.00  0.146  0.146  0.147  0.151  0.163 16.52660 16.49052 -7.17954 135.317
 5.05 6.25  0.295  0.296  0.297  0.301  0.313 16.77636 16.74063 -6.92938 180.376
 5.05 6.50  0.467  0.468  0.469  0.473  0.484 17.02612 16.99074 -6.67923 240.431
 5.05 6.75  0.663  0.663  0.664  0.668  0.679 17.27610 17.24089 -6.42909 320.479
 5.05 7.00  0.863  0.863  0.864  0.867  0.877 17.52608 17.49108 -6.17895 427.161
 5.05 7.25  1.088  1.089  1.090  1.092  1.101 17.77595 17.74129 -5.92879 569.263
 5.05 7.50  1.322  1.323  1.323  1.326  1.333 18.02572 17.99154 -5.67861 758.526
 5.05 7.75  1.559  1.559  1.560  1.562  1.568 18.27537 18.24190 -5.428251010.540
 5.05 8.00  1.800  1.800  1.801  1.802  1.807 18.52492 18.49234 -5.177771346.064
 5.10-2.00 -0.431 -0.431 -0.431 -0.430 -0.428  8.47727  8.43981-15.23025   0.012
 5.10-1.50 -0.431 -0.431 -0.431 -0.430 -0.428  8.97717  8.93977-14.73025   0.021
 5.10-1.00 -0.431 -0.431 -0.431 -0.430 -0.428  9.47727  9.43981-14.23025   0.038
 5.10-0.50 -0.431 -0.431 -0.431 -0.430 -0.428  9.97717  9.93982-13.73025   0.068
 5.10 0.00 -0.431 -0.431 -0.430 -0.430 -0.428 10.47727 10.43981-13.23025   0.121
 5.10 0.50 -0.430 -0.430 -0.430 -0.429 -0.427 10.97717 10.93982-12.73025   0.215
 5.10 1.00 -0.429 -0.429 -0.429 -0.428 -0.426 11.47712 11.43981-12.23025   0.382
 5.10 1.25 -0.428 -0.428 -0.428 -0.427 -0.425 11.72713 11.68981-11.98025   0.509
 5.10 1.50 -0.427 -0.427 -0.427 -0.426 -0.424 11.97713 11.93982-11.73025   0.679
 5.10 1.75 -0.426 -0.426 -0.426 -0.425 -0.422 12.22713 12.18981-11.48022   0.906
 5.10 2.00 -0.424 -0.424 -0.424 -0.423 -0.420 12.47712 12.43981-11.23018   1.208
 5.10 2.25 -0.422 -0.422 -0.421 -0.420 -0.417 12.72710 12.68983-10.98022   1.611
 5.10 2.50 -0.419 -0.419 -0.418 -0.417 -0.414 12.97708 12.93987-10.73025   2.148
 5.10 2.75 -0.415 -0.414 -0.414 -0.413 -0.409 13.22710 13.18992-10.48022   2.865
 5.10 3.00 -0.409 -0.409 -0.409 -0.407 -0.402 13.47712 13.43996-10.23018   3.820
 5.10 3.20 -0.404 -0.404 -0.403 -0.401 -0.396 13.67709 13.63995-10.03021   4.809
 5.10 3.40 -0.397 -0.397 -0.396 -0.394 -0.388 13.87706 13.83993 -9.83024   6.054
 5.10 3.60 -0.389 -0.388 -0.388 -0.386 -0.379 14.07702 14.03993 -9.63021   7.622
 5.10 3.80 -0.378 -0.378 -0.378 -0.375 -0.368 14.27700 14.23994 -9.43012   9.595
 5.10 4.00 -0.366 -0.366 -0.365 -0.362 -0.354 14.47698 14.43996 -9.23003  12.078
 5.10 4.20 -0.352 -0.351 -0.350 -0.347 -0.338 14.67696 14.63998 -9.03003  15.204
 5.10 4.40 -0.333 -0.333 -0.332 -0.329 -0.319 14.87695 14.84001 -8.83002  19.139
 5.10 4.60 -0.312 -0.311 -0.310 -0.307 -0.296 15.07692 15.04003 -8.62999  24.092
 5.10 4.80 -0.285 -0.285 -0.284 -0.280 -0.268 15.27688 15.24007 -8.42994  30.328
 5.10 5.00 -0.252 -0.252 -0.250 -0.246 -0.234 15.47683 15.44012 -8.22989  38.177
 5.10 5.20 -0.211 -0.211 -0.210 -0.206 -0.194 15.67680 15.64018 -8.02985  48.055
 5.10 5.40 -0.162 -0.161 -0.160 -0.156 -0.144 15.87678 15.84024 -7.82981  60.488
 5.10 5.60 -0.101 -0.101 -0.100 -0.096 -0.084 16.07675 16.04030 -7.62976  76.137
 5.10 5.80 -0.029 -0.029 -0.028 -0.024 -0.012 16.27672 16.24037 -7.42971  95.836
 5.10 6.00  0.055  0.055  0.056  0.060  0.071 16.47669 16.44044 -7.22966 120.629
 5.10 6.25  0.184  0.184  0.185  0.189  0.199 16.72654 16.69053 -6.97961 160.812
 5.10 6.50  0.336  0.337  0.337  0.341  0.350 16.97640 16.94062 -6.72955 214.369
 5.10 6.75  0.516  0.517  0.518  0.521  0.530 17.22625 17.19075 -6.47935 285.750
 5.10 7.00  0.710  0.710  0.711  0.713  0.722 17.47611 17.44091 -6.22915 380.874
 5.10 7.25  0.924  0.924  0.925  0.927  0.934 17.72594 17.69110 -5.97900 507.621
 5.10 7.50  1.152  1.152  1.153  1.155  1.161 17.97575 17.94131 -5.72886 676.482
 5.10 7.75  1.384  1.384  1.384  1.386  1.392 18.22552 18.19157 -5.47857 901.411
 5.10 8.00  1.620  1.620  1.620  1.622  1.626 18.47524 18.44185 -5.228191200.998
 5.15-2.00 -0.423 -0.423 -0.423 -0.422 -0.421  8.42716  8.38987-15.28025   0.011
 5.15-1.50 -0.423 -0.423 -0.423 -0.422 -0.421  8.92717  8.88981-14.78042   0.019
 5.15-1.00 -0.423 -0.423 -0.423 -0.422 -0.421  9.42716  9.38987-14.28025   0.034
 5.15-0.50 -0.423 -0.423 -0.423 -0.423 -0.421  9.92717  9.88981-13.78042   0.061
 5.15 0.00 -0.423 -0.423 -0.423 -0.422 -0.421 10.42716 10.38988-13.28026   0.108
 5.15 0.50 -0.423 -0.423 -0.423 -0.422 -0.421 10.92717 10.88981-12.78015   0.192
 5.15 1.00 -0.423 -0.423 -0.423 -0.422 -0.420 11.42716 11.38988-12.28025   0.341
 5.15 1.25 -0.422 -0.422 -0.422 -0.422 -0.420 11.67716 11.63984-12.03020   0.455
 5.15 1.50 -0.422 -0.422 -0.422 -0.421 -0.420 11.92717 11.88981-11.78015   0.606
 5.15 1.75 -0.421 -0.421 -0.421 -0.421 -0.419 12.17717 12.13984-11.53016   0.808
 5.15 2.00 -0.421 -0.421 -0.421 -0.420 -0.418 12.42716 12.38987-11.28017   1.077
 5.15 2.25 -0.420 -0.420 -0.419 -0.419 -0.417 12.67714 12.63987-11.03016   1.436
 5.15 2.50 -0.418 -0.418 -0.418 -0.417 -0.415 12.92711 12.88986-10.78015   1.915
 5.15 2.75 -0.416 -0.416 -0.416 -0.415 -0.413 13.17714 13.13986-10.53016   2.554
 5.15 3.00 -0.414 -0.414 -0.414 -0.413 -0.410 13.42716 13.38988-10.28017   3.405
 5.15 3.20 -0.411 -0.411 -0.411 -0.410 -0.406 13.62712 13.58989-10.08017   4.286
 5.15 3.40 -0.407 -0.407 -0.407 -0.406 -0.402 13.82708 13.78991 -9.88016   5.396
 5.15 3.60 -0.403 -0.403 -0.402 -0.401 -0.397 14.02705 13.98995 -9.68014   6.793
 5.15 3.80 -0.397 -0.397 -0.396 -0.395 -0.390 14.22702 14.19000 -9.48012   8.551
 5.15 4.00 -0.389 -0.389 -0.389 -0.387 -0.382 14.42700 14.39005 -9.28009  10.765
 5.15 4.20 -0.379 -0.379 -0.378 -0.376 -0.370 14.62698 14.59004 -9.08012  13.551
 5.15 4.40 -0.366 -0.365 -0.365 -0.363 -0.356 14.82696 14.79004 -8.88014  17.058
 5.15 4.60 -0.348 -0.348 -0.347 -0.345 -0.338 15.02697 14.99003 -8.68011  21.474
 5.15 4.80 -0.326 -0.326 -0.325 -0.322 -0.314 15.22698 15.19004 -8.48002  27.032
 5.15 5.00 -0.297 -0.297 -0.296 -0.293 -0.284 15.42700 15.39005 -8.27992  34.029
 5.15 5.20 -0.262 -0.262 -0.261 -0.257 -0.247 15.62692 15.59010 -8.07991  42.834
 5.15 5.40 -0.217 -0.217 -0.216 -0.212 -0.202 15.82684 15.79016 -7.87990  53.917
 5.15 5.60 -0.163 -0.163 -0.162 -0.158 -0.147 16.02678 15.99024 -7.67985  67.868
 5.15 5.80 -0.099 -0.099 -0.098 -0.094 -0.082 16.22673 16.19032 -7.47976  85.429
 5.15 6.00 -0.023 -0.022 -0.021 -0.017 -0.006 16.42667 16.39041 -7.27968 107.532
 5.15 6.25  0.089  0.090  0.091  0.095  0.105 16.67659 16.64047 -7.02965 143.358
 5.15 6.50  0.224  0.225  0.226  0.229  0.239 16.92650 16.89053 -6.77963 191.109
 5.15 6.75  0.385  0.385  0.386  0.389  0.398 17.17642 17.14063 -6.52946 254.756
 5.15 7.00  0.567  0.567  0.568  0.570  0.578 17.42635 17.39076 -6.27926 339.581
 5.15 7.25  0.763  0.763  0.763  0.766  0.772 17.67614 17.64094 -6.02905 452.618
 5.15 7.50  0.982  0.982  0.982  0.984  0.990 17.92593 17.89115 -5.77885 603.236
 5.15 7.75  1.210  1.210  1.210  1.212  1.217 18.17573 18.14138 -5.52864 803.910
 5.15 8.00  1.444  1.444  1.444  1.446  1.450 18.42554 18.39164 -5.278441071.255
 5.20-2.00 -0.411 -0.411 -0.411 -0.411 -0.409  8.37712  8.33985-15.33022   0.010
 5.20-1.50 -0.411 -0.411 -0.411 -0.411 -0.409  8.87720  8.83979-14.83033   0.017
 5.20-1.00 -0.411 -0.411 -0.411 -0.411 -0.409  9.37712  9.33985-14.33022   0.030
 5.20-0.50 -0.411 -0.411 -0.411 -0.411 -0.409  9.87714  9.83979-13.83033   0.054
 5.20 0.00 -0.411 -0.411 -0.411 -0.411 -0.409 10.37712 10.33985-13.33022   0.096
 5.20 0.50 -0.411 -0.411 -0.411 -0.411 -0.409 10.87714 10.83979-12.83033   0.171
 5.20 1.00 -0.411 -0.411 -0.411 -0.411 -0.409 11.37712 11.33985-12.33022   0.304
 5.20 1.25 -0.411 -0.411 -0.411 -0.411 -0.409 11.62713 11.58982-12.08027   0.405
 5.20 1.50 -0.411 -0.411 -0.411 -0.411 -0.409 11.87714 11.83979-11.83033   0.540
 5.20 1.75 -0.411 -0.411 -0.411 -0.410 -0.409 12.12713 12.08982-11.58027   0.720
 5.20 2.00 -0.411 -0.411 -0.411 -0.410 -0.409 12.37712 12.33985-11.33022   0.960
 5.20 2.25 -0.410 -0.410 -0.410 -0.410 -0.408 12.62713 12.58985-11.08027   1.280
 5.20 2.50 -0.410 -0.410 -0.410 -0.409 -0.407 12.87714 12.83986-10.83033   1.707
 5.20 2.75 -0.409 -0.409 -0.409 -0.408 -0.406 13.12714 13.08985-10.58027   2.276
 5.20 3.00 -0.408 -0.408 -0.408 -0.407 -0.405 13.37712 13.33985-10.33022   3.035
 5.20 3.20 -0.406 -0.406 -0.406 -0.406 -0.404 13.57711 13.53987-10.13026   3.821
 5.20 3.40 -0.405 -0.405 -0.404 -0.404 -0.402 13.77709 13.73990 -9.93030   4.809
 5.20 3.60 -0.402 -0.402 -0.402 -0.401 -0.399 13.97709 13.93994 -9.73029   6.054
 5.20 3.80 -0.399 -0.399 -0.399 -0.398 -0.396 14.17711 14.14000 -9.53021   7.622
 5.20 4.00 -0.395 -0.395 -0.395 -0.394 -0.391 14.37712 14.34005 -9.33013   9.595
 5.20 4.20 -0.390 -0.390 -0.389 -0.388 -0.385 14.57706 14.54002 -9.13009  12.078
 5.20 4.40 -0.382 -0.382 -0.382 -0.381 -0.377 14.77700 14.74000 -8.93005  15.204
 5.20 4.60 -0.372 -0.372 -0.372 -0.370 -0.366 14.97696 14.93999 -8.73001  19.140
 5.20 4.80 -0.358 -0.358 -0.358 -0.356 -0.351 15.17695 15.14001 -8.52998  24.094
 5.20 5.00 -0.340 -0.340 -0.340 -0.338 -0.332 15.37694 15.34005 -8.32994  30.331
 5.20 5.20 -0.315 -0.315 -0.314 -0.312 -0.306 15.57691 15.54010 -8.12998  38.180
 5.20 5.40 -0.282 -0.282 -0.281 -0.279 -0.271 15.77687 15.74015 -7.93001  48.060
 5.20 5.60 -0.239 -0.239 -0.238 -0.235 -0.227 15.97684 15.94018 -7.72998  60.497
 5.20 5.80 -0.184 -0.184 -0.183 -0.180 -0.172 16.17680 16.14021 -7.52987  76.151
 5.20 6.00 -0.117 -0.116 -0.115 -0.112 -0.103 16.37676 16.34025 -7.32975  95.855
 5.20 6.25 -0.014 -0.013 -0.012 -0.009  0.000 16.62666 16.59032 -7.07975 127.793
 5.20 6.50  0.111  0.112  0.113  0.116  0.126 16.87656 16.84042 -6.82974 170.368
 5.20 6.75  0.258  0.259  0.260  0.263  0.272 17.12648 17.09052 -6.57956 227.124
 5.20 7.00  0.428  0.428  0.429  0.432  0.440 17.37640 17.34064 -6.32938 302.776
 5.20 7.25  0.609  0.609  0.609  0.612  0.619 17.62623 17.59080 -6.07927 403.567
 5.20 7.50  0.816  0.816  0.817  0.819  0.825 17.87605 17.84098 -5.82915 537.878
 5.20 7.75  1.035  1.035  1.035  1.037  1.042 18.12586 18.09120 -5.57893 716.867
 5.20 8.00  1.262  1.262  1.262  1.263  1.267 18.37566 18.34144 -5.32864 955.377
 5.25-2.00 -0.393 -0.393 -0.393 -0.393 -0.391  8.32716  8.28981-15.38028   0.009
 5.25-1.50 -0.393 -0.393 -0.393 -0.393 -0.391  8.82718  8.78979-14.88041   0.015
 5.25-1.00 -0.393 -0.393 -0.393 -0.393 -0.391  9.32715  9.28981-14.38028   0.027
 5.25-0.50 -0.393 -0.393 -0.393 -0.393 -0.391  9.82718  9.78979-13.88041   0.048
 5.25 0.00 -0.393 -0.393 -0.393 -0.393 -0.391 10.32716 10.28981-13.38028   0.086
 5.25 0.50 -0.393 -0.393 -0.393 -0.393 -0.391 10.82718 10.78979-12.88041   0.152
 5.25 1.00 -0.393 -0.393 -0.393 -0.393 -0.391 11.32716 11.28981-12.38028   0.271
 5.25 1.25 -0.393 -0.393 -0.393 -0.393 -0.391 11.57717 11.53980-12.13035   0.361
 5.25 1.50 -0.393 -0.393 -0.393 -0.393 -0.391 11.82718 11.78979-11.88041   0.481
 5.25 1.75 -0.393 -0.393 -0.393 -0.393 -0.391 12.07717 12.03980-11.63030   0.641
 5.25 2.00 -0.393 -0.393 -0.393 -0.393 -0.391 12.32716 12.28981-11.38018   0.855
 5.25 2.25 -0.393 -0.393 -0.393 -0.393 -0.391 12.57713 12.53984-11.13011   1.140
 5.25 2.50 -0.393 -0.393 -0.393 -0.392 -0.391 12.82711 12.78986-10.88008   1.521
 5.25 2.75 -0.393 -0.393 -0.392 -0.392 -0.391 13.07713 13.03984-10.63013   2.028
 5.25 3.00 -0.392 -0.392 -0.392 -0.392 -0.390 13.32715 13.28981-10.38018   2.705
 5.25 3.20 -0.392 -0.392 -0.391 -0.391 -0.389 13.52714 13.48982-10.18014   3.405
 5.25 3.40 -0.391 -0.391 -0.391 -0.390 -0.389 13.72712 13.68984 -9.98010   4.286
 5.25 3.60 -0.390 -0.390 -0.390 -0.389 -0.387 13.92712 13.88990 -9.78008   5.396
 5.25 3.80 -0.388 -0.388 -0.388 -0.387 -0.386 14.12714 14.08997 -9.58007   6.793
 5.25 4.00 -0.386 -0.386 -0.386 -0.385 -0.383 14.32716 14.29004 -9.38007   8.552
 5.25 4.20 -0.383 -0.383 -0.383 -0.382 -0.380 14.52709 14.49000 -9.18008  10.766
 5.25 4.40 -0.379 -0.379 -0.379 -0.378 -0.376 14.72702 14.68995 -8.98008  13.552
 5.25 4.60 -0.373 -0.373 -0.373 -0.372 -0.370 14.92697 14.88995 -8.78006  17.060
 5.25 4.80 -0.365 -0.365 -0.365 -0.364 -0.361 15.12696 15.08999 -8.58002  21.476
 5.25 5.00 -0.355 -0.355 -0.355 -0.354 -0.350 15.32695 15.29003 -8.37997  27.035
 5.25 5.20 -0.339 -0.339 -0.339 -0.338 -0.334 15.52691 15.49008 -8.18002  34.031
 5.25 5.40 -0.319 -0.318 -0.318 -0.317 -0.312 15.72687 15.69012 -7.98006  42.838
 5.25 5.60 -0.290 -0.290 -0.290 -0.288 -0.283 15.92683 15.89017 -7.78004  53.924
 5.25 5.80 -0.252 -0.252 -0.251 -0.250 -0.244 16.12679 16.09021 -7.57995  67.879
 5.25 6.00 -0.203 -0.203 -0.202 -0.200 -0.194 16.32675 16.29026 -7.37986  85.445
 5.25 6.25 -0.121 -0.121 -0.120 -0.118 -0.111 16.57670 16.54031 -7.12981 113.917
 5.25 6.50 -0.015 -0.015 -0.014 -0.012 -0.005 16.82666 16.79036 -6.87976 151.872
 5.25 6.75  0.116  0.117  0.117  0.120  0.127 17.07661 17.04053 -6.62961 202.473
 5.25 7.00  0.274  0.274  0.275  0.278  0.285 17.32654 17.29070 -6.37945 269.926
 5.25 7.25  0.452  0.452  0.452  0.455  0.462 17.57637 17.54078 -6.12927 359.797
 5.25 7.50  0.645  0.646  0.646  0.648  0.655 17.82620 17.79085 -5.87910 479.569
 5.25 7.75  0.855  0.855  0.855  0.857  0.863 18.07606 18.04098 -5.62895 639.199
 5.25 8.00  1.075  1.075  1.075  1.077  1.082 18.32593 18.29115 -5.37882 851.941
 5.30-2.00 -0.369 -0.369 -0.368 -0.368 -0.367  8.27715  8.23980-15.43028   0.008
 5.30-1.50 -0.369 -0.369 -0.368 -0.368 -0.367  8.77721  8.73981-14.93033   0.014
 5.30-1.00 -0.369 -0.369 -0.368 -0.368 -0.367  9.27715  9.23980-14.43027   0.024
 5.30-0.50 -0.369 -0.369 -0.368 -0.368 -0.367  9.77714  9.73981-13.93033   0.043
 5.30 0.00 -0.369 -0.369 -0.368 -0.368 -0.367 10.27715 10.23980-13.43027   0.076
 5.30 0.50 -0.369 -0.369 -0.368 -0.368 -0.367 10.77714 10.73981-12.93033   0.136
 5.30 1.00 -0.369 -0.369 -0.368 -0.368 -0.367 11.27715 11.23980-12.43027   0.241
 5.30 1.25 -0.369 -0.369 -0.368 -0.368 -0.367 11.52714 11.48981-12.18030   0.322
 5.30 1.50 -0.369 -0.369 -0.368 -0.368 -0.367 11.77714 11.73981-11.93033   0.429
 5.30 1.75 -0.369 -0.369 -0.368 -0.368 -0.367 12.02714 11.98981-11.68030   0.572
 5.30 2.00 -0.369 -0.369 -0.368 -0.368 -0.367 12.27715 12.23980-11.43028   0.762
 5.30 2.25 -0.369 -0.368 -0.368 -0.368 -0.367 12.52714 12.48981-11.18030   1.016
 5.30 2.50 -0.368 -0.368 -0.368 -0.368 -0.367 12.77714 12.73981-10.93033   1.356
 5.30 2.75 -0.368 -0.368 -0.368 -0.368 -0.366 13.02714 12.98981-10.68025   1.808
 5.30 3.00 -0.368 -0.368 -0.368 -0.368 -0.366 13.27715 13.23980-10.43016   2.411
 5.30 3.20 -0.368 -0.368 -0.368 -0.367 -0.366 13.47712 13.43983-10.23023   3.035
 5.30 3.40 -0.368 -0.368 -0.368 -0.367 -0.366 13.67708 13.63986-10.03030   3.821
 5.30 3.60 -0.367 -0.367 -0.367 -0.367 -0.365 13.87708 13.83992 -9.83030   4.810
 5.30 3.80 -0.366 -0.366 -0.366 -0.366 -0.364 14.07712 14.03999 -9.63023   6.055
 5.30 4.00 -0.365 -0.365 -0.365 -0.365 -0.363 14.27715 14.24005 -9.43016   7.622
 5.30 4.20 -0.364 -0.364 -0.363 -0.363 -0.361 14.47709 14.44002 -9.23008   9.595
 5.30 4.40 -0.361 -0.361 -0.361 -0.361 -0.359 14.67702 14.63998 -9.03000  12.079
 5.30 4.60 -0.358 -0.358 -0.358 -0.357 -0.356 14.87697 14.83998 -8.82998  15.205
 5.30 4.80 -0.353 -0.353 -0.353 -0.353 -0.351 15.07694 15.04002 -8.63001  19.142
 5.30 5.00 -0.347 -0.347 -0.347 -0.346 -0.344 15.27692 15.24005 -8.43004  24.097
 5.30 5.20 -0.337 -0.337 -0.337 -0.336 -0.334 15.47692 15.44005 -8.23001  30.333
 5.30 5.40 -0.324 -0.324 -0.324 -0.323 -0.321 15.67692 15.64005 -8.02998  38.183
 5.30 5.60 -0.306 -0.306 -0.306 -0.305 -0.303 15.87692 15.84010 -7.82995  48.065
 5.30 5.80 -0.282 -0.281 -0.281 -0.280 -0.277 16.07692 16.04020 -7.62994  60.504
 5.30 6.00 -0.249 -0.249 -0.248 -0.247 -0.244 16.27692 16.24030 -7.42992  76.163
 5.30 6.25 -0.191 -0.191 -0.191 -0.190 -0.185 16.52681 16.49029 -7.17976 101.545
 5.30 6.50 -0.114 -0.113 -0.113 -0.112 -0.107 16.77670 16.74028 -6.92959 135.382
 5.30 6.75 -0.009 -0.009 -0.009 -0.007 -0.002 17.02670 16.99042 -6.67958 180.494
 5.30 7.00  0.121  0.121  0.121  0.123  0.129 17.27669 17.24055 -6.42957 240.633
 5.30 7.25  0.280  0.280  0.281  0.282  0.288 17.52652 17.49061 -6.17940 320.781
 5.30 7.50  0.457  0.457  0.457  0.459  0.465 17.77634 17.74068 -5.92922 427.598
 5.30 7.75  0.658  0.658  0.658  0.660  0.665 18.02617 17.99083 -5.67909 569.952
 5.30 8.00  0.872  0.872  0.873  0.874  0.879 18.27600 18.24105 -5.42899 759.651
