 ROSSELAND MASS ABSORPTION COEFFICIENTS [-4.5]
 logT logP  0km/s  1km/s  2km/s  4km/s  8km/s  log Ne   log Na  log rho IPloCM-1
 3.32-2.00 -6.758 -6.756 -6.752 -6.745 -6.734  1.82692 10.54033-13.13395   0.001
 3.32-1.50 -6.778 -6.776 -6.772 -6.765 -6.755  2.19893 11.04139-12.63302   0.001
 3.32-1.00 -6.782 -6.780 -6.777 -6.770 -6.760  2.54728 11.54419-12.13024   0.001
 3.32-0.50 -6.764 -6.762 -6.758 -6.751 -6.740  2.88491 12.05231-11.62197   0.001
 3.32 0.00 -6.735 -6.733 -6.729 -6.721 -6.709  3.23426 12.57380-11.10062   0.001
 3.32 0.50 -6.713 -6.711 -6.706 -6.697 -6.684  3.62490 13.11494-10.55956   0.001
 3.32 1.00 -6.695 -6.692 -6.687 -6.677 -6.663  4.07445 13.66829-10.00603   0.001
 3.32 1.25 -6.681 -6.679 -6.674 -6.664 -6.649  4.31772 13.94330 -9.73096   0.001
 3.32 1.50 -6.664 -6.661 -6.656 -6.646 -6.631  4.56098 14.21643 -9.45780   0.001
 3.32 1.75 -6.641 -6.638 -6.633 -6.624 -6.608  4.80260 14.48542 -9.18895   0.001
 3.32 2.00 -6.615 -6.612 -6.607 -6.598 -6.583  5.04179 14.75113 -8.92336   0.002
 3.32 2.25 -6.584 -6.582 -6.578 -6.569 -6.554  5.27020 15.01336 -8.66105   0.002
 3.32 2.50 -6.551 -6.550 -6.546 -6.537 -6.524  5.49108 15.27300 -8.40132   0.003
 3.32 2.75 -6.516 -6.514 -6.511 -6.503 -6.491  5.70382 15.53044 -8.14382   0.004
 3.32 3.00 -6.477 -6.476 -6.473 -6.467 -6.456  5.91148 15.78618 -7.88807   0.005
 3.32 3.20 -6.445 -6.443 -6.441 -6.435 -6.426  6.07351 15.98972 -7.68460   0.006
 3.32 3.40 -6.410 -6.409 -6.407 -6.402 -6.394  6.23534 16.19260 -7.48177   0.007
 3.32 3.60 -6.376 -6.375 -6.374 -6.369 -6.362  6.39699 16.39489 -7.27951   0.008
 3.32 3.80 -6.342 -6.342 -6.340 -6.336 -6.329  6.55862 16.59677 -7.07764   0.010
 3.32 4.00 -6.307 -6.306 -6.305 -6.301 -6.294  6.72024 16.79824 -6.87615   0.012
 3.32 4.20 -6.273 -6.272 -6.270 -6.267 -6.260  6.88441 16.99933 -6.67499   0.014
 3.32 4.40 -6.237 -6.237 -6.235 -6.232 -6.225  7.04857 17.20022 -6.47405   0.017
 3.32 4.60 -6.202 -6.201 -6.200 -6.196 -6.190  7.21199 17.40096 -6.27331   0.021
 3.32 4.80 -6.166 -6.166 -6.164 -6.161 -6.154  7.37286 17.60159 -6.07271   0.025
 3.32 5.00 -6.130 -6.129 -6.128 -6.125 -6.119  7.53135 17.80209 -5.87225   0.030
 3.32 5.20 -6.093 -6.092 -6.091 -6.088 -6.082  7.68272 18.00238 -5.67192   0.036
 3.32 5.40 -6.054 -6.053 -6.052 -6.049 -6.043  7.82884 18.20264 -5.47163   0.042
 3.32 5.60 -6.010 -6.010 -6.008 -6.005 -6.000  7.96892 18.40289 -5.27138   0.050
 3.32 5.80 -5.961 -5.961 -5.960 -5.957 -5.951  8.10395 18.60312 -5.07115   0.058
 3.32 6.00 -5.905 -5.905 -5.903 -5.900 -5.895  8.23502 18.80332 -4.87096   0.068
 3.32 6.25 -5.821 -5.821 -5.820 -5.817 -5.811  8.39344 19.05350 -4.62087   0.082
 3.32 6.50 -5.720 -5.719 -5.718 -5.715 -5.710  8.55060 19.30363 -4.37080   0.098
 3.32 6.75 -5.598 -5.597 -5.596 -5.594 -5.589  8.70693 19.55368 -4.12071   0.118
 3.32 7.00 -5.490 -5.489 -5.488 -5.486 -5.482  8.86326 19.80373 -3.87063   0.141
 3.32 7.25 -5.395 -5.395 -5.394 -5.392 -5.389  9.02261 20.05379 -3.62060   0.169
 3.32 7.50 -5.297 -5.297 -5.296 -5.295 -5.293  9.18384 20.30384 -3.37059   0.203
 3.32 7.75 -5.198 -5.198 -5.197 -5.196 -5.195  9.34683 20.55387 -3.12060   0.245
 3.32 8.00 -5.099 -5.099 -5.099 -5.098 -5.097  9.51162 20.80387 -2.87063   0.297
 3.34-2.00 -6.653 -6.651 -6.646 -6.638 -6.626  1.96937 10.51996-13.15441   0.001
 3.34-1.50 -6.660 -6.658 -6.653 -6.645 -6.633  2.39094 11.02036-12.65404   0.001
 3.34-1.00 -6.656 -6.653 -6.649 -6.640 -6.628  2.78554 11.52114-12.15323   0.001
 3.34-0.50 -6.635 -6.633 -6.628 -6.619 -6.606  3.15198 12.02366-11.65053   0.001
 3.34 0.00 -6.606 -6.604 -6.598 -6.589 -6.575  3.49831 12.53199-11.14237   0.001
 3.34 0.50 -6.580 -6.577 -6.571 -6.560 -6.545  3.84223 13.05269-10.62160   0.001
 3.34 1.00 -6.557 -6.554 -6.548 -6.537 -6.521  4.20871 13.59329-10.08103   0.001
 3.34 1.25 -6.545 -6.542 -6.536 -6.525 -6.508  4.40868 13.87002 -9.80435   0.001
 3.34 1.50 -6.530 -6.527 -6.521 -6.509 -6.492  4.61993 14.14675 -9.52768   0.001
 3.34 1.75 -6.509 -6.506 -6.501 -6.489 -6.471  4.84529 14.42190 -9.25256   0.001
 3.34 2.00 -6.483 -6.481 -6.475 -6.464 -6.446  5.07664 14.69522 -8.97922   0.002
 3.34 2.25 -6.452 -6.449 -6.444 -6.433 -6.416  5.31313 14.96434 -8.71007   0.002
 3.34 2.50 -6.416 -6.414 -6.409 -6.400 -6.384  5.54962 15.23019 -8.44418   0.003
 3.34 2.75 -6.378 -6.376 -6.372 -6.364 -6.349  5.77972 15.49267 -8.18173   0.004
 3.34 3.00 -6.339 -6.338 -6.334 -6.327 -6.314  6.00432 15.75251 -7.92191   0.005
 3.34 3.20 -6.307 -6.306 -6.303 -6.297 -6.286  6.17790 15.95863 -7.71578   0.006
 3.34 3.40 -6.276 -6.275 -6.272 -6.267 -6.258  6.34780 16.16366 -7.51073   0.007
 3.34 3.60 -6.246 -6.245 -6.243 -6.239 -6.231  6.51364 16.36765 -7.30666   0.009
 3.34 3.80 -6.219 -6.218 -6.216 -6.212 -6.204  6.67697 16.57094 -7.10331   0.011
 3.34 4.00 -6.191 -6.190 -6.189 -6.185 -6.178  6.83866 16.77357 -6.90066   0.013
 3.34 4.20 -6.165 -6.165 -6.163 -6.160 -6.153  6.99882 16.97567 -6.69870   0.016
 3.34 4.40 -6.139 -6.139 -6.137 -6.134 -6.127  7.15897 17.17737 -6.49709   0.019
 3.34 4.60 -6.112 -6.112 -6.110 -6.107 -6.100  7.31975 17.37867 -6.29579   0.023
 3.34 4.80 -6.084 -6.084 -6.082 -6.079 -6.073  7.48116 17.57972 -6.09469   0.028
 3.34 5.00 -6.055 -6.055 -6.053 -6.050 -6.044  7.64256 17.78053 -5.89381   0.034
 3.34 5.20 -6.024 -6.024 -6.022 -6.019 -6.013  7.80323 17.98119 -5.69319   0.041
 3.34 5.40 -5.992 -5.991 -5.990 -5.987 -5.981  7.96280 18.18172 -5.49267   0.049
 3.34 5.60 -5.957 -5.957 -5.956 -5.952 -5.947  8.11923 18.38215 -5.29220   0.058
 3.34 5.80 -5.922 -5.921 -5.920 -5.917 -5.911  8.26979 18.58250 -5.09178   0.069
 3.34 6.00 -5.884 -5.883 -5.882 -5.879 -5.874  8.41564 18.78276 -4.89144   0.082
 3.34 6.25 -5.835 -5.835 -5.834 -5.830 -5.825  8.58886 19.03292 -4.64129   0.100
 3.34 6.50 -5.785 -5.784 -5.783 -5.780 -5.775  8.75534 19.28308 -4.39115   0.121
 3.34 6.75 -5.732 -5.732 -5.731 -5.728 -5.722  8.91528 19.53328 -4.14096   0.146
 3.34 7.00 -5.678 -5.677 -5.676 -5.673 -5.668  9.07262 19.78348 -3.89076   0.175
 3.34 7.25 -5.620 -5.620 -5.619 -5.616 -5.611  9.22786 20.03350 -3.64073   0.209
 3.34 7.50 -5.560 -5.559 -5.558 -5.556 -5.551  9.38310 20.28353 -3.39073   0.250
 3.34 7.75 -5.496 -5.495 -5.494 -5.492 -5.488  9.53990 20.53359 -3.14073   0.299
 3.34 8.00 -5.427 -5.427 -5.426 -5.424 -5.421  9.69775 20.78369 -2.89076   0.359
 3.36-2.00 -6.572 -6.570 -6.565 -6.555 -6.542  2.03543 10.49996-13.17444   0.001
 3.36-1.50 -6.570 -6.567 -6.562 -6.552 -6.539  2.49499 10.99996-12.67448   0.001
 3.36-1.00 -6.557 -6.554 -6.549 -6.539 -6.525  2.93237 11.50024-12.17406   0.001
 3.36-0.50 -6.531 -6.528 -6.523 -6.512 -6.497  3.34655 12.00130-11.67325   0.001
 3.36 0.00 -6.496 -6.493 -6.487 -6.476 -6.460  3.73264 12.50406-11.17031   0.001
 3.36 0.50 -6.455 -6.452 -6.445 -6.433 -6.415  4.09377 13.01242-10.66214   0.001
 3.36 1.00 -6.411 -6.407 -6.400 -6.386 -6.367  4.44264 13.53339-10.14092   0.001
 3.36 1.25 -6.389 -6.386 -6.379 -6.365 -6.344  4.61956 13.80201 -9.87237   0.001
 3.36 1.50 -6.370 -6.366 -6.359 -6.345 -6.324  4.79962 14.07445 -9.59998   0.001
 3.36 1.75 -6.351 -6.347 -6.340 -6.326 -6.305  4.98797 14.35116 -9.32323   0.001
 3.36 2.00 -6.330 -6.327 -6.320 -6.307 -6.286  5.18441 14.62788 -9.04648   0.002
 3.36 2.25 -6.305 -6.302 -6.296 -6.284 -6.265  5.39191 14.90292 -8.77142   0.002
 3.36 2.50 -6.276 -6.274 -6.269 -6.258 -6.240  5.60788 15.17609 -8.49826   0.003
 3.36 2.75 -6.243 -6.241 -6.236 -6.227 -6.211  5.83467 15.44513 -8.22917   0.004
 3.36 3.00 -6.207 -6.205 -6.202 -6.194 -6.180  6.06145 15.71088 -7.96337   0.005
 3.36 3.20 -6.177 -6.176 -6.173 -6.166 -6.155  6.24266 15.92086 -7.75338   0.006
 3.36 3.40 -6.148 -6.147 -6.145 -6.139 -6.129  6.42348 16.12919 -7.54506   0.008
 3.36 3.60 -6.122 -6.121 -6.119 -6.114 -6.106  6.60155 16.33597 -7.33840   0.010
 3.36 3.80 -6.098 -6.097 -6.095 -6.091 -6.083  6.77461 16.54158 -7.13292   0.012
 3.36 4.00 -6.074 -6.073 -6.072 -6.068 -6.061  6.94429 16.74609 -6.92849   0.015
 3.36 4.20 -6.053 -6.053 -6.051 -6.047 -6.041  7.11000 16.94956 -6.72488   0.018
 3.36 4.40 -6.032 -6.031 -6.030 -6.026 -6.020  7.27344 17.15240 -6.52191   0.022
 3.36 4.60 -6.010 -6.009 -6.008 -6.004 -5.998  7.43426 17.35467 -6.31956   0.026
 3.36 4.80 -5.986 -5.985 -5.984 -5.981 -5.975  7.59397 17.55657 -6.11764   0.031
 3.36 5.00 -5.960 -5.960 -5.958 -5.955 -5.949  7.75343 17.75808 -5.91614   0.037
 3.36 5.20 -5.932 -5.932 -5.930 -5.927 -5.921  7.91288 17.95923 -5.71504   0.045
 3.36 5.40 -5.901 -5.901 -5.899 -5.896 -5.890  8.07213 18.16016 -5.51413   0.054
 3.36 5.60 -5.867 -5.866 -5.865 -5.862 -5.856  8.23120 18.36091 -5.31337   0.065
 3.36 5.80 -5.829 -5.828 -5.827 -5.824 -5.818  8.38975 18.56153 -5.11272   0.078
 3.36 6.00 -5.788 -5.787 -5.786 -5.783 -5.777  8.54765 18.76200 -4.91222   0.093
 3.36 6.25 -5.733 -5.733 -5.731 -5.728 -5.723  8.73834 19.01237 -4.66189   0.116
 3.36 6.50 -5.676 -5.675 -5.674 -5.671 -5.666  8.92267 19.26269 -4.41162   0.144
 3.36 6.75 -5.617 -5.616 -5.615 -5.612 -5.607  9.09759 19.51300 -4.16136   0.176
 3.36 7.00 -5.557 -5.556 -5.555 -5.552 -5.548  9.26553 19.76328 -3.91116   0.213
 3.36 7.25 -5.495 -5.495 -5.494 -5.491 -5.487  9.42640 20.01334 -3.66104   0.257
 3.36 7.50 -5.432 -5.431 -5.430 -5.428 -5.424  9.58377 20.26340 -3.41094   0.308
 3.36 7.75 -5.366 -5.365 -5.364 -5.363 -5.360  9.73919 20.51351 -3.16086   0.368
 3.36 8.00 -5.296 -5.296 -5.295 -5.294 -5.291  9.89215 20.76365 -2.91080   0.439
 3.38-2.00 -6.508 -6.505 -6.500 -6.490 -6.477  2.04883 10.47986-13.19450   0.001
 3.38-1.50 -6.499 -6.496 -6.490 -6.480 -6.466  2.53326 10.97987-12.69443   0.001
 3.38-1.00 -6.479 -6.475 -6.470 -6.459 -6.444  3.00647 11.48001-12.19436   0.001
 3.38-0.50 -6.447 -6.443 -6.437 -6.425 -6.409  3.45834 11.98028-11.69400   0.001
 3.38 0.00 -6.404 -6.400 -6.394 -6.381 -6.363  3.88795 12.48130-11.19308   0.001
 3.38 0.50 -6.347 -6.343 -6.336 -6.321 -6.301  4.29270 12.98430-10.69016   0.001
 3.38 1.00 -6.279 -6.275 -6.267 -6.251 -6.228  4.67099 13.49318-10.18125   0.001
 3.38 1.25 -6.245 -6.240 -6.232 -6.216 -6.192  4.85156 13.75227 -9.92211   0.001
 3.38 1.50 -6.213 -6.209 -6.201 -6.184 -6.160  5.03100 14.01536 -9.65896   0.002
 3.38 1.75 -6.184 -6.180 -6.172 -6.156 -6.132  5.20973 14.28468 -9.38965   0.002
 3.38 2.00 -6.160 -6.156 -6.149 -6.134 -6.111  5.38846 14.55763 -9.11674   0.002
 3.38 2.25 -6.137 -6.134 -6.127 -6.114 -6.092  5.57123 14.83445 -8.83997   0.003
 3.38 2.50 -6.115 -6.113 -6.107 -6.095 -6.076  5.75815 15.11126 -8.56320   0.004
 3.38 2.75 -6.093 -6.091 -6.086 -6.076 -6.060  5.95242 15.38608 -8.28835   0.005
 3.38 3.00 -6.069 -6.067 -6.063 -6.055 -6.042  6.15382 15.65877 -8.01556   0.006
 3.38 3.20 -6.048 -6.046 -6.043 -6.037 -6.025  6.32231 15.87386 -7.80052   0.007
 3.38 3.40 -6.026 -6.025 -6.022 -6.017 -6.007  6.49400 16.08685 -7.58757   0.008
 3.38 3.60 -6.005 -6.004 -6.002 -5.998 -5.989  6.66940 16.29765 -7.37682   0.010
 3.38 3.80 -5.985 -5.984 -5.983 -5.978 -5.971  6.84612 16.50660 -7.16790   0.013
 3.38 4.00 -5.964 -5.964 -5.962 -5.958 -5.952  7.02284 16.71391 -6.96059   0.016
 3.38 4.20 -5.945 -5.945 -5.943 -5.940 -5.933  7.19658 16.91977 -6.75462   0.019
 3.38 4.40 -5.926 -5.925 -5.924 -5.920 -5.914  7.36801 17.12458 -6.54974   0.024
 3.38 4.60 -5.904 -5.904 -5.902 -5.899 -5.893  7.53634 17.32842 -6.34594   0.029
 3.38 4.80 -5.882 -5.881 -5.880 -5.876 -5.870  7.70151 17.53157 -6.14289   0.035
 3.38 5.00 -5.857 -5.856 -5.855 -5.852 -5.846  7.86427 17.73408 -5.94044   0.042
 3.38 5.20 -5.830 -5.829 -5.828 -5.824 -5.819  8.02463 17.93605 -5.73840   0.050
 3.38 5.40 -5.800 -5.799 -5.798 -5.794 -5.789  8.18392 18.13764 -5.53673   0.060
 3.38 5.60 -5.767 -5.766 -5.765 -5.761 -5.755  8.34231 18.33888 -5.33546   0.072
 3.38 5.80 -5.730 -5.729 -5.728 -5.725 -5.719  8.50019 18.53988 -5.13445   0.087
 3.38 6.00 -5.690 -5.689 -5.688 -5.684 -5.679  8.65753 18.74068 -4.93367   0.104
 3.38 6.25 -5.634 -5.633 -5.632 -5.629 -5.623  8.85396 18.99146 -4.68297   0.130
 3.38 6.50 -5.573 -5.572 -5.571 -5.568 -5.563  9.04922 19.24205 -4.43239   0.163
 3.38 6.75 -5.508 -5.508 -5.506 -5.503 -5.499  9.23902 19.49247 -4.18186   0.203
 3.38 7.00 -5.440 -5.440 -5.439 -5.436 -5.432  9.42325 19.74280 -3.93144   0.250
 3.38 7.25 -5.371 -5.370 -5.369 -5.367 -5.363  9.59858 19.99308 -3.68127   0.306
 3.38 7.50 -5.299 -5.299 -5.298 -5.296 -5.293  9.76701 20.24329 -3.43109   0.371
 3.38 7.75 -5.226 -5.226 -5.225 -5.224 -5.222  9.92933 20.49343 -3.18090   0.447
 3.38 8.00 -5.152 -5.151 -5.151 -5.150 -5.148 10.08529 20.74351 -2.93070   0.536
 3.40-2.00 -6.425 -6.422 -6.417 -6.407 -6.394  2.13672 10.45984-13.21446   0.001
 3.40-1.50 -6.430 -6.427 -6.422 -6.411 -6.397  2.56844 10.95985-12.71444   0.001
 3.40-1.00 -6.413 -6.409 -6.403 -6.392 -6.377  3.03423 11.46000-12.21446   0.001
 3.40-0.50 -6.377 -6.373 -6.366 -6.354 -6.337  3.50907 11.96000-11.71444   0.001
 3.40 0.00 -6.327 -6.323 -6.315 -6.301 -6.282  3.97253 12.46045-11.21396   0.001
 3.40 0.50 -6.258 -6.254 -6.246 -6.230 -6.207  4.41497 12.96147-10.71287   0.001
 3.40 1.00 -6.173 -6.169 -6.160 -6.142 -6.116  4.83518 13.46494-10.20950   0.001
 3.40 1.25 -6.128 -6.124 -6.114 -6.096 -6.070  5.03578 13.71868 -9.95577   0.001
 3.40 1.50 -6.085 -6.080 -6.072 -6.053 -6.027  5.23070 13.97460 -9.69984   0.002
 3.40 1.75 -6.044 -6.040 -6.032 -6.014 -5.989  5.41971 14.23463 -9.43976   0.002
 3.40 2.00 -6.008 -6.005 -5.997 -5.982 -5.958  5.60520 14.49886 -9.17548   0.003
 3.40 2.25 -5.978 -5.975 -5.968 -5.955 -5.934  5.78727 14.76929 -8.90515   0.004
 3.40 2.50 -5.954 -5.951 -5.946 -5.934 -5.916  5.96914 15.04297 -8.63153   0.005
 3.40 2.75 -5.934 -5.932 -5.928 -5.918 -5.903  6.15089 15.31984 -8.35461   0.006
 3.40 3.00 -5.918 -5.916 -5.912 -5.905 -5.892  6.33264 15.59671 -8.07769   0.007
 3.40 3.20 -5.905 -5.904 -5.901 -5.894 -5.884  6.48082 15.81640 -7.85803   0.008
 3.40 3.40 -5.892 -5.891 -5.889 -5.883 -5.874  6.63162 16.03453 -7.63995   0.010
 3.40 3.60 -5.880 -5.879 -5.876 -5.872 -5.864  6.78634 16.25051 -7.42400   0.012
 3.40 3.80 -5.866 -5.865 -5.863 -5.859 -5.852  6.94599 16.46395 -7.21053   0.014
 3.40 4.00 -5.850 -5.850 -5.848 -5.844 -5.838  7.10958 16.67532 -6.99913   0.017
 3.40 4.20 -5.835 -5.834 -5.832 -5.829 -5.823  7.27951 16.88462 -6.78987   0.021
 3.40 4.40 -5.816 -5.815 -5.814 -5.811 -5.804  7.44944 17.09235 -6.58215   0.025
 3.40 4.60 -5.795 -5.795 -5.793 -5.790 -5.784  7.61935 17.29854 -6.37588   0.031
 3.40 4.80 -5.772 -5.771 -5.770 -5.767 -5.761  7.78911 17.50360 -6.17071   0.037
 3.40 5.00 -5.747 -5.746 -5.745 -5.741 -5.735  7.95871 17.70766 -5.96658   0.045
 3.40 5.20 -5.719 -5.718 -5.717 -5.713 -5.707  8.12439 17.91086 -5.76342   0.055
 3.40 5.40 -5.689 -5.688 -5.686 -5.683 -5.677  8.28800 18.11349 -5.56085   0.066
 3.40 5.60 -5.655 -5.655 -5.653 -5.650 -5.644  8.44937 18.31558 -5.35885   0.080
 3.40 5.80 -5.619 -5.619 -5.617 -5.614 -5.608  8.60902 18.51730 -5.15719   0.096
 3.40 6.00 -5.580 -5.579 -5.578 -5.575 -5.569  8.76730 18.71867 -4.95585   0.115
 3.40 6.25 -5.526 -5.525 -5.524 -5.521 -5.515  8.96381 18.96994 -4.70448   0.144
 3.40 6.50 -5.466 -5.465 -5.464 -5.461 -5.456  9.15897 19.22089 -4.45346   0.180
 3.40 6.75 -5.399 -5.399 -5.398 -5.395 -5.391  9.35340 19.47159 -4.20284   0.225
 3.40 7.00 -5.327 -5.326 -5.325 -5.323 -5.319  9.54605 19.72214 -3.95234   0.281
 3.40 7.25 -5.249 -5.249 -5.248 -5.246 -5.243  9.73418 19.97262 -3.70187   0.349
 3.40 7.50 -5.167 -5.167 -5.166 -5.165 -5.162  9.91719 20.22298 -3.45149   0.432
 3.40 7.75 -5.083 -5.083 -5.082 -5.081 -5.080 10.09198 20.47320 -3.20126   0.528
 3.40 8.00 -4.998 -4.998 -4.997 -4.997 -4.995 10.25959 20.72329 -2.95117   0.640
 3.42-2.00 -6.259 -6.257 -6.253 -6.245 -6.233  2.51162 10.43996-13.23441   0.001
 3.42-1.50 -6.303 -6.301 -6.296 -6.286 -6.272  2.82295 10.93992-12.73448   0.001
 3.42-1.00 -6.320 -6.317 -6.311 -6.300 -6.285  3.17493 11.43996-12.23441   0.001
 3.42-0.50 -6.304 -6.300 -6.294 -6.281 -6.264  3.57749 11.93997-11.73448   0.001
 3.42 0.00 -6.258 -6.254 -6.247 -6.232 -6.212  4.02243 12.44012-11.23426   0.001
 3.42 0.50 -6.185 -6.180 -6.171 -6.154 -6.130  4.48230 12.94052-10.73377   0.001
 3.42 1.00 -6.089 -6.085 -6.075 -6.056 -6.029  4.93268 13.44185-10.23255   0.001
 3.42 1.25 -6.038 -6.033 -6.024 -6.004 -5.977  5.15089 13.69333 -9.98108   0.001
 3.42 1.50 -5.988 -5.983 -5.974 -5.955 -5.927  5.36418 13.94576 -9.72862   0.002
 3.42 1.75 -5.938 -5.934 -5.925 -5.908 -5.882  5.57220 14.20019 -9.47419   0.003
 3.42 2.00 -5.892 -5.888 -5.881 -5.866 -5.842  5.77503 14.45713 -9.21724   0.004
 3.42 2.25 -5.851 -5.848 -5.842 -5.829 -5.809  5.97225 14.71841 -8.95598   0.005
 3.42 2.50 -5.817 -5.814 -5.809 -5.799 -5.782  6.16495 14.98403 -8.69037   0.006
 3.42 2.75 -5.790 -5.788 -5.784 -5.775 -5.761  6.35362 15.25601 -8.41834   0.007
 3.42 3.00 -5.769 -5.767 -5.764 -5.757 -5.746  6.53895 15.53058 -8.14375   0.009
 3.42 3.20 -5.756 -5.754 -5.751 -5.746 -5.736  6.68393 15.75204 -7.92235   0.010
 3.42 3.40 -5.744 -5.743 -5.741 -5.736 -5.727  6.82891 15.97349 -7.70094   0.012
 3.42 3.60 -5.734 -5.733 -5.731 -5.727 -5.719  6.97391 16.19399 -7.48047   0.014
 3.42 3.80 -5.724 -5.723 -5.722 -5.718 -5.711  7.11897 16.41218 -7.26225   0.017
 3.42 4.00 -5.713 -5.712 -5.711 -5.707 -5.701  7.26411 16.62859 -7.04581   0.020
 3.42 4.20 -5.701 -5.701 -5.699 -5.696 -5.690  7.41370 16.84226 -6.83213   0.024
 3.42 4.40 -5.687 -5.687 -5.685 -5.682 -5.676  7.56658 17.05390 -6.62048   0.028
 3.42 4.60 -5.670 -5.669 -5.668 -5.664 -5.658  7.72418 17.26347 -6.41090   0.034
 3.42 4.80 -5.650 -5.649 -5.647 -5.644 -5.638  7.88565 17.47137 -6.20297   0.041
 3.42 5.00 -5.626 -5.625 -5.623 -5.620 -5.614  8.04922 17.67779 -5.99654   0.049
 3.42 5.20 -5.598 -5.598 -5.596 -5.593 -5.587  8.21479 17.88294 -5.79143   0.059
 3.42 5.40 -5.568 -5.567 -5.566 -5.562 -5.556  8.38036 18.08717 -5.58722   0.072
 3.42 5.60 -5.535 -5.534 -5.533 -5.529 -5.524  8.54506 18.29051 -5.38383   0.087
 3.42 5.80 -5.499 -5.498 -5.497 -5.493 -5.488  8.70784 18.49324 -5.18102   0.105
 3.42 6.00 -5.459 -5.459 -5.457 -5.454 -5.449  8.86923 18.69539 -4.97881   0.126
 3.42 6.25 -5.405 -5.405 -5.403 -5.400 -5.396  9.06843 18.94738 -4.72686   0.159
 3.42 6.50 -5.345 -5.345 -5.344 -5.341 -5.337  9.26553 19.19893 -4.47534   0.199
 3.42 6.75 -5.279 -5.278 -5.277 -5.275 -5.271  9.46085 19.45024 -4.22405   0.249
 3.42 7.00 -5.205 -5.205 -5.204 -5.202 -5.199  9.65447 19.70122 -3.97306   0.312
 3.42 7.25 -5.124 -5.123 -5.122 -5.121 -5.118  9.84689 19.95176 -3.72243   0.389
 3.42 7.50 -5.035 -5.035 -5.034 -5.033 -5.031 10.03703 20.20222 -3.47198   0.484
 3.42 7.75 -4.941 -4.940 -4.940 -4.939 -4.938 10.22220 20.45265 -3.22164   0.599
 3.42 8.00 -4.843 -4.843 -4.843 -4.842 -4.841 10.40329 20.70303 -2.97143   0.738
 3.44-2.00 -6.035 -6.034 -6.031 -6.026 -6.017  3.04179 10.41996-13.25446   0.001
 3.44-1.50 -6.104 -6.102 -6.098 -6.091 -6.080  3.30707 10.91991-12.75449   0.001
 3.44-1.00 -6.154 -6.151 -6.147 -6.137 -6.124  3.58467 11.41996-12.25446   0.001
 3.44-0.50 -6.175 -6.172 -6.166 -6.154 -6.138  3.88258 11.91991-11.75449   0.001
 3.44 0.00 -6.159 -6.155 -6.148 -6.133 -6.113  4.21378 12.41996-11.25438   0.001
 3.44 0.50 -6.103 -6.099 -6.090 -6.073 -6.049  4.59062 12.92012-10.75424   0.001
 3.44 1.00 -6.015 -6.009 -6.000 -5.980 -5.952  5.01115 13.42062-10.25368   0.001
 3.44 1.25 -5.963 -5.958 -5.948 -5.928 -5.900  5.23131 13.67120-10.00305   0.001
 3.44 1.50 -5.909 -5.905 -5.895 -5.876 -5.848  5.45148 13.92221 -9.75203   0.002
 3.44 1.75 -5.856 -5.852 -5.843 -5.826 -5.800  5.67017 14.17408 -9.50021   0.003
 3.44 2.00 -5.804 -5.801 -5.793 -5.779 -5.756  5.88711 14.42716 -9.24726   0.004
 3.44 2.25 -5.756 -5.753 -5.747 -5.734 -5.716  6.09996 14.68240 -8.99206   0.005
 3.44 2.50 -5.711 -5.709 -5.704 -5.694 -5.679  6.30899 14.94047 -8.73400   0.006
 3.44 2.75 -5.671 -5.669 -5.665 -5.658 -5.645  6.51367 15.20356 -8.47088   0.008
 3.44 3.00 -5.637 -5.636 -5.632 -5.626 -5.616  6.71374 15.47114 -8.20329   0.010
 3.44 3.20 -5.614 -5.613 -5.610 -5.604 -5.595  6.87012 15.69014 -7.98443   0.012
 3.44 3.40 -5.594 -5.593 -5.591 -5.586 -5.578  7.02327 15.91006 -7.76455   0.015
 3.44 3.60 -5.578 -5.577 -5.575 -5.571 -5.563  7.17261 16.13089 -7.54365   0.017
 3.44 3.80 -5.564 -5.563 -5.561 -5.557 -5.551  7.31894 16.35194 -7.32249   0.020
 3.44 4.00 -5.551 -5.550 -5.548 -5.545 -5.539  7.46315 16.57299 -7.10133   0.024
 3.44 4.20 -5.539 -5.539 -5.537 -5.534 -5.527  7.60499 16.79122 -6.88309   0.029
 3.44 4.40 -5.527 -5.526 -5.525 -5.522 -5.515  7.74684 17.00752 -6.66681   0.034
 3.44 4.60 -5.513 -5.513 -5.511 -5.508 -5.502  7.88949 17.22155 -6.45282   0.040
 3.44 4.80 -5.497 -5.497 -5.495 -5.492 -5.486  8.03449 17.43328 -6.24110   0.047
 3.44 5.00 -5.478 -5.478 -5.476 -5.473 -5.467  8.18156 17.64306 -6.03133   0.056
 3.44 5.20 -5.456 -5.455 -5.454 -5.450 -5.444  8.33364 17.85092 -5.82343   0.067
 3.44 5.40 -5.429 -5.428 -5.427 -5.424 -5.418  8.48853 18.05742 -5.61689   0.080
 3.44 5.60 -5.398 -5.398 -5.396 -5.393 -5.388  8.64707 18.26266 -5.41168   0.095
 3.44 5.80 -5.364 -5.363 -5.362 -5.359 -5.354  8.80714 18.46699 -5.20740   0.115
 3.44 6.00 -5.325 -5.325 -5.323 -5.321 -5.316  8.96722 18.67043 -5.00397   0.138
 3.44 6.25 -5.272 -5.271 -5.270 -5.267 -5.263  9.16685 18.92364 -4.75064   0.174
 3.44 6.50 -5.211 -5.211 -5.210 -5.207 -5.204  9.36586 19.17609 -4.49812   0.218
 3.44 6.75 -5.144 -5.143 -5.142 -5.140 -5.137  9.56289 19.42805 -4.24624   0.274
 3.44 7.00 -5.068 -5.068 -5.067 -5.065 -5.063  9.75831 19.67952 -3.99482   0.343
 3.44 7.25 -4.985 -4.984 -4.984 -4.982 -4.981  9.95208 19.93049 -3.74377   0.429
 3.44 7.50 -4.893 -4.893 -4.892 -4.891 -4.890 10.14395 20.18127 -3.49295   0.535
 3.44 7.75 -4.794 -4.794 -4.794 -4.793 -4.792 10.33355 20.43196 -3.24230   0.666
 3.44 8.00 -4.690 -4.689 -4.689 -4.689 -4.688 10.52101 20.68251 -2.99183   0.826
 3.46-2.00 -5.786 -5.785 -5.784 -5.782 -5.779  3.59251 10.39985-13.27450   0.001
 3.46-1.50 -5.869 -5.868 -5.867 -5.863 -5.857  3.84652 10.89988-12.77443   0.001
 3.46-1.00 -5.940 -5.938 -5.935 -5.929 -5.920  4.10380 11.39985-12.27450   0.001
 3.46-0.50 -5.986 -5.984 -5.980 -5.971 -5.958  4.36642 11.89988-11.77443   0.001
 3.46 0.00 -5.997 -5.994 -5.988 -5.976 -5.959  4.63889 12.39985-11.27442   0.001
 3.46 0.50 -5.968 -5.964 -5.956 -5.941 -5.919  4.92814 12.89998-10.77443   0.001
 3.46 1.00 -5.907 -5.902 -5.893 -5.874 -5.848  5.24502 13.40019-10.27417   0.002
 3.46 1.25 -5.867 -5.863 -5.853 -5.835 -5.808  5.41798 13.65042-10.02397   0.003
 3.46 1.50 -5.823 -5.818 -5.809 -5.791 -5.765  5.60086 13.90081 -9.77366   0.003
 3.46 1.75 -5.775 -5.771 -5.763 -5.747 -5.723  5.79537 14.15160 -9.52286   0.003
 3.46 2.00 -5.726 -5.722 -5.715 -5.701 -5.680  5.99717 14.40295 -9.27148   0.004
 3.46 2.25 -5.676 -5.673 -5.668 -5.656 -5.638  6.20594 14.65521 -9.01918   0.005
 3.46 2.50 -5.626 -5.624 -5.620 -5.610 -5.596  6.41631 14.90886 -8.76548   0.007
 3.46 2.75 -5.578 -5.576 -5.573 -5.565 -5.554  6.62774 15.16536 -8.50896   0.009
 3.46 3.00 -5.531 -5.530 -5.527 -5.521 -5.511  6.83916 15.42521 -8.24911   0.012
 3.46 3.20 -5.496 -5.494 -5.492 -5.486 -5.478  7.00650 15.63709 -8.03726   0.014
 3.46 3.40 -5.463 -5.462 -5.459 -5.454 -5.447  7.17200 15.85179 -7.82260   0.017
 3.46 3.60 -5.433 -5.432 -5.430 -5.426 -5.419  7.33484 16.07050 -7.60390   0.021
 3.46 3.80 -5.407 -5.406 -5.404 -5.400 -5.394  7.49360 16.29112 -7.38325   0.025
 3.46 4.00 -5.383 -5.383 -5.381 -5.378 -5.372  7.64865 16.51175 -7.16260   0.030
 3.46 4.20 -5.364 -5.363 -5.362 -5.358 -5.353  7.79827 16.73232 -6.94202   0.035
 3.46 4.40 -5.346 -5.346 -5.344 -5.341 -5.335  7.94442 16.95277 -6.72155   0.042
 3.46 4.60 -5.329 -5.329 -5.327 -5.324 -5.319  8.08609 17.17181 -6.50253   0.049
 3.46 4.80 -5.313 -5.312 -5.311 -5.308 -5.303  8.22588 17.38796 -6.28639   0.057
 3.46 5.00 -5.295 -5.295 -5.293 -5.290 -5.285  8.36567 17.60206 -6.07232   0.067
 3.46 5.20 -5.276 -5.275 -5.274 -5.271 -5.266  8.50581 17.81359 -5.86081   0.079
 3.46 5.40 -5.254 -5.253 -5.252 -5.249 -5.245  8.64647 18.02328 -5.65114   0.093
 3.46 5.60 -5.229 -5.228 -5.227 -5.224 -5.220  8.78940 18.23113 -5.44327   0.110
 3.46 5.80 -5.199 -5.198 -5.197 -5.195 -5.191  8.93620 18.43761 -5.23677   0.130
 3.46 6.00 -5.164 -5.164 -5.163 -5.160 -5.157  9.08565 18.64286 -5.03152   0.155
 3.46 6.25 -5.114 -5.114 -5.113 -5.111 -5.107  9.27721 18.89804 -4.77637   0.193
 3.46 6.50 -5.056 -5.055 -5.054 -5.053 -5.050  9.47026 19.15198 -4.52245   0.241
 3.46 6.75 -4.989 -4.989 -4.988 -4.986 -4.984  9.66440 19.40488 -4.26950   0.301
 3.46 7.00 -4.914 -4.914 -4.913 -4.912 -4.910  9.85854 19.65706 -4.01728   0.376
 3.46 7.25 -4.830 -4.830 -4.829 -4.828 -4.827 10.05202 19.90863 -3.76567   0.470
 3.46 7.50 -4.737 -4.737 -4.737 -4.736 -4.735 10.24477 20.15987 -3.51442   0.587
 3.46 7.75 -4.637 -4.637 -4.637 -4.636 -4.635 10.43587 20.41091 -3.26340   0.732
 3.46 8.00 -4.530 -4.530 -4.530 -4.530 -4.529 10.62562 20.66172 -3.01265   0.910
 3.48-2.00 -5.522 -5.521 -5.521 -5.521 -5.521  4.13609 10.37967-13.29474   0.001
 3.48-1.50 -5.618 -5.618 -5.618 -5.617 -5.616  4.38721 10.87955-12.79480   0.001
 3.48-1.00 -5.704 -5.703 -5.702 -5.700 -5.697  4.63929 11.37967-12.29473   0.001
 3.48-0.50 -5.770 -5.769 -5.767 -5.763 -5.757  4.89265 11.87955-11.79480   0.001
 3.48 0.00 -5.803 -5.801 -5.798 -5.791 -5.781  5.14891 12.37967-11.29474   0.002
 3.48 0.50 -5.796 -5.793 -5.788 -5.779 -5.764  5.40960 12.87961-10.79480   0.002
 3.48 1.00 -5.755 -5.752 -5.746 -5.734 -5.716  5.67861 13.37967-10.29465   0.003
 3.48 1.25 -5.727 -5.724 -5.717 -5.704 -5.686  5.81795 13.62977-10.04459   0.003
 3.48 1.50 -5.694 -5.691 -5.684 -5.671 -5.652  5.96161 13.87996 -9.79453   0.004
 3.48 1.75 -5.658 -5.655 -5.649 -5.636 -5.619  6.11107 14.13033 -9.54417   0.005
 3.48 2.00 -5.618 -5.615 -5.610 -5.599 -5.583  6.26717 14.38094 -9.29354   0.006
 3.48 2.25 -5.576 -5.574 -5.569 -5.560 -5.546  6.43188 14.63189 -9.04258   0.007
 3.48 2.50 -5.531 -5.529 -5.525 -5.517 -5.505  6.60509 14.88344 -8.79102   0.009
 3.48 2.75 -5.484 -5.482 -5.479 -5.472 -5.462  6.78801 15.13643 -8.53802   0.011
 3.48 3.00 -5.434 -5.433 -5.430 -5.424 -5.415  6.97877 15.39129 -8.28316   0.013
 3.48 3.20 -5.393 -5.392 -5.389 -5.384 -5.377  7.13746 15.59749 -8.07690   0.016
 3.48 3.40 -5.352 -5.351 -5.348 -5.344 -5.337  7.29876 15.80610 -7.86821   0.019
 3.48 3.60 -5.311 -5.310 -5.308 -5.304 -5.297  7.46303 16.01801 -7.65629   0.023
 3.48 3.80 -5.271 -5.270 -5.268 -5.264 -5.259  7.62831 16.23332 -7.44104   0.028
 3.48 4.00 -5.233 -5.232 -5.230 -5.227 -5.222  7.79358 16.45117 -7.22323   0.034
 3.48 4.20 -5.198 -5.197 -5.196 -5.193 -5.188  7.95557 16.67243 -7.00193   0.041
 3.48 4.40 -5.166 -5.166 -5.165 -5.162 -5.158  8.11451 16.89369 -6.78064   0.049
 3.48 4.60 -5.138 -5.137 -5.136 -5.133 -5.129  8.26880 17.11464 -6.55968   0.059
 3.48 4.80 -5.111 -5.111 -5.110 -5.107 -5.103  8.41757 17.33452 -6.33983   0.070
 3.48 5.00 -5.086 -5.086 -5.085 -5.083 -5.079  8.56217 17.55340 -6.12102   0.083
 3.48 5.20 -5.063 -5.062 -5.061 -5.059 -5.056  8.70154 17.76916 -5.90525   0.097
 3.48 5.40 -5.039 -5.038 -5.037 -5.035 -5.032  8.83976 17.98281 -5.69158   0.114
 3.48 5.60 -5.014 -5.013 -5.013 -5.011 -5.008  8.97683 18.19422 -5.48014   0.133
 3.48 5.80 -4.987 -4.987 -4.986 -4.984 -4.981  9.11362 18.40371 -5.27063   0.156
 3.48 6.00 -4.957 -4.956 -4.956 -4.954 -4.951  9.25042 18.61151 -5.06283   0.183
 3.48 6.25 -4.913 -4.913 -4.912 -4.911 -4.908  9.42558 18.86921 -4.80520   0.224
 3.48 6.50 -4.861 -4.861 -4.860 -4.859 -4.857  9.60401 19.12516 -4.54929   0.274
 3.48 6.75 -4.801 -4.800 -4.800 -4.799 -4.797  9.78717 19.37963 -4.29473   0.338
 3.48 7.00 -4.730 -4.730 -4.730 -4.729 -4.728  9.97257 19.63307 -4.04125   0.419
 3.48 7.25 -4.651 -4.651 -4.651 -4.650 -4.649 10.15963 19.88569 -3.78866   0.520
 3.48 7.50 -4.563 -4.563 -4.563 -4.562 -4.561 10.34753 20.13767 -3.53671   0.646
 3.48 7.75 -4.467 -4.467 -4.466 -4.466 -4.465 10.53586 20.38919 -3.28518   0.802
 3.48 8.00 -4.363 -4.363 -4.363 -4.362 -4.362 10.72477 20.64018 -3.03414   0.997
 3.50-2.00 -5.244 -5.244 -5.244 -5.244 -5.244  4.64207 10.36003-13.31444   0.001
 3.50-1.50 -5.354 -5.354 -5.354 -5.354 -5.354  4.89237 10.85992-12.81446   0.001
 3.50-1.00 -5.453 -5.453 -5.453 -5.453 -5.453  5.14301 11.36003-12.31444   0.002
 3.50-0.50 -5.537 -5.536 -5.536 -5.535 -5.534  5.39393 11.85992-11.81446   0.002
 3.50 0.00 -5.591 -5.591 -5.590 -5.587 -5.584  5.64582 12.36003-11.31444   0.003
 3.50 0.50 -5.606 -5.605 -5.603 -5.599 -5.594  5.89900 12.85992-10.81446   0.004
 3.50 1.00 -5.582 -5.581 -5.578 -5.573 -5.566  6.15473 13.36003-10.31435   0.005
 3.50 1.25 -5.560 -5.558 -5.556 -5.550 -5.543  6.28401 13.61006-10.06427   0.006
 3.50 1.50 -5.532 -5.531 -5.528 -5.523 -5.515  6.41464 13.86010 -9.81418   0.007
 3.50 1.75 -5.501 -5.500 -5.497 -5.492 -5.484  6.54719 14.11020 -9.56406   0.008
 3.50 2.00 -5.466 -5.465 -5.463 -5.457 -5.450  6.68205 14.36040 -9.31390   0.009
 3.50 2.25 -5.429 -5.428 -5.425 -5.420 -5.413  6.81993 14.61086 -9.06349   0.011
 3.50 2.50 -5.388 -5.387 -5.385 -5.380 -5.373  6.96147 14.86166 -8.81276   0.013
 3.50 2.75 -5.345 -5.344 -5.342 -5.337 -5.331  7.10787 15.11304 -8.56135   0.015
 3.50 3.00 -5.299 -5.298 -5.295 -5.291 -5.285  7.25983 15.36530 -8.30901   0.018
 3.50 3.20 -5.260 -5.259 -5.257 -5.253 -5.247  7.38636 15.56834 -8.10595   0.021
 3.50 3.40 -5.219 -5.218 -5.216 -5.212 -5.207  7.51773 15.77287 -7.90142   0.024
 3.50 3.60 -5.176 -5.176 -5.174 -5.171 -5.165  7.65458 15.97944 -7.69487   0.028
 3.50 3.80 -5.133 -5.132 -5.130 -5.127 -5.123  7.79717 16.18896 -7.48536   0.034
 3.50 4.00 -5.087 -5.087 -5.085 -5.083 -5.079  7.94498 16.40123 -7.27311   0.040
 3.50 4.20 -5.042 -5.042 -5.041 -5.038 -5.035  8.10090 16.61787 -7.05646   0.048
 3.50 4.40 -4.997 -4.997 -4.996 -4.994 -4.991  8.25729 16.83642 -6.83791   0.057
 3.50 4.60 -4.953 -4.952 -4.952 -4.950 -4.947  8.41410 17.05714 -6.61719   0.068
 3.50 4.80 -4.910 -4.910 -4.909 -4.908 -4.905  8.57098 17.27862 -6.39572   0.082
 3.50 5.00 -4.870 -4.870 -4.869 -4.868 -4.865  8.72787 17.50010 -6.17425   0.098
 3.50 5.20 -4.833 -4.832 -4.832 -4.831 -4.828  8.87735 17.71959 -5.95481   0.116
 3.50 5.40 -4.798 -4.798 -4.797 -4.796 -4.794  9.02286 17.93742 -5.73702   0.137
 3.50 5.60 -4.765 -4.765 -4.764 -4.763 -4.761  9.16355 18.15301 -5.52144   0.161
 3.50 5.80 -4.733 -4.733 -4.733 -4.732 -4.730  9.30098 18.36606 -5.30836   0.189
 3.50 6.00 -4.701 -4.701 -4.701 -4.700 -4.698  9.43648 18.57703 -5.09734   0.221
 3.50 6.25 -4.660 -4.660 -4.659 -4.658 -4.657  9.60367 18.83797 -4.83636   0.268
 3.50 6.50 -4.614 -4.614 -4.614 -4.613 -4.612  9.77085 19.09656 -4.57774   0.325
 3.50 6.75 -4.562 -4.562 -4.562 -4.561 -4.560  9.94062 19.35321 -4.32113   0.395
 3.50 7.00 -4.502 -4.502 -4.502 -4.501 -4.500 10.11261 19.60831 -4.06606   0.482
 3.50 7.25 -4.433 -4.433 -4.433 -4.433 -4.432 10.28797 19.86207 -3.81229   0.590
 3.50 7.50 -4.356 -4.356 -4.356 -4.356 -4.355 10.46553 20.11494 -3.55941   0.723
 3.50 7.75 -4.271 -4.271 -4.271 -4.270 -4.270 10.64471 20.36725 -3.30710   0.889
 3.50 8.00 -4.178 -4.178 -4.178 -4.178 -4.177 10.82569 20.61889 -3.05547   1.095
 3.52-2.00 -4.954 -4.954 -4.954 -4.954 -4.954  5.13418 10.33985-13.33442   0.002
 3.52-1.50 -5.077 -5.077 -5.077 -5.077 -5.077  5.38435 10.83992-12.83446   0.002
 3.52-1.00 -5.190 -5.190 -5.190 -5.190 -5.190  5.63458 11.33985-12.33442   0.003
 3.52-0.50 -5.289 -5.289 -5.289 -5.289 -5.289  5.88491 11.83992-11.83446   0.004
 3.52 0.00 -5.364 -5.364 -5.363 -5.363 -5.363  6.13545 12.33985-11.33442   0.005
 3.52 0.50 -5.399 -5.399 -5.399 -5.398 -5.397  6.38650 12.83992-10.83446   0.006
 3.52 1.00 -5.392 -5.391 -5.391 -5.390 -5.388  6.63819 13.34005-10.33442   0.009
 3.52 1.25 -5.374 -5.374 -5.373 -5.372 -5.370  6.76450 13.59001-10.08444   0.011
 3.52 1.50 -5.349 -5.349 -5.349 -5.347 -5.345  6.89126 13.83998 -9.83446   0.012
 3.52 1.75 -5.319 -5.319 -5.319 -5.317 -5.315  7.01864 14.09009 -9.58434   0.013
 3.52 2.00 -5.285 -5.285 -5.284 -5.283 -5.281  7.14675 14.34025 -9.33414   0.015
 3.52 2.25 -5.247 -5.247 -5.246 -5.245 -5.243  7.27573 14.59042 -9.08390   0.018
 3.52 2.50 -5.205 -5.205 -5.204 -5.203 -5.201  7.40586 14.84067 -8.83357   0.021
 3.52 2.75 -5.160 -5.160 -5.159 -5.157 -5.156  7.53758 15.09131 -8.58294   0.024
 3.52 3.00 -5.111 -5.111 -5.110 -5.109 -5.106  7.67117 15.34242 -8.33189   0.028
 3.52 3.20 -5.070 -5.069 -5.069 -5.067 -5.065  7.77974 15.54387 -8.13046   0.032
 3.52 3.40 -5.026 -5.026 -5.025 -5.023 -5.021  7.89016 15.74610 -7.92823   0.036
 3.52 3.60 -4.980 -4.980 -4.979 -4.977 -4.975  8.00251 15.94940 -7.72494   0.042
 3.52 3.80 -4.932 -4.932 -4.931 -4.930 -4.927  8.11757 16.15460 -7.51975   0.047
 3.52 4.00 -4.883 -4.883 -4.882 -4.881 -4.879  8.23553 16.36173 -7.31265   0.054
 3.52 4.20 -4.834 -4.834 -4.833 -4.832 -4.830  8.35742 16.57225 -7.10210   0.062
 3.52 4.40 -4.785 -4.784 -4.784 -4.783 -4.781  8.48385 16.78562 -6.88871   0.072
 3.52 4.60 -4.736 -4.736 -4.735 -4.734 -4.733  8.61634 17.00299 -6.67136   0.084
 3.52 4.80 -4.688 -4.688 -4.687 -4.686 -4.685  8.75463 17.22277 -6.45163   0.099
 3.52 5.00 -4.640 -4.640 -4.639 -4.639 -4.637  8.89708 17.44326 -6.23114   0.116
 3.52 5.20 -4.592 -4.592 -4.592 -4.591 -4.590  9.04465 17.66425 -6.01013   0.138
 3.52 5.40 -4.546 -4.546 -4.545 -4.545 -4.544  9.19221 17.88523 -5.78911   0.163
 3.52 5.60 -4.501 -4.501 -4.501 -4.500 -4.499  9.33858 18.10497 -5.56938   0.194
 3.52 5.80 -4.459 -4.459 -4.459 -4.458 -4.457  9.48193 18.32195 -5.35242   0.228
 3.52 6.00 -4.419 -4.419 -4.419 -4.418 -4.418  9.62284 18.53694 -5.13745   0.268
 3.52 6.25 -4.372 -4.372 -4.371 -4.371 -4.370  9.79256 18.80200 -4.87229   0.325
 3.52 6.50 -4.325 -4.325 -4.325 -4.325 -4.324  9.95904 19.06409 -4.61013   0.394
 3.52 6.75 -4.278 -4.278 -4.277 -4.277 -4.276 10.12241 19.32356 -4.35072   0.476
 3.52 7.00 -4.227 -4.226 -4.226 -4.226 -4.225 10.28578 19.58092 -4.09340   0.575
 3.52 7.25 -4.170 -4.170 -4.170 -4.170 -4.169 10.45010 19.83639 -3.83781   0.695
 3.52 7.50 -4.107 -4.107 -4.107 -4.107 -4.106 10.61542 20.09061 -3.58353   0.840
 3.52 7.75 -4.037 -4.037 -4.037 -4.037 -4.036 10.78276 20.34403 -3.33018   1.018
 3.52 8.00 -3.961 -3.961 -3.960 -3.960 -3.960 10.95177 20.59649 -3.07790   1.237
 3.54-2.00 -4.650 -4.650 -4.650 -4.650 -4.650  5.60477 10.31994-13.35438   0.003
 3.54-1.50 -4.788 -4.788 -4.788 -4.788 -4.788  5.85479 10.81987-12.85449   0.003
 3.54-1.00 -4.916 -4.916 -4.916 -4.916 -4.915  6.10483 11.31994-12.35438   0.005
 3.54-0.50 -5.029 -5.029 -5.029 -5.029 -5.029  6.35488 11.81987-11.85449   0.006
 3.54 0.00 -5.121 -5.121 -5.121 -5.121 -5.121  6.60520 12.31994-11.35438   0.008
 3.54 0.50 -5.177 -5.177 -5.177 -5.177 -5.177  6.85546 12.81994-10.85449   0.011
 3.54 1.00 -5.185 -5.185 -5.185 -5.185 -5.185  7.10619 13.31994-10.35438   0.014
 3.54 1.25 -5.172 -5.172 -5.172 -5.172 -5.172  7.23157 13.56994-10.10444   0.016
 3.54 1.50 -5.150 -5.150 -5.150 -5.149 -5.149  7.35698 13.81994 -9.85449   0.019
 3.54 1.75 -5.119 -5.119 -5.119 -5.119 -5.119  7.48273 14.07004 -9.60439   0.022
 3.54 2.00 -5.082 -5.082 -5.082 -5.082 -5.082  7.60874 14.32015 -9.35428   0.026
 3.54 2.25 -5.039 -5.039 -5.039 -5.039 -5.039  7.73504 14.57021 -9.10423   0.030
 3.54 2.50 -4.991 -4.991 -4.991 -4.991 -4.991  7.86171 14.82027 -8.85418   0.034
 3.54 2.75 -4.938 -4.938 -4.938 -4.938 -4.937  7.98887 15.07060 -8.60383   0.040
 3.54 3.00 -4.879 -4.879 -4.879 -4.879 -4.879  8.11661 15.32119 -8.35320   0.046
 3.54 3.20 -4.829 -4.829 -4.829 -4.828 -4.828  8.21932 15.52186 -8.15250   0.052
 3.54 3.40 -4.775 -4.775 -4.775 -4.775 -4.774  8.32256 15.72289 -7.95144   0.058
 3.54 3.60 -4.718 -4.718 -4.718 -4.718 -4.717  8.42637 15.92447 -7.74987   0.066
 3.54 3.80 -4.658 -4.658 -4.658 -4.658 -4.658  8.53084 16.12718 -7.54720   0.074
 3.54 4.00 -4.597 -4.597 -4.597 -4.597 -4.596  8.63599 16.33102 -7.34342   0.084
 3.54 4.20 -4.536 -4.536 -4.535 -4.535 -4.535  8.74173 16.53692 -7.13751   0.095
 3.54 4.40 -4.475 -4.475 -4.475 -4.475 -4.474  8.84851 16.74516 -6.92923   0.107
 3.54 4.60 -4.418 -4.418 -4.418 -4.418 -4.417  8.95641 16.95661 -6.71773   0.121
 3.54 4.80 -4.366 -4.365 -4.365 -4.365 -4.365  9.06641 17.17149 -6.50283   0.138
 3.54 5.00 -4.318 -4.318 -4.318 -4.318 -4.317  9.17869 17.38899 -6.28534   0.157
 3.54 5.20 -4.275 -4.275 -4.275 -4.275 -4.274  9.29576 17.61014 -6.06424   0.180
 3.54 5.40 -4.235 -4.235 -4.235 -4.235 -4.235  9.41713 17.83129 -5.84314   0.207
 3.54 5.60 -4.196 -4.196 -4.196 -4.196 -4.196  9.54476 18.05220 -5.62226   0.239
 3.54 5.80 -4.157 -4.157 -4.157 -4.157 -4.156  9.67666 18.27227 -5.40218   0.279
 3.54 6.00 -4.117 -4.117 -4.117 -4.117 -4.116  9.81023 18.49150 -5.18290   0.325
 3.54 6.25 -4.067 -4.067 -4.067 -4.067 -4.066  9.97880 18.76128 -4.91313   0.395
 3.54 6.50 -4.018 -4.018 -4.018 -4.018 -4.017 10.14737 19.02776 -4.64666   0.479
 3.54 6.75 -3.970 -3.970 -3.970 -3.970 -3.969 10.31174 19.29072 -4.38367   0.579
 3.54 7.00 -3.923 -3.923 -3.923 -3.922 -3.922 10.47363 19.55096 -4.12338   0.697
 3.54 7.25 -3.874 -3.874 -3.874 -3.874 -3.873 10.63250 19.80877 -3.86551   0.837
 3.54 7.50 -3.823 -3.823 -3.822 -3.822 -3.822 10.79085 20.06483 -3.60942   1.004
 3.54 7.75 -3.767 -3.767 -3.767 -3.767 -3.766 10.94901 20.31967 -3.35460   1.205
 3.54 8.00 -3.707 -3.707 -3.707 -3.706 -3.706 11.10687 20.57310 -3.10122   1.445
 3.56-2.00 -4.333 -4.333 -4.333 -4.333 -4.333  6.05614 10.29994-13.37448   0.004
 3.56-1.50 -4.487 -4.487 -4.487 -4.487 -4.487  6.30600 10.79982-12.87452   0.006
 3.56-1.00 -4.629 -4.629 -4.629 -4.629 -4.628  6.55606 11.29994-12.37448   0.007
 3.56-0.50 -4.757 -4.757 -4.757 -4.757 -4.757  6.80611 11.79982-11.87452   0.010
 3.56 0.00 -4.864 -4.864 -4.864 -4.864 -4.864  7.05614 12.29994-11.37448   0.013
 3.56 0.50 -4.938 -4.938 -4.938 -4.938 -4.938  7.30621 12.79982-10.87452   0.018
 3.56 1.00 -4.962 -4.962 -4.962 -4.962 -4.962  7.55654 13.29994-10.37448   0.024
 3.56 1.25 -4.952 -4.952 -4.952 -4.952 -4.952  7.68170 13.54988-10.12450   0.028
 3.56 1.50 -4.930 -4.930 -4.930 -4.930 -4.930  7.80686 13.79982 -9.87452   0.032
 3.56 1.75 -4.897 -4.897 -4.897 -4.897 -4.897  7.93205 14.04988 -9.62451   0.037
 3.56 2.00 -4.853 -4.853 -4.853 -4.853 -4.853  8.05729 14.29994 -9.37448   0.042
 3.56 2.25 -4.801 -4.801 -4.801 -4.801 -4.801  8.18274 14.54999 -9.12434   0.048
 3.56 2.50 -4.742 -4.742 -4.742 -4.742 -4.742  8.30835 14.80003 -8.87419   0.056
 3.56 2.75 -4.675 -4.675 -4.675 -4.675 -4.675  8.43410 15.05015 -8.62408   0.065
 3.56 3.00 -4.601 -4.601 -4.601 -4.601 -4.601  8.56003 15.30038 -8.37397   0.075
 3.56 3.20 -4.538 -4.538 -4.537 -4.537 -4.537  8.66091 15.50072 -8.17370   0.084
 3.56 3.40 -4.470 -4.470 -4.470 -4.470 -4.470  8.76190 15.70126 -7.97321   0.095
 3.56 3.60 -4.400 -4.400 -4.400 -4.400 -4.400  8.86307 15.90206 -7.77243   0.107
 3.56 3.80 -4.327 -4.327 -4.327 -4.327 -4.327  8.96433 16.10341 -7.57102   0.120
 3.56 4.00 -4.252 -4.252 -4.252 -4.252 -4.252  9.06558 16.30535 -7.36896   0.135
 3.56 4.20 -4.177 -4.177 -4.177 -4.177 -4.177  9.16683 16.50850 -7.16580   0.151
 3.56 4.40 -4.103 -4.103 -4.103 -4.103 -4.102  9.26807 16.71319 -6.96113   0.170
 3.56 4.60 -4.031 -4.031 -4.031 -4.031 -4.031  9.36893 16.91992 -6.75441   0.191
 3.56 4.80 -3.965 -3.965 -3.965 -3.965 -3.965  9.46916 17.12960 -6.54471   0.214
 3.56 5.00 -3.907 -3.907 -3.906 -3.906 -3.906  9.56902 17.34203 -6.33227   0.240
 3.56 5.20 -3.857 -3.857 -3.857 -3.857 -3.857  9.66841 17.55895 -6.11545   0.269
 3.56 5.40 -3.817 -3.817 -3.817 -3.817 -3.816  9.76780 17.77768 -5.89678   0.302
 3.56 5.60 -3.785 -3.785 -3.785 -3.785 -3.785  9.86818 17.99846 -5.67600   0.339
 3.56 5.80 -3.760 -3.760 -3.760 -3.759 -3.759  9.97149 18.21992 -5.45449   0.382
 3.56 6.00 -3.737 -3.737 -3.737 -3.737 -3.737 10.07737 18.44138 -5.23299   0.432
 3.56 6.25 -3.709 -3.709 -3.709 -3.708 -3.708 10.21811 18.71525 -4.95907   0.508
 3.56 6.50 -3.677 -3.677 -3.677 -3.677 -3.676 10.36474 18.98646 -4.68782   0.601
 3.56 6.75 -3.641 -3.641 -3.641 -3.641 -3.640 10.51848 19.25362 -4.42069   0.718
 3.56 7.00 -3.602 -3.602 -3.602 -3.602 -3.601 10.67274 19.51759 -4.15677   0.857
 3.56 7.25 -3.561 -3.561 -3.561 -3.560 -3.560 10.82730 19.77849 -3.89598   1.024
 3.56 7.50 -3.518 -3.518 -3.518 -3.517 -3.517 10.98186 20.03703 -3.63752   1.223
 3.56 7.75 -3.473 -3.473 -3.473 -3.473 -3.472 11.13431 20.29377 -3.38076   1.457
 3.56 8.00 -3.427 -3.426 -3.426 -3.426 -3.425 11.28533 20.54851 -3.12592   1.734
 3.58-2.00 -4.003 -4.003 -4.003 -4.003 -4.003  6.48530 10.27990-13.39459   0.007
 3.58-1.50 -4.173 -4.173 -4.173 -4.173 -4.173  6.73536 10.77981-12.89449   0.009
 3.58-1.00 -4.330 -4.330 -4.330 -4.330 -4.330  6.98543 11.27989-12.39448   0.012
 3.58-0.50 -4.471 -4.471 -4.471 -4.471 -4.471  7.23553 11.77981-11.89449   0.016
 3.58 0.00 -4.592 -4.592 -4.592 -4.592 -4.592  7.48544 12.27989-11.39448   0.021
 3.58 0.50 -4.680 -4.680 -4.680 -4.679 -4.679  7.73552 12.77981-10.89449   0.028
 3.58 1.00 -4.714 -4.714 -4.714 -4.714 -4.714  7.98556 13.27990-10.39448   0.038
 3.58 1.25 -4.706 -4.706 -4.706 -4.706 -4.706  8.11067 13.52989-10.14449   0.044
 3.58 1.50 -4.682 -4.682 -4.682 -4.682 -4.682  8.23578 13.77989 -9.89449   0.051
 3.58 1.75 -4.643 -4.643 -4.643 -4.643 -4.643  8.36082 14.02989 -9.64449   0.059
 3.58 2.00 -4.590 -4.590 -4.590 -4.590 -4.590  8.48586 14.27989 -9.39448   0.068
 3.58 2.25 -4.526 -4.526 -4.526 -4.526 -4.526  8.61102 14.52992 -9.14449   0.078
 3.58 2.50 -4.453 -4.453 -4.453 -4.452 -4.452  8.73624 14.77996 -8.89449   0.090
 3.58 2.75 -4.371 -4.371 -4.371 -4.371 -4.370  8.86151 15.03002 -8.64437   0.104
 3.58 3.00 -4.282 -4.282 -4.282 -4.282 -4.282  8.98682 15.28012 -8.39416   0.120
 3.58 3.20 -4.207 -4.207 -4.207 -4.207 -4.207  9.08709 15.48029 -8.19395   0.135
 3.58 3.40 -4.129 -4.129 -4.129 -4.129 -4.129  9.18739 15.68057 -7.99365   0.151
 3.58 3.60 -4.048 -4.048 -4.048 -4.048 -4.048  9.28772 15.88097 -7.79325   0.170
 3.58 3.80 -3.966 -3.966 -3.966 -3.965 -3.965  9.38806 16.08165 -7.59261   0.191
 3.58 4.00 -3.882 -3.882 -3.882 -3.882 -3.882  9.48841 16.28262 -7.39169   0.214
 3.58 4.20 -3.798 -3.798 -3.798 -3.798 -3.797  9.58855 16.48427 -7.19011   0.240
 3.58 4.40 -3.714 -3.714 -3.714 -3.714 -3.714  9.68845 16.68683 -6.98763   0.269
 3.58 4.60 -3.632 -3.632 -3.632 -3.632 -3.632  9.78796 16.89058 -6.78393   0.302
 3.58 4.80 -3.554 -3.554 -3.554 -3.554 -3.554  9.88664 17.09640 -6.57811   0.338
 3.58 5.00 -3.482 -3.482 -3.482 -3.482 -3.482  9.98448 17.30428 -6.37018   0.379
 3.58 5.20 -3.418 -3.418 -3.418 -3.418 -3.418 10.08050 17.51577 -6.15859   0.423
 3.58 5.40 -3.364 -3.364 -3.364 -3.364 -3.364 10.17499 17.73007 -5.94420   0.472
 3.58 5.60 -3.322 -3.322 -3.322 -3.322 -3.322 10.26711 17.94839 -5.72583   0.525
 3.58 5.80 -3.292 -3.292 -3.292 -3.292 -3.291 10.35799 18.16877 -5.50546   0.583
 3.58 6.00 -3.272 -3.272 -3.272 -3.272 -3.271 10.44886 18.38935 -5.28492   0.647
 3.58 6.25 -3.258 -3.257 -3.257 -3.257 -3.257 10.56285 18.66521 -5.00911   0.738
 3.58 6.50 -3.249 -3.249 -3.249 -3.249 -3.248 10.67752 18.94107 -4.73330   0.842
 3.58 6.75 -3.241 -3.241 -3.240 -3.240 -3.240 10.79923 19.21243 -4.46189   0.968
 3.58 7.00 -3.228 -3.228 -3.228 -3.228 -3.227 10.92650 19.48058 -4.19368   1.121
 3.58 7.25 -3.210 -3.210 -3.210 -3.209 -3.209 11.06138 19.74497 -3.92927   1.309
 3.58 7.50 -3.186 -3.186 -3.185 -3.185 -3.184 11.20003 20.00647 -3.66776   1.536
 3.58 7.75 -3.157 -3.157 -3.156 -3.156 -3.155 11.34088 20.26564 -3.40861   1.806
 3.58 8.00 -3.124 -3.124 -3.124 -3.123 -3.122 11.48444 20.52231 -3.15200   2.131
 3.60-2.00 -3.664 -3.664 -3.664 -3.664 -3.664  6.89537 10.25983-13.41465   0.011
 3.60-1.50 -3.849 -3.849 -3.849 -3.849 -3.849  7.14551 10.75974-12.91471   0.014
 3.60-1.00 -4.021 -4.021 -4.021 -4.021 -4.021  7.39550 11.25983-12.41454   0.019
 3.60-0.50 -4.176 -4.176 -4.176 -4.176 -4.175  7.64552 11.75982-11.91435   0.025
 3.60 0.00 -4.307 -4.307 -4.307 -4.307 -4.307  7.89559 12.25983-11.41443   0.033
 3.60 0.50 -4.401 -4.401 -4.401 -4.401 -4.401  8.14551 12.75982-10.91435   0.045
 3.60 1.00 -4.439 -4.439 -4.439 -4.439 -4.439  8.39568 13.25983-10.41443   0.059
 3.60 1.25 -4.430 -4.430 -4.430 -4.430 -4.430  8.52065 13.50986-10.16439   0.068
 3.60 1.50 -4.402 -4.402 -4.402 -4.402 -4.402  8.64562 13.75990 -9.91435   0.079
 3.60 1.75 -4.356 -4.356 -4.356 -4.356 -4.356  8.77069 14.00986 -9.66439   0.092
 3.60 2.00 -4.294 -4.294 -4.294 -4.294 -4.294  8.89575 14.25983 -9.41443   0.106
 3.60 2.25 -4.219 -4.219 -4.219 -4.219 -4.219  9.02079 14.50985 -9.16439   0.122
 3.60 2.50 -4.134 -4.134 -4.134 -4.134 -4.134  9.14582 14.75989 -8.91435   0.141
 3.60 2.75 -4.041 -4.041 -4.041 -4.041 -4.041  9.27091 15.00997 -8.66433   0.163
 3.60 3.00 -3.942 -3.942 -3.942 -3.942 -3.942  9.39603 15.26007 -8.41431   0.188
 3.60 3.20 -3.860 -3.860 -3.860 -3.860 -3.860  9.49614 15.46016 -8.21424   0.211
 3.60 3.40 -3.776 -3.776 -3.776 -3.776 -3.776  9.59625 15.66028 -8.01409   0.237
 3.60 3.60 -3.690 -3.690 -3.690 -3.690 -3.689  9.69635 15.86048 -7.81388   0.266
 3.60 3.80 -3.602 -3.602 -3.602 -3.602 -3.602  9.79643 16.06090 -7.61351   0.298
 3.60 4.00 -3.514 -3.514 -3.514 -3.514 -3.514  9.89647 16.26150 -7.41296   0.335
 3.60 4.20 -3.425 -3.425 -3.425 -3.425 -3.425  9.99636 16.46235 -7.21205   0.376
 3.60 4.40 -3.337 -3.337 -3.337 -3.337 -3.336 10.09605 16.66366 -7.01064   0.421
 3.60 4.60 -3.249 -3.249 -3.249 -3.249 -3.249 10.19549 16.86560 -6.80861   0.472
 3.60 4.80 -3.164 -3.164 -3.164 -3.163 -3.163 10.29439 17.06886 -6.60539   0.529
 3.60 5.00 -3.082 -3.082 -3.082 -3.081 -3.081 10.39270 17.27346 -6.40088   0.593
 3.60 5.20 -3.005 -3.005 -3.005 -3.005 -3.005 10.48960 17.48062 -6.19374   0.663
 3.60 5.40 -2.937 -2.937 -2.937 -2.936 -2.936 10.58490 17.69037 -5.98398   0.740
 3.60 5.60 -2.878 -2.878 -2.878 -2.878 -2.878 10.67808 17.90362 -5.77072   0.823
 3.60 5.80 -2.832 -2.832 -2.832 -2.832 -2.831 10.76856 18.12010 -5.55422   0.914
 3.60 6.00 -2.799 -2.799 -2.799 -2.799 -2.798 10.85667 18.33885 -5.33545   1.011
 3.60 6.25 -2.775 -2.775 -2.775 -2.775 -2.774 10.96224 18.61570 -5.05859   1.142
 3.60 6.50 -2.767 -2.767 -2.767 -2.767 -2.766 11.06633 18.89254 -4.78173   1.287
 3.60 6.75 -2.769 -2.769 -2.769 -2.769 -2.768 11.16932 19.16727 -4.50700   1.449
 3.60 7.00 -2.776 -2.776 -2.776 -2.776 -2.775 11.27231 19.43981 -4.23448   1.631
 3.60 7.25 -2.783 -2.783 -2.783 -2.783 -2.782 11.37987 19.70816 -3.96619   1.846
 3.60 7.50 -2.787 -2.787 -2.786 -2.786 -2.785 11.49150 19.97327 -3.70115   2.100
 3.60 7.75 -2.785 -2.785 -2.784 -2.784 -2.783 11.60899 20.23539 -3.43905   2.404
 3.60 8.00 -2.776 -2.776 -2.776 -2.775 -2.774 11.73175 20.49443 -3.18000   2.769
 3.62-2.00 -3.318 -3.318 -3.318 -3.318 -3.318  7.28825 10.23930-13.43498   0.016
 3.62-1.50 -3.518 -3.518 -3.518 -3.518 -3.518  7.53832 10.73957-12.93479   0.022
 3.62-1.00 -3.704 -3.704 -3.704 -3.704 -3.704  7.78852 11.23980-12.43462   0.029
 3.62-0.50 -3.872 -3.872 -3.872 -3.872 -3.872  8.03862 11.73973-11.93479   0.039
 3.62 0.00 -4.013 -4.013 -4.013 -4.013 -4.013  8.28870 12.23980-11.43451   0.051
 3.62 0.50 -4.111 -4.111 -4.111 -4.111 -4.111  8.53857 12.73981-10.93442   0.069
 3.62 1.00 -4.146 -4.146 -4.146 -4.146 -4.146  8.78866 13.23980-10.43451   0.091
 3.62 1.25 -4.134 -4.134 -4.134 -4.134 -4.134  8.91364 13.48981-10.18446   0.105
 3.62 1.50 -4.102 -4.102 -4.102 -4.102 -4.101  9.03862 13.73981 -9.93442   0.122
 3.62 1.75 -4.050 -4.050 -4.049 -4.049 -4.049  9.16366 13.98981 -9.68446   0.141
 3.62 2.00 -3.981 -3.981 -3.981 -3.980 -3.980  9.28870 14.23980 -9.43451   0.162
 3.62 2.25 -3.899 -3.899 -3.898 -3.898 -3.898  9.41370 14.48980 -9.18446   0.187
 3.62 2.50 -3.807 -3.807 -3.807 -3.807 -3.806  9.53870 14.73981 -8.93442   0.217
 3.62 2.75 -3.708 -3.708 -3.708 -3.708 -3.708  9.66379 14.98993 -8.68440   0.250
 3.62 3.00 -3.604 -3.604 -3.604 -3.604 -3.604  9.78888 15.24005 -8.43439   0.289
 3.62 3.20 -3.519 -3.519 -3.519 -3.519 -3.518  9.88894 15.44005 -8.23440   0.324
 3.62 3.40 -3.431 -3.431 -3.431 -3.431 -3.431  9.98899 15.64005 -8.03441   0.364
 3.62 3.60 -3.343 -3.343 -3.343 -3.343 -3.342 10.08902 15.84009 -7.83433   0.408
 3.62 3.80 -3.253 -3.253 -3.253 -3.253 -3.253 10.18899 16.04026 -7.63407   0.458
 3.62 4.00 -3.163 -3.163 -3.163 -3.162 -3.162 10.28892 16.24055 -7.43368   0.514
 3.62 4.20 -3.072 -3.072 -3.072 -3.071 -3.071 10.38880 16.44104 -7.23323   0.577
 3.62 4.40 -2.981 -2.981 -2.981 -2.980 -2.980 10.48859 16.64183 -7.03259   0.647
 3.62 4.60 -2.890 -2.890 -2.890 -2.889 -2.889 10.58823 16.84297 -6.83155   0.725
 3.62 4.80 -2.800 -2.800 -2.800 -2.800 -2.799 10.68751 17.04484 -6.62964   0.813
 3.62 5.00 -2.712 -2.712 -2.712 -2.712 -2.711 10.78640 17.24748 -6.42690   0.911
 3.62 5.20 -2.627 -2.627 -2.627 -2.627 -2.626 10.88444 17.45167 -6.22271   1.020
 3.62 5.40 -2.547 -2.547 -2.547 -2.547 -2.547 10.98135 17.65774 -6.01666   1.140
 3.62 5.60 -2.475 -2.475 -2.475 -2.475 -2.474 11.07675 17.86638 -5.80799   1.273
 3.62 5.80 -2.412 -2.412 -2.412 -2.412 -2.412 11.16970 18.07833 -5.59598   1.416
 3.62 6.00 -2.362 -2.362 -2.362 -2.361 -2.361 11.26031 18.29314 -5.38111   1.572
 3.62 6.25 -2.318 -2.318 -2.318 -2.317 -2.317 11.36862 18.56748 -5.10696   1.781
 3.62 6.50 -2.294 -2.294 -2.294 -2.294 -2.293 11.47247 18.84298 -4.83150   2.007
 3.62 6.75 -2.289 -2.289 -2.288 -2.288 -2.287 11.57101 19.11924 -4.55518   2.248
 3.62 7.00 -2.296 -2.296 -2.295 -2.295 -2.294 11.66764 19.39550 -4.27885   2.513
 3.62 7.25 -2.311 -2.311 -2.310 -2.310 -2.309 11.76276 19.66767 -4.00676   2.804
 3.62 7.50 -2.329 -2.329 -2.328 -2.328 -2.327 11.85787 19.93672 -3.73779   3.129
 3.62 7.75 -2.347 -2.347 -2.346 -2.346 -2.345 11.95601 20.20212 -3.47234   3.503
 3.62 8.00 -2.362 -2.362 -2.361 -2.361 -2.360 12.05614 20.46404 -3.21028   3.931
 3.64-2.00 -2.970 -2.970 -2.970 -2.970 -2.970  7.66134 10.21880-13.45568   0.024
 3.64-1.50 -3.182 -3.182 -3.182 -3.182 -3.182  7.91190 10.71917-12.95507   0.033
 3.64-1.00 -3.382 -3.382 -3.381 -3.381 -3.381  8.16227 11.21958-12.45482   0.043
 3.64-0.50 -3.563 -3.563 -3.563 -3.563 -3.562  8.41246 11.71966-11.95468   0.058
 3.64 0.00 -3.715 -3.715 -3.715 -3.715 -3.714  8.66247 12.21985-11.45457   0.077
 3.64 0.50 -3.818 -3.818 -3.818 -3.818 -3.818  8.91254 12.71983-10.95468   0.103
 3.64 1.00 -3.850 -3.850 -3.850 -3.850 -3.850  9.16256 13.21985-10.45445   0.137
 3.64 1.25 -3.835 -3.835 -3.835 -3.835 -3.835  9.28760 13.46984-10.20456   0.158
 3.64 1.50 -3.798 -3.798 -3.798 -3.798 -3.798  9.41263 13.71983 -9.95468   0.183
 3.64 1.75 -3.742 -3.742 -3.742 -3.742 -3.741  9.53765 13.96983 -9.70456   0.211
 3.64 2.00 -3.669 -3.669 -3.669 -3.669 -3.668  9.66266 14.21985 -9.45445   0.244
 3.64 2.25 -3.583 -3.583 -3.583 -3.583 -3.583  9.78766 14.46988 -9.20435   0.282
 3.64 2.50 -3.488 -3.488 -3.488 -3.488 -3.488  9.91265 14.71991 -8.95429   0.326
 3.64 2.75 -3.386 -3.386 -3.386 -3.386 -3.386 10.03776 14.96988 -8.70437   0.376
 3.64 3.00 -3.280 -3.280 -3.280 -3.280 -3.280 10.16286 15.21985 -8.45445   0.434
 3.64 3.20 -3.193 -3.193 -3.193 -3.193 -3.193 10.26284 15.41988 -8.25439   0.487
 3.64 3.40 -3.105 -3.105 -3.105 -3.105 -3.104 10.36281 15.61995 -8.05433   0.547
 3.64 3.60 -3.015 -3.015 -3.015 -3.015 -3.014 10.46279 15.82005 -7.85425   0.613
 3.64 3.80 -2.924 -2.924 -2.924 -2.924 -2.924 10.56277 16.02018 -7.65417   0.688
 3.64 4.00 -2.832 -2.832 -2.832 -2.832 -2.832 10.66276 16.22037 -7.45408   0.772
 3.64 4.20 -2.740 -2.740 -2.740 -2.740 -2.739 10.76267 16.42062 -7.25382   0.866
 3.64 4.40 -2.648 -2.648 -2.647 -2.647 -2.647 10.86250 16.62100 -7.05339   0.972
 3.64 4.60 -2.555 -2.555 -2.555 -2.554 -2.554 10.96223 16.82160 -6.85275   1.091
 3.64 4.80 -2.462 -2.462 -2.462 -2.462 -2.461 11.06176 17.02269 -6.65168   1.223
 3.64 5.00 -2.371 -2.371 -2.371 -2.370 -2.370 11.16107 17.22428 -6.45014   1.371
 3.64 5.20 -2.281 -2.281 -2.281 -2.280 -2.280 11.25991 17.42668 -6.24777   1.536
 3.64 5.40 -2.194 -2.194 -2.194 -2.193 -2.193 11.35806 17.63030 -6.04419   1.720
 3.64 5.60 -2.112 -2.111 -2.111 -2.111 -2.111 11.45526 17.83563 -5.83887   1.923
 3.64 5.80 -2.036 -2.036 -2.036 -2.036 -2.035 11.55069 18.04369 -5.63077   2.147
 3.64 6.00 -1.970 -1.970 -1.970 -1.969 -1.969 11.64434 18.25431 -5.42010   2.391
 3.64 6.25 -1.904 -1.904 -1.904 -1.903 -1.903 11.75715 18.52308 -5.15131   2.723
 3.64 6.50 -1.859 -1.859 -1.859 -1.859 -1.858 11.86534 18.79560 -4.87877   3.084
 3.64 6.75 -1.836 -1.836 -1.836 -1.835 -1.835 11.96752 19.07234 -4.60200   3.469
 3.64 7.00 -1.831 -1.831 -1.831 -1.831 -1.830 12.06521 19.34908 -4.32523   3.882
 3.64 7.25 -1.841 -1.841 -1.841 -1.840 -1.840 12.15821 19.62410 -4.05027   4.321
 3.64 7.50 -1.860 -1.860 -1.859 -1.859 -1.858 12.24944 19.89719 -3.77728   4.799
 3.64 7.75 -1.884 -1.884 -1.883 -1.883 -1.882 12.33985 20.16608 -3.50837   5.325
 3.64 8.00 -1.910 -1.909 -1.909 -1.908 -1.907 12.42911 20.43152 -3.24283   5.902
 3.66-2.00 -2.623 -2.623 -2.623 -2.623 -2.623  8.01828 10.19701-13.47730   0.036
 3.66-1.50 -2.845 -2.845 -2.845 -2.845 -2.845  8.26951 10.69827-12.97634   0.048
 3.66-1.00 -3.056 -3.056 -3.056 -3.056 -3.056  8.52035 11.19893-12.47534   0.064
 3.66-0.50 -3.250 -3.250 -3.250 -3.250 -3.250  8.77078 11.69932-11.97510   0.085
 3.66 0.00 -3.414 -3.414 -3.414 -3.414 -3.414  9.02119 12.19948-11.47483   0.114
 3.66 0.50 -3.526 -3.526 -3.526 -3.526 -3.526  9.27114 12.69967-10.97469   0.152
 3.66 1.00 -3.560 -3.560 -3.560 -3.560 -3.559  9.52127 13.19976-10.47457   0.203
 3.66 1.25 -3.543 -3.543 -3.543 -3.542 -3.542  9.64630 13.44980-10.22463   0.234
 3.66 1.50 -3.503 -3.503 -3.503 -3.503 -3.503  9.77129 13.69984 -9.97469   0.270
 3.66 1.75 -3.445 -3.445 -3.445 -3.444 -3.444  9.89624 13.94980 -9.72463   0.312
 3.66 2.00 -3.369 -3.369 -3.369 -3.369 -3.369 10.02119 14.19976 -9.47457   0.361
 3.66 2.25 -3.282 -3.282 -3.282 -3.282 -3.281 10.14628 14.44978 -9.22463   0.417
 3.66 2.50 -3.185 -3.185 -3.185 -3.185 -3.185 10.27138 14.69984 -8.97469   0.481
 3.66 2.75 -3.082 -3.082 -3.082 -3.082 -3.082 10.39639 14.94993 -8.72457   0.555
 3.66 3.00 -2.975 -2.975 -2.975 -2.975 -2.975 10.52140 15.20003 -8.47444   0.641
 3.66 3.20 -2.888 -2.888 -2.887 -2.887 -2.887 10.62141 15.39999 -8.27437   0.719
 3.66 3.40 -2.798 -2.798 -2.798 -2.798 -2.797 10.72143 15.59995 -8.07431   0.807
 3.66 3.60 -2.708 -2.707 -2.707 -2.707 -2.707 10.82147 15.79992 -7.87426   0.906
 3.66 3.80 -2.616 -2.616 -2.616 -2.615 -2.615 10.92154 15.99995 -7.67422   1.017
 3.66 4.00 -2.523 -2.523 -2.523 -2.523 -2.523 11.02160 16.20003 -7.47418   1.141
 3.66 4.20 -2.430 -2.430 -2.430 -2.430 -2.429 11.12146 16.40019 -7.27410   1.280
 3.66 4.40 -2.337 -2.336 -2.336 -2.336 -2.336 11.22126 16.60045 -7.07396   1.436
 3.66 4.60 -2.243 -2.242 -2.242 -2.242 -2.241 11.32104 16.80081 -6.87367   1.611
 3.66 4.80 -2.148 -2.148 -2.148 -2.148 -2.147 11.42079 17.00139 -6.67299   1.807
 3.66 5.00 -2.055 -2.054 -2.054 -2.054 -2.053 11.52048 17.20222 -6.47198   2.026
 3.66 5.20 -1.962 -1.961 -1.961 -1.961 -1.960 11.61981 17.40366 -6.27054   2.271
 3.66 5.40 -1.870 -1.870 -1.870 -1.870 -1.869 11.71869 17.60590 -6.06835   2.545
 3.66 5.60 -1.781 -1.781 -1.781 -1.781 -1.780 11.81702 17.80915 -5.86514   2.851
 3.66 5.80 -1.697 -1.697 -1.697 -1.697 -1.696 11.91425 18.01422 -5.66005   3.188
 3.66 6.00 -1.619 -1.619 -1.619 -1.619 -1.618 12.01030 18.22116 -5.45309   3.561
 3.66 6.25 -1.535 -1.535 -1.534 -1.534 -1.534 12.12711 18.48464 -5.18974   4.074
 3.66 6.50 -1.469 -1.468 -1.468 -1.468 -1.467 12.24005 18.75259 -4.92191   4.640
 3.66 6.75 -1.424 -1.424 -1.424 -1.424 -1.423 12.34748 19.02668 -4.64761   5.250
 3.66 7.00 -1.402 -1.402 -1.401 -1.401 -1.400 12.44979 19.30211 -4.37212   5.906
 3.66 7.25 -1.398 -1.398 -1.398 -1.398 -1.397 12.54615 19.57845 -4.09586   6.599
 3.66 7.50 -1.409 -1.409 -1.409 -1.409 -1.408 12.63859 19.85479 -3.81959   7.340
 3.66 7.75 -1.430 -1.430 -1.430 -1.430 -1.429 12.72829 20.12691 -3.54747   8.139
 3.66 8.00 -1.457 -1.457 -1.457 -1.457 -1.456 12.81485 20.39620 -3.27811   8.992
 3.68-2.00 -2.281 -2.281 -2.281 -2.281 -2.280  8.35603 10.17348-13.50100   0.052
 3.68-1.50 -2.510 -2.510 -2.510 -2.510 -2.510  8.60906 10.67614-12.99827   0.069
 3.68-1.00 -2.731 -2.731 -2.731 -2.731 -2.730  8.86082 11.17783-12.49648   0.093
 3.68-0.50 -2.936 -2.936 -2.936 -2.935 -2.935  9.11193 11.67870-11.99568   0.124
 3.68 0.00 -3.112 -3.112 -3.112 -3.112 -3.112  9.36229 12.17927-11.49512   0.165
 3.68 0.50 -3.236 -3.236 -3.236 -3.236 -3.235  9.61257 12.67952-10.99482   0.220
 3.68 1.00 -3.276 -3.276 -3.276 -3.276 -3.276  9.86285 13.17984-10.49471   0.294
 3.68 1.25 -3.260 -3.260 -3.260 -3.260 -3.259  9.98789 13.42982-10.24455   0.340
 3.68 1.50 -3.220 -3.220 -3.220 -3.220 -3.220 10.11294 13.67979 -9.99439   0.392
 3.68 1.75 -3.161 -3.161 -3.161 -3.161 -3.160 10.23799 13.92982 -9.74442   0.452
 3.68 2.00 -3.085 -3.085 -3.085 -3.085 -3.084 10.36305 14.17984 -9.49444   0.522
 3.68 2.25 -2.997 -2.997 -2.997 -2.997 -2.996 10.48802 14.42986 -9.24442   0.603
 3.68 2.50 -2.900 -2.900 -2.900 -2.899 -2.899 10.61300 14.67988 -8.99439   0.697
 3.68 2.75 -2.796 -2.796 -2.796 -2.796 -2.796 10.73804 14.92986 -8.74442   0.805
 3.68 3.00 -2.689 -2.689 -2.689 -2.688 -2.688 10.86309 15.17984 -8.49444   0.929
 3.68 3.20 -2.600 -2.600 -2.600 -2.600 -2.599 10.96303 15.37984 -8.29443   1.042
 3.68 3.40 -2.510 -2.510 -2.510 -2.510 -2.509 11.06297 15.57986 -8.09441   1.170
 3.68 3.60 -2.419 -2.419 -2.419 -2.419 -2.418 11.16296 15.77993 -7.89438   1.312
 3.68 3.80 -2.327 -2.327 -2.327 -2.326 -2.326 11.26301 15.98003 -7.69435   1.472
 3.68 4.00 -2.234 -2.234 -2.234 -2.233 -2.233 11.36305 16.18013 -7.49431   1.652
 3.68 4.20 -2.140 -2.140 -2.140 -2.140 -2.139 11.46305 16.38021 -7.29421   1.854
 3.68 4.40 -2.046 -2.046 -2.045 -2.045 -2.045 11.56302 16.58029 -7.09406   2.080
 3.68 4.60 -1.951 -1.951 -1.951 -1.950 -1.950 11.66296 16.78044 -6.89384   2.333
 3.68 4.80 -1.856 -1.856 -1.855 -1.855 -1.854 11.76282 16.98077 -6.69347   2.618
 3.68 5.00 -1.760 -1.760 -1.760 -1.760 -1.759 11.86261 17.18127 -6.49295   2.936
 3.68 5.20 -1.666 -1.665 -1.665 -1.665 -1.664 11.96225 17.38212 -6.29216   3.293
 3.68 5.40 -1.571 -1.571 -1.571 -1.571 -1.570 12.06165 17.58345 -6.09091   3.692
 3.68 5.60 -1.479 -1.479 -1.479 -1.478 -1.478 12.16071 17.78543 -5.88903   4.138
 3.68 5.80 -1.389 -1.389 -1.389 -1.388 -1.388 12.25904 17.98863 -5.68585   4.634
 3.68 6.00 -1.303 -1.303 -1.303 -1.303 -1.302 12.35660 18.19312 -5.48135   5.184
 3.68 6.25 -1.205 -1.205 -1.205 -1.204 -1.204 12.47637 18.45216 -5.22218   5.951
 3.68 6.50 -1.121 -1.121 -1.121 -1.120 -1.120 12.59329 18.71517 -4.95900   6.809
 3.68 6.75 -1.056 -1.056 -1.055 -1.055 -1.055 12.70564 18.98436 -4.68990   7.749
 3.68 7.00 -1.012 -1.012 -1.012 -1.012 -1.011 12.81325 19.25720 -4.41714   8.771
 3.68 7.25 -0.991 -0.991 -0.991 -0.991 -0.990 12.91469 19.53399 -4.14037   9.857
 3.68 7.50 -0.989 -0.989 -0.989 -0.989 -0.988 13.01115 19.81077 -3.86360  11.014
 3.68 7.75 -1.002 -1.002 -1.002 -1.001 -1.001 13.10329 20.08537 -3.58901  12.248
 3.68 8.00 -1.025 -1.024 -1.024 -1.024 -1.023 13.19089 20.35851 -3.31587  13.550
 3.70-2.00 -1.946 -1.946 -1.946 -1.946 -1.945  8.67532 10.14551-13.52900   0.073
 3.70-1.50 -2.180 -2.180 -2.180 -2.180 -2.180  8.93207 10.65167-13.02273   0.098
 3.70-1.00 -2.407 -2.407 -2.407 -2.407 -2.406  9.18583 11.15534-12.51913   0.132
 3.70-0.50 -2.620 -2.620 -2.620 -2.620 -2.620  9.43807 11.65725-12.01714   0.176
 3.70 0.00 -2.808 -2.808 -2.808 -2.808 -2.807  9.68931 12.15836-11.51599   0.235
 3.70 0.50 -2.945 -2.945 -2.945 -2.945 -2.944  9.93992 12.65906-11.01534   0.314
 3.70 1.00 -2.996 -2.996 -2.996 -2.996 -2.996 10.19033 13.15957-10.51499   0.418
 3.70 1.25 -2.984 -2.984 -2.984 -2.983 -2.983 10.31548 13.40960-10.26489   0.483
 3.70 1.50 -2.947 -2.947 -2.946 -2.946 -2.946 10.44060 13.65963-10.01480   0.558
 3.70 1.75 -2.888 -2.888 -2.888 -2.888 -2.888 10.56568 13.90975 -9.76468   0.644
 3.70 2.00 -2.813 -2.813 -2.813 -2.813 -2.813 10.69073 14.15987 -9.51456   0.744
 3.70 2.25 -2.725 -2.725 -2.725 -2.725 -2.725 10.81575 14.40980 -9.26457   0.860
 3.70 2.50 -2.628 -2.628 -2.628 -2.628 -2.628 10.94077 14.65973 -9.01457   0.993
 3.70 2.75 -2.525 -2.525 -2.525 -2.525 -2.524 11.06583 14.90980 -8.76457   1.147
 3.70 3.00 -2.417 -2.417 -2.417 -2.417 -2.416 11.19089 15.15987 -8.51456   1.324
 3.70 3.20 -2.329 -2.329 -2.329 -2.328 -2.328 11.29090 15.35985 -8.31455   1.485
 3.70 3.40 -2.239 -2.239 -2.238 -2.238 -2.238 11.39091 15.55983 -8.11454   1.666
 3.70 3.60 -2.147 -2.147 -2.147 -2.147 -2.146 11.49093 15.75982 -7.91451   1.870
 3.70 3.80 -2.055 -2.055 -2.055 -2.054 -2.054 11.59096 15.95983 -7.71447   2.098
 3.70 4.00 -1.962 -1.961 -1.961 -1.961 -1.960 11.69099 16.15987 -7.51442   2.354
 3.70 4.20 -1.867 -1.867 -1.867 -1.867 -1.866 11.79099 16.35993 -7.31437   2.642
 3.70 4.40 -1.773 -1.773 -1.772 -1.772 -1.772 11.89095 16.56004 -7.11430   2.964
 3.70 4.60 -1.677 -1.677 -1.677 -1.677 -1.676 11.99088 16.76019 -6.91418   3.326
 3.70 4.80 -1.582 -1.582 -1.581 -1.581 -1.581 12.09077 16.96043 -6.71393   3.731
 3.70 5.00 -1.486 -1.486 -1.485 -1.485 -1.485 12.19061 17.16077 -6.51357   4.186
 3.70 5.20 -1.390 -1.390 -1.390 -1.389 -1.389 12.29042 17.36126 -6.31309   4.696
 3.70 5.40 -1.294 -1.294 -1.294 -1.294 -1.293 12.39014 17.56200 -6.11235   5.266
 3.70 5.60 -1.199 -1.199 -1.199 -1.199 -1.198 12.48965 17.76313 -5.91123   5.905
 3.70 5.80 -1.106 -1.106 -1.106 -1.105 -1.105 12.58866 17.96509 -5.70925   6.618
 3.70 6.00 -1.015 -1.015 -1.015 -1.015 -1.014 12.68717 18.16791 -5.50640   7.413
 3.70 6.25 -0.908 -0.907 -0.907 -0.907 -0.907 12.80898 18.42383 -5.25045   8.529
 3.70 6.50 -0.810 -0.810 -0.810 -0.810 -0.809 12.92886 18.68287 -4.99140   9.791
 3.70 6.75 -0.727 -0.727 -0.727 -0.727 -0.726 13.04529 18.94718 -4.72720  11.195
 3.70 7.00 -0.664 -0.664 -0.664 -0.664 -0.663 13.15776 19.21590 -4.45855  12.743
 3.70 7.25 -0.623 -0.623 -0.623 -0.623 -0.622 13.26443 19.49060 -4.18360  14.408
 3.70 7.50 -0.604 -0.604 -0.604 -0.603 -0.603 13.36586 19.76619 -3.90798  16.193
 3.70 7.75 -0.604 -0.604 -0.604 -0.603 -0.603 13.46202 20.04209 -3.63215  18.089
 3.70 8.00 -0.618 -0.618 -0.618 -0.617 -0.617 13.55291 20.31848 -3.35596  20.086
 3.73-2.00 -1.463 -1.463 -1.463 -1.463 -1.463  9.10585 10.08672-13.58754   0.116
 3.73-1.50 -1.698 -1.698 -1.698 -1.698 -1.697  9.37694 10.60498-13.06946   0.158
 3.73-1.00 -1.928 -1.928 -1.928 -1.928 -1.927  9.63879 11.11561-12.55862   0.214
 3.73-0.50 -2.148 -2.148 -2.148 -2.148 -2.147  9.89542 11.62180-12.05257   0.288
 3.73 0.00 -2.346 -2.346 -2.346 -2.346 -2.345 10.14922 12.12548-11.54898   0.386
 3.73 0.50 -2.500 -2.500 -2.500 -2.500 -2.499 10.40123 12.62726-11.04706   0.515
 3.73 1.00 -2.573 -2.573 -2.572 -2.572 -2.572 10.65254 13.12840-10.54592   0.688
 3.73 1.25 -2.569 -2.569 -2.569 -2.569 -2.569 10.77789 13.37881-10.29556   0.795
 3.73 1.50 -2.540 -2.540 -2.540 -2.540 -2.539 10.90314 13.62910-10.04528   0.918
 3.73 1.75 -2.488 -2.488 -2.488 -2.488 -2.487 11.02834 13.87924 -9.79503   1.060
 3.73 2.00 -2.417 -2.417 -2.417 -2.417 -2.416 11.15351 14.12937 -9.54485   1.225
 3.73 2.25 -2.332 -2.332 -2.332 -2.332 -2.331 11.27867 14.37950 -9.29480   1.415
 3.73 2.50 -2.238 -2.238 -2.238 -2.237 -2.237 11.40381 14.62961 -9.04475   1.634
 3.73 2.75 -2.136 -2.136 -2.136 -2.136 -2.135 11.52891 14.87965 -8.79465   1.887
 3.73 3.00 -2.030 -2.030 -2.030 -2.029 -2.029 11.65398 15.12969 -8.54455   2.180
 3.73 3.20 -1.942 -1.942 -1.942 -1.942 -1.941 11.75402 15.32973 -8.34455   2.446
 3.73 3.40 -1.853 -1.853 -1.853 -1.853 -1.852 11.85405 15.52979 -8.14455   2.744
 3.73 3.60 -1.763 -1.763 -1.763 -1.762 -1.762 11.95408 15.72986 -7.94452   3.079
 3.73 3.80 -1.671 -1.671 -1.671 -1.671 -1.670 12.05410 15.92993 -7.74446   3.455
 3.73 4.00 -1.579 -1.579 -1.579 -1.578 -1.578 12.15412 16.13001 -7.54439   3.877
 3.73 4.20 -1.485 -1.485 -1.485 -1.485 -1.484 12.25420 16.33002 -7.34438   4.350
 3.73 4.40 -1.391 -1.391 -1.391 -1.391 -1.390 12.35428 16.53002 -7.14437   4.882
 3.73 4.60 -1.296 -1.296 -1.296 -1.296 -1.295 12.45433 16.73005 -6.94433   5.478
 3.73 4.80 -1.201 -1.201 -1.201 -1.200 -1.200 12.55432 16.93016 -6.74424   6.146
 3.73 5.00 -1.105 -1.105 -1.105 -1.104 -1.104 12.65427 17.13033 -6.54409   6.896
 3.73 5.20 -1.008 -1.008 -1.008 -1.008 -1.007 12.75421 17.33056 -6.34385   7.737
 3.73 5.40 -0.912 -0.912 -0.912 -0.911 -0.911 12.85409 17.53092 -6.14346   8.680
 3.73 5.60 -0.816 -0.815 -0.815 -0.815 -0.815 12.95390 17.73146 -5.94288   9.736
 3.73 5.80 -0.720 -0.720 -0.719 -0.719 -0.719 13.05350 17.93244 -5.74189  10.919
 3.73 6.00 -0.625 -0.625 -0.625 -0.624 -0.624 13.15290 18.13386 -5.54046  12.243
 3.73 6.25 -0.509 -0.509 -0.509 -0.509 -0.509 13.27638 18.38690 -5.28743  14.114
 3.73 6.50 -0.399 -0.399 -0.399 -0.399 -0.398 13.39881 18.64177 -5.03259  16.251
 3.73 6.75 -0.298 -0.298 -0.298 -0.298 -0.297 13.51935 18.90010 -4.77430  18.669
 3.73 7.00 -0.210 -0.210 -0.210 -0.210 -0.209 13.63739 19.16227 -4.51216  21.385
 3.73 7.25 -0.141 -0.141 -0.141 -0.141 -0.140 13.75103 19.43032 -4.24394  24.374
 3.73 7.50 -0.093 -0.093 -0.093 -0.093 -0.092 13.86004 19.70234 -3.97184  27.634
 3.73 7.75 -0.068 -0.068 -0.068 -0.068 -0.068 13.96312 19.97738 -3.69688  31.117
 3.73 8.00 -0.063 -0.063 -0.063 -0.063 -0.062 14.06070 20.25575 -3.41873  34.818
 3.76-2.00 -1.024 -1.024 -1.024 -1.024 -1.023  9.44963  9.98994-13.68445   0.166
 3.76-1.50 -1.243 -1.243 -1.243 -1.243 -1.242  9.75899 10.53224-13.14213   0.238
 3.76-1.00 -1.466 -1.466 -1.465 -1.465 -1.465 10.04297 11.05994-12.61439   0.330
 3.76-0.50 -1.682 -1.682 -1.681 -1.681 -1.681 10.31239 11.57692-12.09745   0.449
 3.76 0.00 -1.880 -1.880 -1.880 -1.880 -1.879 10.57334 12.08672-11.58754   0.607
 3.76 0.50 -2.041 -2.041 -2.041 -2.041 -2.041 10.82937 12.59251-11.08192   0.815
 3.76 1.00 -2.132 -2.132 -2.131 -2.131 -2.131 11.08279 13.09587-10.57856   1.091
 3.76 1.25 -2.140 -2.140 -2.140 -2.140 -2.139 11.20896 13.34676-10.32760   1.261
 3.76 1.50 -2.122 -2.122 -2.122 -2.122 -2.122 11.33486 13.59748-10.07686   1.458
 3.76 1.75 -2.080 -2.080 -2.080 -2.080 -2.080 11.46053 13.84813 -9.82625   1.685
 3.76 2.00 -2.018 -2.018 -2.018 -2.018 -2.018 11.58602 14.09864 -9.57577   1.947
 3.76 2.25 -1.941 -1.941 -1.940 -1.940 -1.940 11.71137 14.34893 -9.32546   2.250
 3.76 2.50 -1.852 -1.852 -1.852 -1.852 -1.851 11.83664 14.59912 -9.07520   2.599
 3.76 2.75 -1.755 -1.755 -1.755 -1.755 -1.755 11.96188 14.84923 -8.82497   3.002
 3.76 3.00 -1.654 -1.653 -1.653 -1.653 -1.653 12.08707 15.09934 -8.57479   3.467
 3.76 3.20 -1.569 -1.569 -1.569 -1.569 -1.569 12.18715 15.29947 -8.37474   3.891
 3.76 3.40 -1.484 -1.483 -1.483 -1.483 -1.483 12.28722 15.49960 -8.17470   4.366
 3.76 3.60 -1.396 -1.396 -1.396 -1.396 -1.395 12.38731 15.69967 -7.97468   4.899
 3.76 3.80 -1.308 -1.308 -1.307 -1.307 -1.307 12.48740 15.89968 -7.77465   5.498
 3.76 4.00 -1.218 -1.218 -1.218 -1.217 -1.217 12.58749 16.09968 -7.57463   6.169
 3.76 4.20 -1.127 -1.127 -1.127 -1.126 -1.126 12.68758 16.29976 -7.37458   6.922
 3.76 4.40 -1.035 -1.035 -1.035 -1.035 -1.034 12.78767 16.49984 -7.17452   7.767
 3.76 4.60 -0.942 -0.942 -0.942 -0.942 -0.941 12.88773 16.69991 -6.97445   8.716
 3.76 4.80 -0.848 -0.848 -0.848 -0.848 -0.847 12.98776 16.89997 -6.77438   9.780
 3.76 5.00 -0.754 -0.754 -0.754 -0.753 -0.753 13.08778 17.10003 -6.57430  10.974
 3.76 5.20 -0.658 -0.658 -0.658 -0.658 -0.658 13.18781 17.30017 -6.37418  12.314
 3.76 5.40 -0.563 -0.563 -0.562 -0.562 -0.562 13.28784 17.50040 -6.17399  13.816
 3.76 5.60 -0.466 -0.466 -0.466 -0.466 -0.466 13.38785 17.70069 -5.97370  15.502
 3.76 5.80 -0.370 -0.370 -0.370 -0.370 -0.369 13.48777 17.90113 -5.77322  17.391
 3.76 6.00 -0.274 -0.274 -0.274 -0.273 -0.273 13.58760 18.10175 -5.57251  19.509
 3.76 6.25 -0.155 -0.155 -0.155 -0.154 -0.154 13.71201 18.35332 -5.32096  22.513
 3.76 6.50 -0.038 -0.038 -0.038 -0.038 -0.038 13.83588 18.60595 -5.06839  25.965
 3.76 6.75  0.072  0.073  0.073  0.073  0.073 13.95879 18.86051 -4.81384  29.910
 3.76 7.00  0.176  0.176  0.176  0.177  0.177 14.08027 19.11760 -4.55674  34.396
 3.76 7.25  0.267  0.267  0.267  0.267  0.268 14.19887 19.37928 -4.29509  39.428
 3.76 7.50  0.341  0.341  0.341  0.342  0.342 14.31408 19.64532 -4.02905  45.022
 3.76 7.75  0.394  0.394  0.394  0.394  0.394 14.42387 19.91640 -3.75795  51.091
 3.76 8.00  0.424  0.424  0.424  0.424  0.424 14.52892 20.19229 -3.48201  57.663
 3.79-2.00 -0.700 -0.700 -0.700 -0.700 -0.699  9.64856  9.86303-13.81135   0.202
 3.79-1.50 -0.851 -0.851 -0.851 -0.851 -0.850 10.03623 10.41963-13.25477   0.316
 3.79-1.00 -1.038 -1.038 -1.037 -1.037 -1.037 10.37346 10.97234-12.70202   0.466
 3.79-0.50 -1.233 -1.233 -1.233 -1.233 -1.232 10.67505 11.51068-12.16368   0.659
 3.79 0.00 -1.419 -1.419 -1.419 -1.419 -1.418 10.95453 12.03543-11.63903   0.909
 3.79 0.50 -1.574 -1.574 -1.574 -1.574 -1.574 11.22115 12.54998-11.12442   1.236
 3.79 1.00 -1.671 -1.671 -1.671 -1.671 -1.671 11.48058 13.05843-10.61583   1.666
 3.79 1.25 -1.689 -1.689 -1.689 -1.689 -1.688 11.60862 13.31129-10.36305   1.931
 3.79 1.50 -1.683 -1.683 -1.683 -1.683 -1.682 11.73592 13.56348-10.11092   2.236
 3.79 1.75 -1.654 -1.654 -1.654 -1.654 -1.653 11.86266 13.81511 -9.85925   2.587
 3.79 2.00 -1.605 -1.605 -1.604 -1.604 -1.604 11.98896 14.06633 -9.60801   2.992
 3.79 2.25 -1.539 -1.539 -1.538 -1.538 -1.538 12.11483 14.31717 -9.35721   3.459
 3.79 2.50 -1.460 -1.460 -1.460 -1.460 -1.459 12.24055 14.56785 -9.10657   3.997
 3.79 2.75 -1.372 -1.372 -1.372 -1.372 -1.372 12.36622 14.81846 -8.85600   4.619
 3.79 3.00 -1.278 -1.278 -1.278 -1.278 -1.278 12.49178 15.06893 -8.60555   5.337
 3.79 3.20 -1.200 -1.200 -1.200 -1.200 -1.199 12.59202 15.26906 -8.40535   5.990
 3.79 3.40 -1.120 -1.119 -1.119 -1.119 -1.119 12.69223 15.46919 -8.20520   6.723
 3.79 3.60 -1.037 -1.037 -1.037 -1.037 -1.036 12.79243 15.66934 -8.00506   7.545
 3.79 3.80 -0.954 -0.954 -0.953 -0.953 -0.953 12.89263 15.86950 -7.80495   8.467
 3.79 4.00 -0.869 -0.868 -0.868 -0.868 -0.868 12.99282 16.06967 -7.60485   9.502
 3.79 4.20 -0.782 -0.782 -0.782 -0.782 -0.781 13.09301 16.26969 -7.40478  10.663
 3.79 4.40 -0.695 -0.695 -0.694 -0.694 -0.694 13.19320 16.46971 -7.20472  11.967
 3.79 4.60 -0.606 -0.606 -0.605 -0.605 -0.605 13.29336 16.66979 -7.00465  13.429
 3.79 4.80 -0.515 -0.515 -0.515 -0.515 -0.515 13.39349 16.86991 -6.80458  15.070
 3.79 5.00 -0.424 -0.424 -0.424 -0.424 -0.423 13.49360 17.07004 -6.60450  16.912
 3.79 5.20 -0.331 -0.331 -0.331 -0.331 -0.331 13.59369 17.27005 -6.40441  18.978
 3.79 5.40 -0.238 -0.238 -0.238 -0.238 -0.237 13.69378 17.47007 -6.20431  21.297
 3.79 5.60 -0.143 -0.143 -0.143 -0.143 -0.143 13.79387 17.67014 -6.00415  23.898
 3.79 5.80 -0.048 -0.048 -0.048 -0.048 -0.048 13.89396 17.87039 -5.80386  26.817
 3.79 6.00  0.046  0.046  0.047  0.047  0.047 13.99405 18.07078 -5.60345  30.091
 3.79 6.25  0.166  0.166  0.166  0.166  0.166 14.11893 18.32161 -5.35266  34.745
 3.79 6.50  0.285  0.285  0.285  0.285  0.285 14.24354 18.57299 -5.10139  40.107
 3.79 6.75  0.402  0.402  0.402  0.402  0.402 14.36767 18.82536 -4.84896  46.269
 3.79 7.00  0.515  0.515  0.515  0.515  0.515 14.49108 19.07918 -4.59500  53.332
 3.79 7.25  0.620  0.620  0.620  0.620  0.620 14.61288 19.33600 -4.33824  61.358
 3.79 7.50  0.714  0.714  0.714  0.714  0.714 14.73256 19.59627 -4.07811  70.419
 3.79 7.75  0.791  0.791  0.791  0.791  0.791 14.84803 19.86190 -3.81250  80.431
 3.79 8.00  0.847  0.847  0.847  0.848  0.848 14.96000 20.13226 -3.54212  91.497
 3.82-2.00 -0.567 -0.567 -0.567 -0.567 -0.567  9.69810  9.77612-13.89825   0.207
 3.82-1.50 -0.612 -0.612 -0.612 -0.612 -0.611 10.16227 10.30406-13.37039   0.353
 3.82-1.00 -0.703 -0.703 -0.703 -0.702 -0.702 10.58365 10.85297-12.82131   0.573
 3.82-0.50 -0.835 -0.835 -0.835 -0.835 -0.834 10.95168 11.41027-12.26416   0.875
 3.82 0.00 -0.982 -0.982 -0.982 -0.982 -0.981 11.27416 11.95818-11.71625   1.269
 3.82 0.50 -1.113 -1.113 -1.113 -1.113 -1.112 11.56620 12.49108-11.18330   1.776
 3.82 1.00 -1.201 -1.201 -1.201 -1.201 -1.201 11.84023 13.01157-10.66274   2.435
 3.82 1.25 -1.222 -1.222 -1.222 -1.221 -1.221 11.97297 13.26838-10.40594   2.837
 3.82 1.50 -1.223 -1.223 -1.223 -1.223 -1.223 12.10380 13.52362-10.15070   3.298
 3.82 1.75 -1.206 -1.206 -1.206 -1.206 -1.205 12.23309 13.77757 -9.89666   3.828
 3.82 2.00 -1.170 -1.170 -1.170 -1.170 -1.170 12.36135 14.03060 -9.64359   4.437
 3.82 2.25 -1.119 -1.119 -1.118 -1.118 -1.118 12.48883 14.28290 -9.39140   5.139
 3.82 2.50 -1.054 -1.054 -1.054 -1.054 -1.053 12.61574 14.53466 -9.13972   5.947
 3.82 2.75 -0.979 -0.979 -0.979 -0.979 -0.979 12.74221 14.78602 -8.88836   6.879
 3.82 3.00 -0.897 -0.897 -0.896 -0.896 -0.896 12.86835 15.03703 -8.63733   7.954
 3.82 3.20 -0.826 -0.826 -0.826 -0.826 -0.826 12.96907 15.23756 -8.43677   8.931
 3.82 3.40 -0.754 -0.754 -0.753 -0.753 -0.753 13.06966 15.43801 -8.23632  10.028
 3.82 3.60 -0.678 -0.678 -0.678 -0.678 -0.678 13.17015 15.63839 -8.03598  11.258
 3.82 3.80 -0.601 -0.601 -0.601 -0.601 -0.601 13.27055 15.83874 -7.83569  12.637
 3.82 4.00 -0.523 -0.523 -0.523 -0.522 -0.522 13.37088 16.03902 -7.63545  14.185
 3.82 4.20 -0.443 -0.443 -0.443 -0.442 -0.442 13.47113 16.23914 -7.43526  15.921
 3.82 4.40 -0.361 -0.361 -0.361 -0.361 -0.360 13.57137 16.43927 -7.23509  17.869
 3.82 4.60 -0.278 -0.278 -0.278 -0.278 -0.277 13.67162 16.63943 -7.03494  20.056
 3.82 4.80 -0.193 -0.193 -0.193 -0.193 -0.193 13.77188 16.83962 -6.83481  22.510
 3.82 5.00 -0.107 -0.107 -0.107 -0.107 -0.106 13.87216 17.03981 -6.63470  25.264
 3.82 5.20 -0.019 -0.019 -0.019 -0.019 -0.018 13.97244 17.23982 -6.43464  28.354
 3.82 5.40  0.069  0.070  0.070  0.070  0.070 14.07273 17.43983 -6.23457  31.823
 3.82 5.60  0.160  0.160  0.161  0.161  0.161 14.17300 17.63987 -6.03449  35.716
 3.82 5.80  0.253  0.253  0.253  0.253  0.253 14.27325 17.84000 -5.83434  40.086
 3.82 6.00  0.346  0.346  0.346  0.346  0.346 14.37346 18.04021 -5.63414  44.990
 3.82 6.25  0.464  0.464  0.464  0.464  0.464 14.49867 18.29063 -5.38371  51.968
 3.82 6.50  0.582  0.582  0.582  0.582  0.582 14.62377 18.54133 -5.13300  60.021
 3.82 6.75  0.700  0.700  0.700  0.700  0.700 14.74868 18.79254 -4.88174  69.305
 3.82 7.00  0.817  0.817  0.817  0.817  0.817 14.87326 19.04454 -4.62967  79.992
 3.82 7.25  0.930  0.930  0.930  0.930  0.930 14.99702 19.29824 -4.37601  92.234
 3.82 7.50  1.037  1.037  1.037  1.037  1.037 15.11959 19.55413 -4.12022 106.201
 3.82 7.75  1.133  1.133  1.133  1.133  1.133 15.23919 19.81418 -3.86015 121.886
 3.82 8.00  1.214  1.214  1.214  1.214  1.214 15.35641 20.07773 -3.59654 139.520
 3.85-2.00 -0.540 -0.540 -0.540 -0.540 -0.540  9.68458  9.73199-13.94233   0.197
 3.85-1.50 -0.540 -0.540 -0.540 -0.539 -0.539 10.17696 10.23855-13.43581   0.347
 3.85-1.00 -0.543 -0.543 -0.543 -0.543 -0.542 10.65533 10.75656-12.91793   0.601
 3.85-0.50 -0.566 -0.566 -0.566 -0.566 -0.565 11.10209 11.29469-12.37976   1.006
 3.85 0.00 -0.620 -0.620 -0.620 -0.620 -0.620 11.49859 11.85003-11.82449   1.588
 3.85 0.50 -0.690 -0.690 -0.690 -0.690 -0.690 11.84354 12.40449-11.26995   2.362
 3.85 1.00 -0.744 -0.744 -0.744 -0.744 -0.743 12.15014 12.94542-10.72886   3.361
 3.85 1.25 -0.757 -0.757 -0.757 -0.756 -0.756 12.29353 13.21015-10.46414   3.964
 3.85 1.50 -0.757 -0.757 -0.757 -0.757 -0.757 12.43249 13.47188-10.20246   4.652
 3.85 1.75 -0.744 -0.744 -0.744 -0.744 -0.744 12.56795 13.73099 -9.94339   5.437
 3.85 2.00 -0.718 -0.718 -0.718 -0.718 -0.718 12.70088 13.98807 -9.68634   6.337
 3.85 2.25 -0.679 -0.679 -0.679 -0.679 -0.679 12.83183 14.24339 -9.43101   7.368
 3.85 2.50 -0.629 -0.629 -0.629 -0.629 -0.629 12.96133 14.49748 -9.17692   8.553
 3.85 2.75 -0.569 -0.569 -0.569 -0.569 -0.569 13.08965 14.75065 -8.92378   9.915
 3.85 3.00 -0.501 -0.501 -0.501 -0.501 -0.500 13.21722 15.00303 -8.67142  11.484
 3.85 3.20 -0.442 -0.442 -0.441 -0.441 -0.441 13.31889 15.20440 -8.47003  12.909
 3.85 3.40 -0.379 -0.379 -0.379 -0.378 -0.378 13.42027 15.40550 -8.26891  14.507
 3.85 3.60 -0.313 -0.313 -0.313 -0.313 -0.312 13.52135 15.60640 -8.06804  16.297
 3.85 3.80 -0.245 -0.245 -0.245 -0.244 -0.244 13.62223 15.80715 -7.86733  18.304
 3.85 4.00 -0.174 -0.174 -0.174 -0.174 -0.174 13.72296 16.00775 -7.66675  20.555
 3.85 4.20 -0.102 -0.102 -0.102 -0.102 -0.101 13.82360 16.20819 -7.46627  23.080
 3.85 4.40 -0.028 -0.028 -0.028 -0.028 -0.027 13.92416 16.40854 -7.26587  25.913
 3.85 4.60  0.047  0.047  0.047  0.047  0.048 14.02467 16.60874 -7.06557  29.091
 3.85 4.80  0.125  0.125  0.125  0.125  0.125 14.12514 16.80888 -6.86533  32.658
 3.85 5.00  0.204  0.204  0.204  0.204  0.205 14.22557 17.00903 -6.66514  36.661
 3.85 5.20  0.286  0.286  0.286  0.286  0.286 14.32596 17.20926 -6.46501  41.153
 3.85 5.40  0.369  0.369  0.369  0.369  0.370 14.42635 17.40949 -6.26488  46.196
 3.85 5.60  0.455  0.455  0.455  0.455  0.455 14.52676 17.60966 -6.06472  51.857
 3.85 5.80  0.542  0.542  0.542  0.542  0.542 14.62719 17.80977 -5.86453  58.213
 3.85 6.00  0.631  0.631  0.631  0.631  0.631 14.72762 18.00988 -5.66434  65.348
 3.85 6.25  0.744  0.744  0.744  0.745  0.745 14.85314 18.26015 -5.41410  75.509
 3.85 6.50  0.860  0.860  0.860  0.860  0.860 14.97864 18.51055 -5.16387  87.249
 3.85 6.75  0.976  0.976  0.976  0.977  0.977 15.10408 18.76111 -4.91322 100.805
 3.85 7.00  1.094  1.094  1.094  1.094  1.094 15.22943 19.01199 -4.66214 116.452
 3.85 7.25  1.210  1.210  1.210  1.210  1.210 15.35431 19.26385 -4.41035 134.459
 3.85 7.50  1.324  1.324  1.324  1.324  1.324 15.47857 19.51693 -4.15745 155.138
 3.85 7.75  1.432  1.432  1.432  1.432  1.432 15.60108 19.77252 -3.90188 178.640
 3.85 8.00  1.531  1.531  1.531  1.531  1.531 15.72222 20.03020 -3.64417 205.380
 3.88-2.00 -0.538 -0.538 -0.538 -0.537 -0.537  9.65744  9.69932-13.97511   0.184
 3.88-1.50 -0.530 -0.530 -0.530 -0.530 -0.529 10.15594 10.20058-13.47379   0.327
 3.88-1.00 -0.510 -0.510 -0.510 -0.510 -0.509 10.65138 10.70475-12.96940   0.578
 3.88-0.50 -0.471 -0.471 -0.471 -0.471 -0.470 11.13767 11.21643-12.45780   1.012
 3.88 0.00 -0.420 -0.420 -0.419 -0.419 -0.419 11.60097 11.74492-11.92959   1.725
 3.88 0.50 -0.376 -0.376 -0.376 -0.376 -0.376 12.02119 12.29425-11.38018   2.799
 3.88 1.00 -0.347 -0.347 -0.347 -0.347 -0.347 12.38810 12.85150-10.82275   4.270
 3.88 1.25 -0.333 -0.333 -0.333 -0.333 -0.333 12.55346 13.12671-10.54754   5.165
 3.88 1.50 -0.316 -0.316 -0.316 -0.316 -0.315 12.70978 13.39898-10.27532   6.184
 3.88 1.75 -0.294 -0.294 -0.294 -0.294 -0.294 12.85831 13.66702-10.00738   7.339
 3.88 2.00 -0.266 -0.266 -0.266 -0.266 -0.266 13.00130 13.93166 -9.74280   8.653
 3.88 2.25 -0.233 -0.233 -0.233 -0.232 -0.232 13.13995 14.19295 -9.48142  10.148
 3.88 2.50 -0.192 -0.192 -0.192 -0.192 -0.191 13.27531 14.45179 -9.22250  11.858
 3.88 2.75 -0.144 -0.144 -0.144 -0.144 -0.144 13.40800 14.70863 -8.96565  13.816
 3.88 3.00 -0.090 -0.090 -0.090 -0.090 -0.089 13.53883 14.96388 -8.71041  16.063
 3.88 3.20 -0.042 -0.042 -0.042 -0.042 -0.042 13.64242 15.16705 -8.50726  18.098
 3.88 3.40  0.008  0.008  0.009  0.009  0.009 13.74535 15.36963 -8.30470  20.375
 3.88 3.60  0.063  0.063  0.063  0.063  0.064 13.84766 15.57169 -8.10266  22.923
 3.88 3.80  0.121  0.121  0.121  0.121  0.122 13.94958 15.77339 -7.90096  25.778
 3.88 4.00  0.181  0.182  0.182  0.182  0.182 14.05115 15.97474 -7.69962  28.976
 3.88 4.20  0.244  0.244  0.244  0.245  0.245 14.15244 16.17579 -7.49860  32.560
 3.88 4.40  0.309  0.309  0.310  0.310  0.310 14.25356 16.37663 -7.29777  36.580
 3.88 4.60  0.377  0.377  0.377  0.377  0.377 14.35453 16.57729 -7.09713  41.088
 3.88 4.80  0.446  0.446  0.446  0.446  0.446 14.45540 16.77784 -6.89659  46.146
 3.88 5.00  0.517  0.517  0.517  0.517  0.518 14.55618 16.97827 -6.69616  51.822
 3.88 5.20  0.591  0.591  0.591  0.591  0.591 14.65686 17.17861 -6.49581  58.190
 3.88 5.40  0.667  0.667  0.667  0.667  0.667 14.75754 17.37888 -6.29551  65.341
 3.88 5.60  0.745  0.745  0.745  0.745  0.745 14.85821 17.57910 -6.09526  73.370
 3.88 5.80  0.826  0.826  0.826  0.826  0.826 14.95889 17.77929 -5.89505  82.385
 3.88 6.00  0.909  0.909  0.909  0.909  0.909 15.05956 17.97946 -5.69486  92.508
 3.88 6.25  1.015  1.015  1.015  1.015  1.016 15.18544 18.22966 -5.44468 106.931
 3.88 6.50  1.125  1.125  1.125  1.125  1.125 15.31133 18.47986 -5.19450 123.606
 3.88 6.75  1.238  1.238  1.238  1.238  1.238 15.43723 18.73020 -4.94413 142.887
 3.88 7.00  1.352  1.352  1.352  1.352  1.352 15.56312 18.98069 -4.69358 165.176
 3.88 7.25  1.468  1.468  1.468  1.468  1.468 15.68880 19.23147 -4.44279 190.898
 3.88 7.50  1.584  1.584  1.584  1.584  1.584 15.81418 19.48273 -4.19159 220.556
 3.88 7.75  1.698  1.698  1.698  1.698  1.698 15.93857 19.73532 -3.93898 254.524
 3.88 8.00  1.809  1.809  1.809  1.809  1.809 16.06221 19.98896 -3.68529 293.463
 3.91-2.00 -0.539 -0.539 -0.538 -0.538 -0.538  9.62808  9.66876-14.00555   0.172
 3.91-1.50 -0.532 -0.532 -0.532 -0.532 -0.531 10.12775 10.16909-13.50529   0.306
 3.91-1.00 -0.513 -0.513 -0.513 -0.513 -0.513 10.62675 10.66997-13.00436   0.543
 3.91-0.50 -0.468 -0.468 -0.468 -0.467 -0.467 11.12353 11.17290-12.50155   0.962
 3.91 0.00 -0.377 -0.377 -0.377 -0.377 -0.377 11.61426 11.68106-11.99353   1.693
 3.91 0.50 -0.242 -0.242 -0.242 -0.242 -0.242 12.08778 12.20249-11.47198   2.920
 3.91 1.00 -0.091 -0.091 -0.091 -0.091 -0.090 12.52556 12.74484-10.92959   4.833
 3.91 1.25 -0.022 -0.022 -0.022 -0.022 -0.021 12.72476 13.02315-10.65122   6.079
 3.91 1.50  0.040  0.040  0.040  0.040  0.040 12.91126 13.30146-10.37284   7.535
 3.91 1.75  0.094  0.094  0.094  0.094  0.094 13.08455 13.57849-10.09580   9.198
 3.91 2.00  0.143  0.143  0.143  0.143  0.143 13.24748 13.85388 -9.82045  11.095
 3.91 2.25  0.188  0.188  0.188  0.188  0.188 13.40115 14.12452 -9.54980  13.243
 3.91 2.50  0.232  0.232  0.232  0.233  0.233 13.54814 14.39164 -9.28266  15.686
 3.91 2.75  0.277  0.277  0.277  0.277  0.277 13.68977 14.65518 -9.01914  18.464
 3.91 3.00  0.324  0.324  0.324  0.324  0.324 13.82743 14.91587 -8.75845  21.634
 3.91 3.20  0.363  0.363  0.363  0.363  0.364 13.93518 15.12250 -8.55180  24.492
 3.91 3.40  0.405  0.405  0.405  0.405  0.406 14.04150 15.32795 -8.34633  27.681
 3.91 3.60  0.450  0.450  0.450  0.450  0.450 14.14649 15.53231 -8.14202  31.237
 3.91 3.80  0.497  0.497  0.497  0.497  0.498 14.25061 15.73590 -7.93848  35.214
 3.91 4.00  0.547  0.547  0.547  0.548  0.548 14.35392 15.93877 -7.73565  39.661
 3.91 4.20  0.600  0.600  0.600  0.600  0.600 14.45654 16.14101 -7.53339  44.637
 3.91 4.40  0.655  0.655  0.655  0.655  0.655 14.55875 16.34282 -7.33154  50.213
 3.91 4.60  0.712  0.712  0.712  0.713  0.713 14.66058 16.54425 -7.13007  56.459
 3.91 4.80  0.772  0.772  0.772  0.772  0.773 14.76220 16.74543 -6.92886  63.465
 3.91 5.00  0.834  0.834  0.835  0.835  0.835 14.86362 16.94636 -6.72793  71.323
 3.91 5.20  0.899  0.899  0.899  0.899  0.900 14.96490 17.14709 -6.52727  80.135
 3.91 5.40  0.966  0.966  0.966  0.966  0.967 15.06607 17.34769 -6.32673  90.029
 3.91 5.60  1.036  1.036  1.036  1.036  1.037 15.16709 17.54815 -6.12630 101.136
 3.91 5.80  1.109  1.109  1.109  1.109  1.109 15.26806 17.74851 -5.92592 113.610
 3.91 6.00  1.184  1.184  1.184  1.184  1.184 15.36903 17.94880 -5.72561 127.622
 3.91 6.25  1.282  1.282  1.282  1.282  1.282 15.49529 18.19907 -5.47533 147.593
 3.91 6.50  1.384  1.384  1.384  1.384  1.384 15.62159 18.44933 -5.22505 170.690
 3.91 6.75  1.490  1.490  1.490  1.490  1.490 15.74798 18.69959 -4.97476 197.430
 3.91 7.00  1.599  1.599  1.599  1.599  1.599 15.87437 18.94988 -4.72446 228.360
 3.91 7.25  1.711  1.711  1.711  1.711  1.711 16.00074 19.20024 -4.47411 264.126
 3.91 7.50  1.826  1.826  1.826  1.826  1.826 16.12710 19.45071 -4.22366 305.475
 3.91 7.75  1.941  1.941  1.941  1.941  1.941 16.25286 19.70167 -3.97274 353.059
 3.91 8.00  2.056  2.056  2.056  2.056  2.056 16.37822 19.95299 -3.72147 407.863
 3.94-2.00 -0.539 -0.539 -0.539 -0.539 -0.539  9.59835  9.63839-14.03593   0.161
 3.94-1.50 -0.535 -0.535 -0.535 -0.535 -0.535 10.09795 10.13862-13.53581   0.285
 3.94-1.00 -0.521 -0.521 -0.521 -0.521 -0.521 10.59781 10.63889-13.03546   0.507
 3.94-0.50 -0.485 -0.485 -0.485 -0.484 -0.484 11.09691 11.13956-12.53477   0.901
 3.94 0.00 -0.400 -0.400 -0.400 -0.400 -0.399 11.59484 11.64167-12.03269   1.599
 3.94 0.50 -0.245 -0.245 -0.245 -0.245 -0.244 12.08778 12.14768-11.52666   2.820
 3.94 1.00 -0.019 -0.019 -0.019 -0.019 -0.019 12.56785 12.66455-11.00979   4.901
 3.94 1.25  0.107  0.107  0.107  0.107  0.107 12.79733 12.93034-10.74394   6.384
 3.94 1.50  0.233  0.233  0.233  0.234  0.234 13.01745 13.20085-10.47340   8.226
 3.94 1.75  0.348  0.348  0.348  0.348  0.348 13.22426 13.47809-10.19640  10.437
 3.94 2.00  0.448  0.448  0.448  0.448  0.449 13.41847 13.75549 -9.91901  13.051
 3.94 2.25  0.531  0.531  0.531  0.531  0.531 13.59844 14.03299 -9.64141  16.056
 3.94 2.50  0.601  0.601  0.601  0.601  0.601 13.76716 14.31048 -9.36381  19.498
 3.94 2.75  0.660  0.660  0.660  0.660  0.660 13.92551 14.58328 -9.09098  23.400
 3.94 3.00  0.714  0.714  0.714  0.714  0.714 14.07628 14.85266 -8.82160  27.837
 3.94 3.20  0.753  0.753  0.753  0.753  0.754 14.19228 15.06517 -8.60913  31.811
 3.94 3.40  0.793  0.793  0.793  0.793  0.793 14.30535 15.27570 -8.39864  36.231
 3.94 3.60  0.832  0.832  0.832  0.832  0.832 14.41560 15.48424 -8.19008  41.132
 3.94 3.80  0.872  0.872  0.872  0.873  0.873 14.52396 15.69129 -7.98300  46.597
 3.94 4.00  0.914  0.914  0.915  0.915  0.915 14.63063 15.89697 -7.77728  52.687
 3.94 4.20  0.958  0.958  0.958  0.958  0.959 14.73597 16.10148 -7.57279  59.481
 3.94 4.40  1.004  1.004  1.004  1.004  1.005 14.84039 16.30517 -7.36913  67.081
 3.94 4.60  1.052  1.052  1.052  1.053  1.053 14.94396 16.50810 -7.16623  75.577
 3.94 4.80  1.103  1.103  1.103  1.103  1.103 15.04698 16.71052 -6.96385  85.096
 3.94 5.00  1.156  1.156  1.156  1.156  1.156 15.14953 16.91243 -6.76196  95.760
 3.94 5.20  1.211  1.211  1.211  1.211  1.212 15.25168 17.11393 -6.56047 107.711
 3.94 5.40  1.269  1.269  1.269  1.269  1.270 15.35361 17.31514 -6.35927 121.122
 3.94 5.60  1.330  1.330  1.330  1.330  1.330 15.45532 17.51610 -6.15833 136.170
 3.94 5.80  1.393  1.393  1.393  1.393  1.394 15.55693 17.71689 -5.95757 153.070
 3.94 6.00  1.460  1.460  1.460  1.460  1.460 15.65849 17.91751 -5.75696 172.055
 3.94 6.25  1.547  1.547  1.547  1.547  1.548 15.78538 18.16804 -5.50634 199.115
 3.94 6.50  1.640  1.640  1.640  1.640  1.640 15.91228 18.41847 -5.25586 230.431
 3.94 6.75  1.737  1.737  1.737  1.737  1.737 16.03935 18.66886 -5.00553 266.705
 3.94 7.00  1.839  1.839  1.839  1.839  1.839 16.16643 18.91918 -4.75523 308.711
 3.94 7.25  1.945  1.945  1.945  1.945  1.945 16.29352 19.16940 -4.50496 357.369
 3.94 7.50  2.055  2.055  2.055  2.055  2.055 16.42062 19.41963 -4.25469 413.697
 3.94 7.75  2.168  2.168  2.168  2.168  2.168 16.54745 19.66997 -4.00436 478.763
 3.94 8.00  2.282  2.282  2.282  2.282  2.283 16.67413 19.92039 -3.75399 553.954
 3.97-2.00 -0.535 -0.535 -0.535 -0.535 -0.535  9.57019  9.60681-14.06758   0.150
 3.97-1.50 -0.536 -0.536 -0.536 -0.535 -0.535 10.06893 10.10789-13.56639   0.267
 3.97-1.00 -0.527 -0.527 -0.527 -0.527 -0.527 10.56820 10.60863-13.06575   0.474
 3.97-0.50 -0.502 -0.502 -0.501 -0.501 -0.501 11.06781 11.10890-12.56543   0.842
 3.97 0.00 -0.435 -0.435 -0.435 -0.434 -0.434 11.56714 11.60959-12.06474   1.496
 3.97 0.50 -0.296 -0.295 -0.295 -0.295 -0.295 12.06521 12.11126-11.56304   2.654
 3.97 1.00 -0.063 -0.063 -0.063 -0.063 -0.063 12.55955 12.61637-11.05799   4.690
 3.97 1.25  0.085  0.085  0.085  0.085  0.085 12.80318 12.87187-10.80253   6.209
 3.97 1.50  0.249  0.249  0.249  0.250  0.250 13.04297 13.13033-10.54409   8.183
 3.97 1.75  0.418  0.418  0.418  0.418  0.418 13.27594 13.39390-10.28048  10.700
 3.97 2.00  0.581  0.581  0.581  0.581  0.581 13.50065 13.66219-10.01216  13.858
 3.97 2.25  0.726  0.726  0.726  0.726  0.726 13.71264 13.93721 -9.73722  17.689
 3.97 2.50  0.851  0.851  0.851  0.851  0.851 13.91233 14.21405 -9.46042  22.263
 3.97 2.75  0.951  0.951  0.951  0.951  0.951 14.09762 14.49219 -9.18228  27.558
 3.97 3.00  1.034  1.034  1.034  1.034  1.034 14.27114 14.77034 -8.90413  33.652
 3.97 3.20  1.089  1.089  1.089  1.089  1.089 14.40169 14.98987 -8.68456  39.108
 3.97 3.40  1.138  1.138  1.138  1.138  1.138 14.52689 15.20736 -8.46702  45.171
 3.97 3.60  1.182  1.182  1.182  1.183  1.183 14.64689 15.42243 -8.25195  51.862
 3.97 3.80  1.224  1.224  1.224  1.224  1.224 14.76325 15.63506 -8.03936  59.295
 3.97 4.00  1.264  1.264  1.264  1.264  1.264 14.87633 15.84559 -7.82886  67.540
 3.97 4.20  1.304  1.304  1.304  1.304  1.304 14.98674 16.05413 -7.62032  76.699
 3.97 4.40  1.344  1.344  1.344  1.344  1.345 15.09531 16.26120 -7.41324  86.914
 3.97 4.60  1.386  1.386  1.386  1.386  1.386 15.20216 16.46684 -7.20755  98.291
 3.97 4.80  1.429  1.429  1.429  1.429  1.430 15.30790 16.67147 -7.00288 111.013
 3.97 5.00  1.474  1.474  1.474  1.475  1.475 15.41263 16.87518 -6.79915 125.235
 3.97 5.20  1.522  1.522  1.522  1.522  1.522 15.51654 17.07810 -6.59628 141.148
 3.97 5.40  1.571  1.571  1.571  1.571  1.572 15.61994 17.28049 -6.39392 158.990
 3.97 5.60  1.623  1.623  1.623  1.624  1.624 15.72283 17.48236 -6.19201 178.987
 3.97 5.80  1.678  1.678  1.678  1.678  1.679 15.82545 17.68391 -5.99041 201.437
 3.97 6.00  1.736  1.736  1.736  1.736  1.737 15.92789 17.88514 -5.78915 226.647
 3.97 6.25  1.813  1.813  1.813  1.813  1.813 16.05576 18.13632 -5.53810 262.563
 3.97 6.50  1.895  1.895  1.895  1.895  1.895 16.18356 18.38721 -5.28727 304.171
 3.97 6.75  1.982  1.982  1.982  1.982  1.983 16.31129 18.63786 -5.03653 352.381
 3.97 7.00  2.075  2.075  2.075  2.075  2.076 16.43902 18.88835 -4.78595 408.247
 3.97 7.25  2.174  2.174  2.174  2.174  2.174 16.56700 19.13870 -4.53561 473.070
 3.97 7.50  2.277  2.277  2.277  2.277  2.277 16.69504 19.38899 -4.28533 548.213
 3.97 7.75  2.384  2.384  2.384  2.384  2.384 16.82312 19.63925 -4.03509 635.306
 3.97 8.00  2.495  2.495  2.495  2.495  2.495 16.95124 19.88947 -3.78489 736.259
 4.00-2.00 -0.519 -0.519 -0.519 -0.519 -0.519  9.54937  9.56820-14.10613   0.142
 4.00-1.50 -0.527 -0.527 -0.527 -0.527 -0.527 10.04376 10.07335-13.60085   0.250
 4.00-1.00 -0.528 -0.528 -0.528 -0.528 -0.528 10.54033 10.57680-13.09762   0.443
 4.00-0.50 -0.513 -0.513 -0.513 -0.513 -0.513 11.03862 11.07809-12.59619   0.787
 4.00 0.00 -0.465 -0.465 -0.465 -0.465 -0.465 11.53795 11.57887-12.09550   1.398
 4.00 0.50 -0.353 -0.353 -0.353 -0.353 -0.353 12.03703 12.07954-11.59482   2.483
 4.00 1.00 -0.145 -0.145 -0.145 -0.145 -0.144 12.53555 12.58115-11.09323   4.407
 4.00 1.25 -0.001 -0.001 -0.001 -0.001 -0.001 12.78371 12.83287-10.84157   5.864
 4.00 1.50  0.167  0.167  0.167  0.167  0.167 13.03060 13.08565-10.58889   7.792
 4.00 1.75  0.354  0.354  0.354  0.354  0.354 13.27506 13.34046-10.33405  10.325
 4.00 2.00  0.551  0.551  0.551  0.551  0.551 13.51614 13.59791-10.07650  13.630
 4.00 2.25  0.746  0.746  0.746  0.746  0.746 13.75095 13.86003 -9.81427  17.861
 4.00 2.50  0.930  0.930  0.930  0.930  0.930 13.97814 14.12678 -9.54745  23.200
 4.00 2.75  1.092  1.092  1.092  1.092  1.092 14.19340 14.40044 -9.27399  29.726
 4.00 3.00  1.231  1.231  1.231  1.231  1.231 14.39672 14.67669 -8.99783  37.568
 4.00 3.20  1.321  1.321  1.321  1.321  1.321 14.54875 14.89942 -8.77507  44.753
 4.00 3.40  1.398  1.398  1.398  1.398  1.398 14.69305 15.12214 -8.55231  52.839
 4.00 3.60  1.463  1.463  1.463  1.463  1.463 14.82937 15.34385 -8.33055  61.816
 4.00 3.80  1.518  1.518  1.518  1.518  1.519 14.95927 15.56311 -8.11123  71.787
 4.00 4.00  1.568  1.568  1.568  1.568  1.568 15.08350 15.78046 -7.89381  82.826
 4.00 4.20  1.611  1.611  1.611  1.611  1.611 15.20281 15.99483 -7.67945  95.026
 4.00 4.40  1.652  1.652  1.652  1.652  1.652 15.31867 16.20707 -7.46722 108.588
 4.00 4.60  1.692  1.692  1.692  1.692  1.692 15.43124 16.41716 -7.25713 123.611
 4.00 4.80  1.731  1.731  1.731  1.731  1.731 15.54163 16.62552 -7.04875 140.356
 4.00 5.00  1.771  1.771  1.771  1.771  1.771 15.65002 16.83232 -6.84194 159.005
 4.00 5.20  1.812  1.812  1.812  1.812  1.812 15.75676 17.03772 -6.63657 179.801
 4.00 5.40  1.854  1.854  1.854  1.854  1.854 15.86244 17.24215 -6.43216 203.067
 4.00 5.60  1.899  1.899  1.899  1.899  1.899 15.96709 17.44568 -6.22861 229.074
 4.00 5.80  1.946  1.946  1.946  1.946  1.946 16.07113 17.64859 -6.02567 258.227
 4.00 6.00  1.996  1.996  1.996  1.996  1.996 16.17464 17.85089 -5.82333 290.911
 4.00 6.25  2.063  2.063  2.063  2.063  2.063 16.30347 18.10303 -5.57120 337.410
 4.00 6.50  2.135  2.135  2.135  2.135  2.135 16.43201 18.35468 -5.31957 391.215
 4.00 6.75  2.212  2.212  2.212  2.212  2.212 16.56030 18.60601 -5.06828 453.486
 4.00 7.00  2.296  2.296  2.296  2.296  2.296 16.68860 18.85703 -4.81730 525.669
 4.00 7.25  2.386  2.386  2.386  2.386  2.386 16.81701 19.10777 -4.56666 609.422
 4.00 7.50  2.482  2.482  2.482  2.482  2.482 16.94557 19.35832 -4.31614 706.642
 4.00 7.75  2.583  2.583  2.583  2.583  2.583 17.07465 19.60874 -4.06569 819.816
 4.00 8.00  2.689  2.689  2.689  2.689  2.689 17.20412 19.85902 -3.81531 951.513
 4.05-2.00 -0.501 -0.501 -0.501 -0.501 -0.501  9.50826  9.50961-14.16482   0.128
 4.05-1.50 -0.502 -0.502 -0.502 -0.502 -0.502 10.00732 10.01072-13.66374   0.226
 4.05-1.00 -0.505 -0.505 -0.505 -0.505 -0.505 10.50420 10.51362-13.16077   0.401
 4.05-0.50 -0.506 -0.506 -0.506 -0.506 -0.506 10.99900 11.01870-12.65580   0.709
 4.05 0.00 -0.491 -0.491 -0.491 -0.491 -0.491 11.49346 11.52388-12.15052   1.254
 4.05 0.50 -0.431 -0.431 -0.431 -0.431 -0.431 11.98994 12.02694-11.64724   2.220
 4.05 1.00 -0.288 -0.288 -0.288 -0.288 -0.287 12.48827 12.52866-11.14569   3.941
 4.05 1.25 -0.174 -0.174 -0.174 -0.174 -0.174 12.73761 12.77923-10.89512   5.251
 4.05 1.50 -0.031 -0.031 -0.031 -0.031 -0.031 12.98695 13.02979-10.64455   6.997
 4.05 1.75  0.140  0.140  0.140  0.140  0.141 13.23598 13.28068-10.39366   9.320
 4.05 2.00  0.337  0.337  0.337  0.337  0.337 13.48458 13.53199-10.14237  12.408
 4.05 2.25  0.550  0.550  0.550  0.550  0.550 13.73202 13.78424 -9.89014  16.498
 4.05 2.50  0.772  0.772  0.772  0.772  0.772 13.97786 14.03783 -9.63658  21.895
 4.05 2.75  0.997  0.997  0.997  0.997  0.997 14.22059 14.29411 -9.38026  28.954
 4.05 3.00  1.216  1.216  1.216  1.216  1.216 14.45909 14.55364 -9.12068  38.102
 4.05 3.20  1.381  1.381  1.381  1.381  1.381 14.64444 14.76519 -8.90913  47.166
 4.05 3.40  1.534  1.534  1.534  1.534  1.534 14.82410 14.97974 -8.69459  58.005
 4.05 3.60  1.670  1.670  1.670  1.670  1.670 14.99684 15.19853 -8.47583  70.770
 4.05 3.80  1.788  1.788  1.788  1.788  1.788 15.16099 15.41972 -8.25466  85.493
 4.05 4.00  1.890  1.890  1.890  1.890  1.890 15.31723 15.64147 -8.03292 102.343
 4.05 4.20  1.974  1.974  1.974  1.974  1.974 15.46410 15.86358 -7.81083 121.193
 4.05 4.40  2.045  2.045  2.045  2.045  2.045 15.60371 16.08568 -7.58873 142.323
 4.05 4.60  2.106  2.106  2.106  2.106  2.106 15.73596 16.30640 -7.36805 165.728
 4.05 4.80  2.159  2.159  2.159  2.159  2.159 15.86253 16.52413 -7.15036 191.730
 4.05 5.00  2.207  2.207  2.207  2.207  2.207 15.98412 16.73973 -6.93479 220.542
 4.05 5.20  2.250  2.250  2.250  2.250  2.250 16.10153 16.95257 -6.72184 252.452
 4.05 5.40  2.292  2.292  2.292  2.292  2.292 16.21597 17.16343 -6.51088 287.997
 4.05 5.60  2.334  2.334  2.334  2.334  2.334 16.32755 17.37232 -6.30198 327.478
 4.05 5.80  2.376  2.376  2.376  2.376  2.376 16.43730 17.57970 -6.09466 371.589
 4.05 6.00  2.419  2.419  2.419  2.419  2.419 16.54543 17.78569 -5.88874 420.857
 4.05 6.25  2.476  2.476  2.476  2.476  2.476 16.67886 18.04153 -5.63289 490.731
 4.05 6.50  2.536  2.536  2.536  2.536  2.536 16.81104 18.29601 -5.37841 571.409
 4.05 6.75  2.600  2.600  2.600  2.600  2.600 16.94212 18.54938 -5.12511 664.609
 4.05 7.00  2.670  2.670  2.670  2.670  2.670 17.07298 18.80195 -4.87257 772.689
 4.05 7.25  2.746  2.746  2.746  2.746  2.746 17.20372 19.05389 -4.62059 898.062
 4.05 7.50  2.829  2.829  2.829  2.829  2.829 17.33445 19.30535 -4.369061043.776
 4.05 7.75  2.917  2.917  2.917  2.917  2.917 17.46548 19.55649 -4.117891213.740
 4.05 8.00  3.013  3.013  3.013  3.013  3.013 17.59671 19.80726 -3.867101411.850
 4.10-2.00 -0.500 -0.500 -0.500 -0.500 -0.500  9.45894  9.45894-14.21538   0.114
 4.10-1.50 -0.499 -0.499 -0.499 -0.499 -0.499  9.95876  9.95904-13.71534   0.202
 4.10-1.00 -0.497 -0.497 -0.497 -0.497 -0.497 10.45864 10.45924-13.21510   0.360
 4.10-0.50 -0.493 -0.493 -0.493 -0.493 -0.493 10.95794 10.95985-12.71444   0.639
 4.10 0.00 -0.482 -0.482 -0.482 -0.482 -0.482 11.45637 11.46150-12.21282   1.134
 4.10 0.50 -0.450 -0.450 -0.450 -0.450 -0.450 11.95250 11.96520-11.70908   2.008
 4.10 1.00 -0.369 -0.369 -0.369 -0.369 -0.369 12.44685 12.47071-11.20363   3.547
 4.10 1.25 -0.297 -0.297 -0.297 -0.297 -0.297 12.69414 12.72322-10.95117   4.715
 4.10 1.50 -0.199 -0.199 -0.199 -0.198 -0.198 12.94161 12.97548-10.69897   6.270
 4.10 1.75 -0.070 -0.070 -0.070 -0.069 -0.069 13.18993 13.22701-10.44733   8.345
 4.10 2.00  0.089  0.089  0.089  0.089  0.089 13.43854 13.47828-10.19600  11.110
 4.10 2.25  0.276  0.277  0.277  0.277  0.277 13.68743 13.72932 -9.94500  14.796
 4.10 2.50  0.487  0.487  0.487  0.488  0.488 13.93631 13.98037 -9.69401  19.705
 4.10 2.75  0.716  0.716  0.716  0.716  0.716 14.18467 14.23184 -9.44253  26.228
 4.10 3.00  0.954  0.954  0.954  0.954  0.955 14.43233 14.48387 -9.19044  34.883
 4.10 3.20  1.146  1.146  1.146  1.146  1.146 14.62926 14.68658 -8.98773  43.760
 4.10 3.40  1.338  1.338  1.338  1.338  1.338 14.82466 14.89057 -8.78377  54.799
 4.10 3.60  1.525  1.525  1.525  1.525  1.526 15.01806 15.09628 -8.57808  68.464
 4.10 3.80  1.706  1.706  1.706  1.706  1.706 15.20772 15.30471 -8.36967  85.169
 4.10 4.00  1.878  1.878  1.878  1.878  1.878 15.39357 15.51574 -8.15864 105.487
 4.10 4.20  2.033  2.033  2.033  2.033  2.033 15.57276 15.73105 -7.94328 129.655
 4.10 4.40  2.173  2.173  2.173  2.173  2.173 15.74511 15.94892 -7.72537 158.114
 4.10 4.60  2.295  2.295  2.295  2.295  2.295 15.90946 16.17005 -7.50424 191.058
 4.10 4.80  2.398  2.398  2.398  2.398  2.398 16.06502 16.39252 -7.28179 228.547
 4.10 5.00  2.487  2.487  2.487  2.487  2.487 16.21272 16.61500 -7.05933 270.921
 4.10 5.20  2.560  2.560  2.560  2.560  2.560 16.35208 16.83627 -6.83808 318.040
 4.10 5.40  2.624  2.624  2.624  2.624  2.624 16.48517 17.05629 -6.61805 370.676
 4.10 5.60  2.680  2.680  2.680  2.680  2.680 16.61200 17.27430 -6.40007 428.948
 4.10 5.80  2.732  2.732  2.732  2.732  2.732 16.73431 17.48955 -6.18486 493.825
 4.10 6.00  2.781  2.781  2.781  2.781  2.781 16.85266 17.70260 -5.97184 565.936
 4.10 6.25  2.839  2.839  2.839  2.839  2.839 16.99623 17.96556 -5.70876 667.634
 4.10 6.50  2.898  2.898  2.898  2.898  2.898 17.13640 18.22583 -5.44843 784.540
 4.10 6.75  2.959  2.959  2.959  2.959  2.959 17.27387 18.48387 -5.19055 919.066
 4.10 7.00  3.023  3.023  3.023  3.023  3.023 17.40977 18.74013 -4.934421074.712
 4.10 7.25  3.091  3.091  3.091  3.091  3.091 17.54429 18.99486 -4.679641254.722
 4.10 7.50  3.164  3.164  3.164  3.164  3.164 17.67861 19.24846 -4.425971464.564
 4.10 7.75  3.243  3.243  3.243  3.243  3.243 17.81286 19.50128 -4.173121709.382
 4.10 8.00  3.329  3.329  3.329  3.329  3.329 17.94699 19.75320 -3.921181994.888
 4.15-2.00 -0.500 -0.500 -0.500 -0.500 -0.500  9.40892  9.40892-14.26544   0.101
 4.15-1.50 -0.498 -0.498 -0.498 -0.498 -0.498  9.90886  9.90891-13.76548   0.180
 4.15-1.00 -0.496 -0.496 -0.496 -0.496 -0.496 10.40892 10.40909-13.26536   0.321
 4.15-0.50 -0.493 -0.493 -0.492 -0.492 -0.492 10.90875 10.90902-12.76523   0.570
 4.15 0.00 -0.485 -0.485 -0.485 -0.485 -0.484 11.40858 11.40926-12.26512   1.013
 4.15 0.50 -0.464 -0.464 -0.464 -0.464 -0.463 11.90816 11.90961-11.76472   1.801
 4.15 1.00 -0.409 -0.409 -0.409 -0.408 -0.408 12.40705 12.41078-11.26352   3.198
 4.15 1.25 -0.359 -0.359 -0.358 -0.358 -0.358 12.65584 12.66197-11.01235   4.259
 4.15 1.50 -0.289 -0.289 -0.288 -0.288 -0.288 12.90412 12.91366-10.76070   5.669
 4.15 1.75 -0.196 -0.196 -0.196 -0.196 -0.196 13.15159 13.16614-10.50820   7.538
 4.15 2.00 -0.080 -0.080 -0.080 -0.079 -0.079 13.39881 13.41880-10.25555  10.020
 4.15 2.25  0.061  0.062  0.062  0.062  0.062 13.64584 13.67157-10.00281  13.316
 4.15 2.50  0.230  0.230  0.230  0.230  0.231 13.89287 13.92433 -9.75007  17.696
 4.15 2.75  0.426  0.426  0.426  0.426  0.426 14.14069 14.17652 -9.49790  23.537
 4.15 3.00  0.645  0.645  0.645  0.645  0.645 14.38863 14.42846 -9.24596  31.312
 4.15 3.20  0.833  0.833  0.833  0.833  0.833 14.58705 14.62980 -9.04460  39.349
 4.15 3.40  1.029  1.029  1.029  1.029  1.029 14.78547 14.83114 -8.84324  49.450
 4.15 3.60  1.230  1.230  1.230  1.230  1.230 14.98365 15.03273 -8.64164  62.125
 4.15 3.80  1.432  1.432  1.432  1.432  1.432 15.18097 15.23511 -8.43925  77.971
 4.15 4.00  1.632  1.632  1.632  1.632  1.632 15.37749 15.43823 -8.23612  97.767
 4.15 4.20  1.828  1.828  1.828  1.828  1.828 15.57195 15.64300 -8.03136 122.297
 4.15 4.40  2.020  2.020  2.020  2.020  2.020 15.76382 15.84972 -7.82465 152.525
 4.15 4.60  2.202  2.202  2.202  2.202  2.202 15.95232 16.05911 -7.61525 189.487
 4.15 4.80  2.371  2.371  2.371  2.371  2.371 16.13530 16.27188 -7.40245 233.918
 4.15 5.00  2.527  2.527  2.527  2.527  2.527 16.31281 16.48756 -7.18675 286.957
 4.15 5.20  2.662  2.662  2.662  2.662  2.662 16.48190 16.70770 -6.96659 348.618
 4.15 5.40  2.781  2.781  2.781  2.781  2.781 16.64332 16.92864 -6.74565 419.817
 4.15 5.60  2.882  2.882  2.882  2.882  2.882 16.79625 17.15037 -6.52396 500.674
 4.15 5.80  2.968  2.968  2.968  2.968  2.968 16.94121 17.37227 -6.30210 591.665
 4.15 6.00  3.044  3.044  3.044  3.044  3.044 17.07918 17.59417 -6.08024 693.577
 4.15 6.25  3.124  3.124  3.124  3.124  3.124 17.24260 17.86721 -5.80718 837.114
 4.15 6.50  3.199  3.199  3.199  3.199  3.199 17.39863 18.13704 -5.537301001.789
 4.15 6.75  3.267  3.267  3.267  3.267  3.267 17.54847 18.40304 -5.271311190.343
 4.15 7.00  3.336  3.336  3.336  3.336  3.336 17.69417 18.66596 -5.008421407.705
 4.15 7.25  3.404  3.404  3.404  3.404  3.404 17.83645 18.92600 -4.748461658.301
 4.15 7.50  3.476  3.476  3.476  3.476  3.476 17.97708 19.18384 -4.490661949.731
 4.15 7.75  3.551  3.551  3.551  3.551  3.551 18.11686 19.44005 -4.234472290.052
 4.15 8.00  3.631  3.631  3.631  3.631  3.631 18.25551 19.69443 -3.980052686.224
 4.20-2.00 -0.501 -0.501 -0.501 -0.500 -0.500  9.35889  9.35889-14.31542   0.090
 4.20-1.50 -0.499 -0.499 -0.499 -0.499 -0.499  9.85884  9.85890-13.81531   0.161
 4.20-1.00 -0.496 -0.496 -0.496 -0.496 -0.496 10.35889 10.35889-13.31542   0.286
 4.20-0.50 -0.491 -0.491 -0.491 -0.491 -0.491 10.85878 10.85896-12.81531   0.508
 4.20 0.00 -0.485 -0.485 -0.484 -0.484 -0.484 11.35870 11.35908-12.31533   0.903
 4.20 0.50 -0.472 -0.472 -0.471 -0.471 -0.471 11.85866 11.85908-11.81531   1.606
 4.20 1.00 -0.439 -0.439 -0.439 -0.439 -0.438 12.35851 12.35927-11.31507   2.856
 4.20 1.25 -0.408 -0.408 -0.407 -0.407 -0.407 12.60836 12.60943-11.06492   3.807
 4.20 1.50 -0.361 -0.361 -0.360 -0.360 -0.360 12.85812 12.85968-10.81474   5.075
 4.20 1.75 -0.294 -0.294 -0.294 -0.293 -0.293 13.10767 13.11012-10.56431   6.764
 4.20 2.00 -0.203 -0.203 -0.203 -0.203 -0.203 13.35698 13.36078-10.31363   9.015
 4.20 2.25 -0.088 -0.088 -0.088 -0.087 -0.087 13.60594 13.61183-10.06258  12.007
 4.20 2.50  0.052  0.052  0.052  0.053  0.053 13.85443 13.86332 -9.81107  15.982
 4.20 2.75  0.218  0.218  0.218  0.218  0.218 14.10206 14.11562 -9.55878  21.255
 4.20 3.00  0.405  0.405  0.405  0.405  0.406 14.34928 14.36829 -9.30610  28.254
 4.20 3.20  0.570  0.570  0.570  0.570  0.570 14.54674 14.57070 -9.10365  35.465
 4.20 3.40  0.746  0.746  0.746  0.746  0.746 14.74419 14.77310 -8.90120  44.515
 4.20 3.60  0.932  0.932  0.932  0.932  0.932 14.94179 14.97534 -8.69894  55.886
 4.20 3.80  1.127  1.127  1.127  1.127  1.128 15.13953 15.17742 -8.49688  70.174
 4.20 4.00  1.329  1.329  1.329  1.329  1.329 15.33726 15.37949 -8.29482  88.115
 4.20 4.20  1.535  1.535  1.535  1.535  1.535 15.53479 15.58171 -8.09261 110.617
 4.20 4.40  1.743  1.743  1.743  1.743  1.743 15.73202 15.78416 -7.89018 138.817
 4.20 4.60  1.950  1.950  1.950  1.950  1.950 15.92858 15.98722 -7.68714 174.067
 4.20 4.80  2.152  2.152  2.152  2.152  2.152 16.12336 16.19179 -7.48259 217.814
 4.20 5.00  2.351  2.351  2.351  2.351  2.351 16.31639 16.39777 -7.27663 271.999
 4.20 5.20  2.540  2.540  2.540  2.540  2.540 16.50553 16.60659 -7.06784 338.183
 4.20 5.40  2.718  2.718  2.718  2.718  2.718 16.69026 16.81812 -6.85634 418.353
 4.20 5.60  2.881  2.881  2.881  2.881  2.881 16.86952 17.03331 -6.64113 514.277
 4.20 5.80  3.026  3.026  3.026  3.026  3.026 17.04140 17.25152 -6.42285 626.811
 4.20 6.00  3.156  3.156  3.156  3.156  3.156 17.20629 17.47159 -6.20273 757.839
 4.20 6.25  3.290  3.290  3.290  3.290  3.290 17.39997 17.74906 -5.92528 947.157
 4.20 6.50  3.406  3.406  3.406  3.406  3.406 17.58241 18.02653 -5.647821168.530
 4.20 6.75  3.502  3.502  3.502  3.502  3.502 17.75381 18.30122 -5.373131423.384
 4.20 7.00  3.590  3.590  3.590  3.590  3.590 17.91709 18.57334 -5.101001717.741
 4.20 7.25  3.671  3.671  3.671  3.671  3.671 18.07325 18.84136 -4.832982056.270
 4.20 7.50  3.750  3.750  3.750  3.750  3.750 18.22505 19.10619 -4.568152449.083
 4.20 7.75  3.828  3.828  3.828  3.828  3.828 18.37419 19.36820 -4.306142907.769
 4.20 8.00  3.909  3.909  3.909  3.909  3.909 18.52009 19.62726 -4.047063439.314
 4.25-2.00 -0.501 -0.501 -0.501 -0.501 -0.501  9.30899  9.30899-14.36542   0.081
 4.25-1.50 -0.500 -0.500 -0.500 -0.500 -0.500  9.80889  9.80889-13.86550   0.143
 4.25-1.00 -0.498 -0.498 -0.498 -0.498 -0.498 10.30878 10.30899-13.36542   0.255
 4.25-0.50 -0.493 -0.493 -0.493 -0.493 -0.493 10.80882 10.80895-12.86550   0.453
 4.25 0.00 -0.484 -0.484 -0.484 -0.484 -0.484 11.30878 11.30899-12.36532   0.805
 4.25 0.50 -0.471 -0.471 -0.471 -0.471 -0.471 11.80875 11.80902-11.86519   1.431
 4.25 1.00 -0.450 -0.450 -0.450 -0.450 -0.449 12.30878 12.30921-11.36522   2.545
 4.25 1.25 -0.430 -0.430 -0.430 -0.430 -0.430 12.55866 12.55921-11.11522   3.394
 4.25 1.50 -0.401 -0.401 -0.401 -0.400 -0.400 12.80855 12.80922-10.86519   4.526
 4.25 1.75 -0.357 -0.357 -0.357 -0.357 -0.356 13.05845 13.05929-10.61507   6.035
 4.25 2.00 -0.295 -0.295 -0.295 -0.295 -0.294 13.30835 13.30942-10.36492   8.046
 4.25 2.25 -0.211 -0.211 -0.211 -0.210 -0.210 13.55816 13.55961-10.11476  10.727
 4.25 2.50 -0.101 -0.101 -0.101 -0.101 -0.101 13.80787 13.80990 -9.86455  14.300
 4.25 2.75  0.035  0.035  0.035  0.035  0.036 14.05738 14.06038 -9.61403  19.059
 4.25 3.00  0.200  0.201  0.201  0.201  0.201 14.30664 14.31112 -9.36321  25.396
 4.25 3.20  0.352  0.352  0.352  0.353  0.353 14.50575 14.51200 -9.16232  31.938
 4.25 3.40  0.519  0.519  0.519  0.519  0.519 14.70453 14.71320 -8.96114  40.150
 4.25 3.60  0.696  0.696  0.696  0.696  0.696 14.90284 14.91486 -8.75951  50.448
 4.25 3.80  0.882  0.882  0.882  0.882  0.882 15.10068 15.11695 -8.55743  63.355
 4.25 4.00  1.073  1.073  1.073  1.073  1.073 15.29820 15.31931 -8.35507  79.535
 4.25 4.20  1.269  1.269  1.269  1.269  1.270 15.49547 15.52190 -8.15245  99.807
 4.25 4.40  1.470  1.470  1.470  1.470  1.470 15.69257 15.72461 -7.94973 125.225
 4.25 4.60  1.675  1.675  1.675  1.675  1.676 15.88958 15.92738 -7.74695 157.104
 4.25 4.80  1.884  1.884  1.884  1.884  1.884 16.08644 16.13024 -7.54410 197.077
 4.25 5.00  2.095  2.095  2.095  2.095  2.095 16.28308 16.33325 -7.34113 247.170
 4.25 5.20  2.306  2.306  2.306  2.306  2.306 16.47881 16.53699 -7.13741 309.645
 4.25 5.40  2.512  2.512  2.512  2.512  2.512 16.67332 16.74170 -6.93273 387.350
 4.25 5.60  2.714  2.714  2.714  2.714  2.714 16.86596 16.94795 -6.72648 483.516
 4.25 5.80  2.907  2.907  2.907  2.907  2.907 17.05494 17.15683 -6.51758 601.049
 4.25 6.00  3.091  3.091  3.091  3.091  3.091 17.24030 17.36810 -6.30627 744.056
 4.25 6.25  3.294  3.294  3.294  3.294  3.294 17.46316 17.63751 -6.03686 961.648
 4.25 6.50  3.476  3.476  3.476  3.476  3.476 17.67615 17.91041 -5.763971228.833
 4.25 6.75  3.626  3.626  3.626  3.626  3.626 17.87631 18.18715 -5.487231547.457
 4.25 7.00  3.758  3.758  3.758  3.758  3.758 18.06558 18.46390 -5.210491924.366
 4.25 7.25  3.869  3.869  3.869  3.869  3.869 18.24382 18.73906 -4.935402362.407
 4.25 7.50  3.970  3.970  3.970  3.970  3.970 18.41397 19.01241 -4.662142873.342
 4.25 7.75  4.063  4.063  4.063  4.063  4.063 18.57816 19.28169 -4.392803471.177
 4.25 8.00  4.154  4.154  4.154  4.154  4.154 18.73568 19.54765 -4.126684161.591
 4.30-2.00 -0.498 -0.498 -0.498 -0.498 -0.498  9.26007  9.25768-14.41669   0.072
 4.30-1.50 -0.500 -0.500 -0.499 -0.499 -0.499  9.75929  9.75846-13.91578   0.128
 4.30-1.00 -0.499 -0.499 -0.499 -0.499 -0.498 10.25912 10.25888-13.41556   0.227
 4.30-0.50 -0.495 -0.495 -0.495 -0.495 -0.495 10.75884 10.75891-12.91542   0.404
 4.30 0.00 -0.487 -0.487 -0.487 -0.487 -0.487 11.25888 11.25888-12.41533   0.718
 4.30 0.50 -0.473 -0.473 -0.473 -0.472 -0.472 11.75876 11.75899-11.91542   1.276
 4.30 1.00 -0.451 -0.451 -0.451 -0.451 -0.450 12.25864 12.25912-11.41522   2.269
 4.30 1.25 -0.436 -0.436 -0.436 -0.436 -0.435 12.50861 12.50913-11.16513   3.025
 4.30 1.50 -0.415 -0.415 -0.415 -0.415 -0.415 12.75861 12.75914-10.91507   4.034
 4.30 1.75 -0.386 -0.386 -0.386 -0.386 -0.385 13.00862 13.00925-10.66509   5.379
 4.30 2.00 -0.343 -0.343 -0.343 -0.343 -0.343 13.25864 13.25935-10.41510   7.173
 4.30 2.25 -0.284 -0.284 -0.284 -0.284 -0.284 13.50851 13.50940-10.16510   9.564
 4.30 2.50 -0.204 -0.204 -0.204 -0.204 -0.204 13.75838 13.75944 -9.91507  12.752
 4.30 2.75 -0.099 -0.099 -0.099 -0.099 -0.099 14.00827 14.00961 -9.66490  17.003
 4.30 3.00  0.033  0.033  0.033  0.033  0.033 14.25816 14.25983 -9.41465  22.670
 4.30 3.20  0.160  0.160  0.161  0.161  0.161 14.45790 14.46003 -9.21444  28.533
 4.30 3.40  0.307  0.307  0.307  0.307  0.308 14.65754 14.66028 -9.01416  35.908
 4.30 3.60  0.471  0.471  0.471  0.471  0.471 14.85709 14.86063 -8.81376  45.184
 4.30 3.80  0.649  0.649  0.649  0.650  0.650 15.05651 15.06120 -8.61313  56.845
 4.30 4.00  0.839  0.839  0.839  0.839  0.839 15.25576 15.26198 -8.41229  71.499
 4.30 4.20  1.036  1.036  1.036  1.037  1.037 15.45455 15.46317 -8.21112  89.887
 4.30 4.40  1.239  1.239  1.239  1.239  1.239 15.65293 15.66474 -8.00959 112.951
 4.30 4.60  1.443  1.443  1.443  1.443  1.444 15.85085 15.86676 -7.80757 141.855
 4.30 4.80  1.650  1.650  1.650  1.650  1.650 16.04828 16.06922 -7.60507 178.052
 4.30 5.00  1.858  1.858  1.858  1.858  1.858 16.24527 16.27207 -7.40220 223.374
 4.30 5.20  2.067  2.067  2.067  2.067  2.067 16.44192 16.47519 -7.19914 280.134
 4.30 5.40  2.279  2.279  2.279  2.279  2.279 16.63805 16.67874 -6.99569 351.112
 4.30 5.60  2.492  2.492  2.492  2.492  2.492 16.83374 16.88267 -6.79183 439.842
 4.30 5.80  2.705  2.705  2.705  2.705  2.705 17.02861 17.08728 -6.58722 550.448
 4.30 6.00  2.914  2.914  2.914  2.914  2.914 17.22246 17.29270 -6.38174 688.035
 4.30 6.25  3.165  3.165  3.165  3.165  3.165 17.46094 17.55219 -6.12223 905.439
 4.30 6.50  3.403  3.403  3.403  3.403  3.403 17.69452 17.81491 -5.859491184.864
 4.30 6.75  3.615  3.615  3.615  3.615  3.615 17.91976 18.08306 -5.591361535.559
 4.30 7.00  3.807  3.807  3.807  3.807  3.807 18.13609 18.35468 -5.319761969.734
 4.30 7.25  3.968  3.968  3.968  3.968  3.968 18.34049 18.63032 -5.044142492.564
 4.30 7.50  4.112  4.112  4.112  4.112  4.112 18.53479 18.90596 -4.768533117.686
 4.30 7.75  4.235  4.235  4.235  4.235  4.235 18.71980 19.18042 -4.494053857.796
 4.30 8.00  4.350  4.350  4.350  4.350  4.350 18.89526 19.45408 -4.220334721.092
 4.35-2.00 -0.473 -0.473 -0.473 -0.473 -0.473  9.22246  9.19507-14.47939   0.067
 4.35-1.50 -0.483 -0.483 -0.483 -0.483 -0.482  9.71767  9.69992-13.97429   0.117
 4.35-1.00 -0.491 -0.491 -0.491 -0.491 -0.491 10.21299 10.20466-13.46967   0.205
 4.35-0.50 -0.494 -0.494 -0.494 -0.494 -0.494 10.71037 10.70731-12.96698   0.362
 4.35 0.00 -0.491 -0.491 -0.491 -0.491 -0.490 11.20925 11.20844-12.46585   0.641
 4.35 0.50 -0.479 -0.479 -0.479 -0.479 -0.478 11.70893 11.70885-11.96537   1.138
 4.35 1.00 -0.455 -0.455 -0.455 -0.455 -0.455 12.20871 12.20898-11.46534   2.022
 4.35 1.25 -0.439 -0.439 -0.439 -0.439 -0.438 12.45868 12.45904-11.21536   2.696
 4.35 1.50 -0.419 -0.419 -0.419 -0.419 -0.419 12.70868 12.70910-10.96537   3.596
 4.35 1.75 -0.395 -0.395 -0.395 -0.395 -0.395 12.95869 12.95917-10.71523   4.795
 4.35 2.00 -0.363 -0.363 -0.363 -0.363 -0.363 13.20871 13.20925-10.46509   6.393
 4.35 2.25 -0.320 -0.320 -0.320 -0.320 -0.319 13.45861 13.45926-10.21503   8.525
 4.35 2.50 -0.261 -0.261 -0.261 -0.261 -0.260 13.70851 13.70927 -9.96497  11.367
 4.35 2.75 -0.182 -0.182 -0.182 -0.182 -0.181 13.95847 13.95939 -9.71491  15.157
 4.35 3.00 -0.078 -0.078 -0.078 -0.078 -0.078 14.20844 14.20951 -9.46483  20.211
 4.35 3.20  0.024  0.024  0.024  0.025  0.025 14.40826 14.40962 -9.26475  25.441
 4.35 3.40  0.147  0.147  0.147  0.147  0.148 14.60809 14.60972 -9.06464  32.024
 4.35 3.60  0.289  0.289  0.289  0.289  0.290 14.80792 14.80986 -8.86450  40.308
 4.35 3.80  0.450  0.450  0.450  0.450  0.450 15.00778 15.01006 -8.66431  50.735
 4.35 4.00  0.626  0.626  0.626  0.626  0.626 15.20763 15.21032 -8.46407  63.855
 4.35 4.20  0.814  0.814  0.814  0.814  0.815 15.40726 15.41065 -8.26374  80.356
 4.35 4.40  1.013  1.013  1.013  1.013  1.013 15.60671 15.61111 -8.06326 101.106
 4.35 4.60  1.218  1.218  1.218  1.218  1.218 15.80602 15.81176 -7.86262 127.188
 4.35 4.80  1.428  1.428  1.428  1.428  1.428 16.00508 16.01275 -7.66167 159.946
 4.35 5.00  1.641  1.641  1.641  1.641  1.641 16.20385 16.21405 -7.46042 201.070
 4.35 5.20  1.855  1.855  1.855  1.855  1.855 16.40204 16.41577 -7.25866 252.599
 4.35 5.40  2.070  2.070  2.070  2.070  2.070 16.59967 16.61797 -7.05639 317.131
 4.35 5.60  2.285  2.285  2.285  2.285  2.285 16.79672 16.82071 -6.85359 397.893
 4.35 5.80  2.500  2.500  2.500  2.500  2.500 16.99305 17.02410 -6.65016 498.824
 4.35 6.00  2.717  2.717  2.717  2.717  2.717 17.18865 17.22814 -6.44612 624.828
 4.35 6.25  2.986  2.986  2.986  2.986  2.986 17.43211 17.48405 -6.19026 826.958
 4.35 6.50  3.251  3.251  3.251  3.251  3.251 17.67367 17.74147 -5.932931092.034
 4.35 6.75  3.503  3.503  3.503  3.503  3.503 17.91184 18.00143 -5.672981436.462
 4.35 7.00  3.743  3.743  3.743  3.743  3.743 18.14551 18.26435 -5.410051879.760
 4.35 7.25  3.957  3.957  3.957  3.958  3.958 18.37130 18.53197 -5.142422437.914
 4.35 7.50  4.154  4.154  4.154  4.154  4.154 18.58894 18.80277 -4.871603132.394
 4.35 7.75  4.322  4.322  4.322  4.322  4.322 18.79634 19.07603 -4.598343977.283
 4.35 8.00  4.475  4.475  4.475  4.475  4.475 18.99419 19.35199 -4.322394994.742
 4.40-2.00 -0.464 -0.464 -0.464 -0.464 -0.464  9.17696  9.14019-14.53417   0.060
 4.40-1.50 -0.465 -0.465 -0.465 -0.465 -0.465  9.67633  9.64068-14.03367   0.107
 4.40-1.00 -0.467 -0.467 -0.467 -0.467 -0.467 10.17522 10.14208-13.53224   0.190
 4.40-0.50 -0.472 -0.472 -0.472 -0.472 -0.471 10.67201 10.64532-13.02905   0.335
 4.40 0.00 -0.478 -0.478 -0.478 -0.478 -0.478 11.16732 11.15045-12.52389   0.586
 4.40 0.50 -0.478 -0.478 -0.478 -0.478 -0.477 11.66266 11.65504-12.01931   1.027
 4.40 1.00 -0.463 -0.463 -0.463 -0.462 -0.462 12.16017 12.15776-11.51670   1.811
 4.40 1.25 -0.448 -0.448 -0.447 -0.447 -0.447 12.40957 12.40826-11.26616   2.409
 4.40 1.50 -0.427 -0.427 -0.427 -0.427 -0.426 12.65916 12.65858-11.01579   3.208
 4.40 1.75 -0.402 -0.402 -0.402 -0.402 -0.401 12.90885 12.90881-10.76548   4.275
 4.40 2.00 -0.372 -0.372 -0.372 -0.372 -0.371 13.15866 13.15897-10.51527   5.699
 4.40 2.25 -0.334 -0.334 -0.334 -0.334 -0.334 13.40862 13.40907-10.26522   7.599
 4.40 2.50 -0.287 -0.287 -0.287 -0.287 -0.286 13.65858 13.65915-10.01516  10.132
 4.40 2.75 -0.225 -0.225 -0.225 -0.225 -0.225 13.90847 13.90921 -9.76508  13.510
 4.40 3.00 -0.144 -0.144 -0.144 -0.144 -0.143 14.15836 14.15927 -9.51499  18.015
 4.40 3.20 -0.061 -0.061 -0.061 -0.061 -0.061 14.35830 14.35936 -9.31492  22.677
 4.40 3.40  0.039  0.039  0.039  0.039  0.039 14.55823 14.55948 -9.11484  28.546
 4.40 3.60  0.159  0.159  0.159  0.159  0.159 14.75817 14.75960 -8.91472  35.933
 4.40 3.80  0.299  0.299  0.299  0.299  0.300 14.95812 14.95973 -8.71457  45.232
 4.40 4.00  0.458  0.458  0.458  0.458  0.458 15.15806 15.15987 -8.51442  56.937
 4.40 4.20  0.633  0.633  0.633  0.633  0.633 15.35785 15.36002 -8.31427  71.665
 4.40 4.40  0.820  0.820  0.820  0.821  0.821 15.55759 15.56020 -8.11411  90.198
 4.40 4.60  1.018  1.018  1.018  1.018  1.018 15.75730 15.76045 -7.91391 113.519
 4.40 4.80  1.223  1.223  1.223  1.223  1.224 15.95696 15.96085 -7.71358 142.857
 4.40 5.00  1.434  1.434  1.434  1.434  1.434 16.15655 16.16137 -7.51314 179.758
 4.40 5.20  1.649  1.649  1.649  1.649  1.649 16.35591 16.36199 -7.31251 226.134
 4.40 5.40  1.867  1.867  1.867  1.867  1.867 16.55501 16.56283 -7.11162 284.389
 4.40 5.60  2.087  2.087  2.087  2.087  2.087 16.75381 16.76398 -6.91043 357.523
 4.40 5.80  2.308  2.308  2.308  2.308  2.308 16.95209 16.96569 -6.70873 449.201
 4.40 6.00  2.530  2.530  2.530  2.530  2.530 17.14983 17.16791 -6.50654 564.040
 4.40 6.25  2.806  2.806  2.806  2.806  2.806 17.39582 17.42168 -6.25281 748.696
 4.40 6.50  3.083  3.083  3.083  3.083  3.083 17.64038 17.67669 -5.99784 992.182
 4.40 6.75  3.356  3.356  3.356  3.356  3.356 17.88329 17.93316 -5.741381312.386
 4.40 7.00  3.621  3.621  3.621  3.621  3.621 18.12385 18.19145 -5.483071731.282
 4.40 7.25  3.870  3.870  3.870  3.870  3.870 18.36099 18.45210 -5.222262274.696
 4.40 7.50  4.108  4.108  4.108  4.108  4.108 18.59362 18.71559 -4.958612973.127
 4.40 7.75  4.320  4.320  4.320  4.320  4.320 18.81862 18.98303 -4.691243852.369
 4.40 8.00  4.517  4.517  4.517  4.517  4.517 19.03703 19.25406 -4.420454954.153
 4.45-2.00 -0.464 -0.464 -0.464 -0.464 -0.464  9.12710  9.08991-14.58436   0.054
 4.45-1.50 -0.464 -0.464 -0.464 -0.464 -0.463  9.62696  9.58995-14.08439   0.096
 4.45-1.00 -0.464 -0.464 -0.464 -0.464 -0.463 10.12678 10.09026-13.58419   0.171
 4.45-0.50 -0.463 -0.463 -0.463 -0.463 -0.463 10.62665 10.59028-13.08402   0.303
 4.45 0.00 -0.463 -0.463 -0.463 -0.463 -0.462 11.12613 11.09096-12.58319   0.538
 4.45 0.50 -0.461 -0.461 -0.461 -0.461 -0.460 11.62418 11.59306-12.08129   0.951
 4.45 1.00 -0.454 -0.454 -0.454 -0.453 -0.453 12.12024 12.09726-11.57708   1.669
 4.45 1.25 -0.445 -0.445 -0.445 -0.445 -0.444 12.36773 12.34988-11.32447   2.207
 4.45 1.50 -0.430 -0.430 -0.430 -0.430 -0.429 12.61521 12.60249-11.07186   2.919
 4.45 1.75 -0.409 -0.409 -0.409 -0.409 -0.408 12.86306 12.85471-10.81973   3.865
 4.45 2.00 -0.380 -0.380 -0.380 -0.380 -0.379 13.11126 13.10653-10.56799   5.124
 4.45 2.25 -0.344 -0.344 -0.344 -0.344 -0.343 13.36018 13.35754-10.31688   6.807
 4.45 2.50 -0.300 -0.300 -0.300 -0.299 -0.299 13.60949 13.60821-10.06611   9.054
 4.45 2.75 -0.245 -0.245 -0.245 -0.245 -0.245 13.85917 13.85860 -9.81560  12.056
 4.45 3.00 -0.178 -0.178 -0.177 -0.177 -0.177 14.10890 14.10890 -9.56527  16.063
 4.45 3.20 -0.110 -0.110 -0.110 -0.109 -0.109 14.30869 14.30912 -9.36516  20.217
 4.45 3.40 -0.027 -0.027 -0.027 -0.026 -0.026 14.50850 14.50931 -9.16505  25.447
 4.45 3.60  0.073  0.073  0.073  0.073  0.074 14.70838 14.70942 -8.96492  32.032
 4.45 3.80  0.193  0.193  0.193  0.194  0.194 14.90830 14.90950 -8.76478  40.321
 4.45 4.00  0.333  0.333  0.333  0.334  0.334 15.10823 15.10958 -8.56463  50.756
 4.45 4.20  0.492  0.492  0.492  0.492  0.493 15.30807 15.30974 -8.36452  63.888
 4.45 4.40  0.667  0.667  0.667  0.667  0.667 15.50788 15.50992 -8.16440  80.416
 4.45 4.60  0.855  0.855  0.855  0.855  0.855 15.70768 15.71012 -7.96426 101.218
 4.45 4.80  1.053  1.053  1.053  1.053  1.053 15.90746 15.91034 -7.76407 127.399
 4.45 5.00  1.258  1.258  1.258  1.258  1.258 16.10721 16.11059 -7.56384 160.347
 4.45 5.20  1.469  1.469  1.469  1.469  1.469 16.30693 16.31087 -7.36355 201.794
 4.45 5.40  1.684  1.684  1.684  1.684  1.684 16.50658 16.51121 -7.16316 253.924
 4.45 5.60  1.903  1.903  1.903  1.903  1.903 16.70612 16.71166 -6.96266 319.483
 4.45 5.80  2.124  2.124  2.124  2.124  2.124 16.90543 16.91235 -6.76193 401.882
 4.45 6.00  2.347  2.347  2.347  2.347  2.347 17.10449 17.11328 -6.56098 505.406
 4.45 6.25  2.629  2.629  2.629  2.629  2.629 17.35271 17.36501 -6.30929 672.591
 4.45 6.50  2.912  2.912  2.912  2.912  2.912 17.60010 17.61753 -6.05685 894.222
 4.45 6.75  3.195  3.195  3.195  3.195  3.195 17.84615 17.87129 -5.803091187.140
 4.45 7.00  3.477  3.477  3.477  3.477  3.477 18.09061 18.12646 -5.547911573.141
 4.45 7.25  3.751  3.751  3.751  3.751  3.751 18.33299 18.38336 -5.291012079.404
 4.45 7.50  4.013  4.013  4.013  4.013  4.013 18.57264 18.64237 -5.032032739.893
 4.45 7.75  4.256  4.256  4.256  4.256  4.256 18.80793 18.90426 -4.770183592.609
 4.45 8.00  4.487  4.487  4.487  4.487  4.487 19.03941 19.16879 -4.505714690.461
 4.50-2.00 -0.464 -0.464 -0.464 -0.464 -0.464  9.07700  9.03981-14.63433   0.048
 4.50-1.50 -0.464 -0.464 -0.464 -0.464 -0.463  9.57703  9.53995-14.13442   0.086
 4.50-1.00 -0.464 -0.464 -0.464 -0.463 -0.463 10.07700 10.04021-13.63433   0.152
 4.50-0.50 -0.463 -0.463 -0.463 -0.463 -0.463 10.57692 10.53995-13.13436   0.270
 4.50 0.00 -0.462 -0.462 -0.462 -0.462 -0.462 11.07700 11.04021-12.63433   0.481
 4.50 0.50 -0.460 -0.460 -0.460 -0.459 -0.459 11.57669 11.54033-12.13407   0.854
 4.50 1.00 -0.452 -0.452 -0.452 -0.452 -0.452 12.07628 12.04100-11.63358   1.517
 4.50 1.25 -0.445 -0.445 -0.445 -0.445 -0.444 12.32577 12.29149-11.38301   2.020
 4.50 1.50 -0.432 -0.432 -0.432 -0.432 -0.432 12.57496 12.54220-11.13212   2.686
 4.50 1.75 -0.413 -0.413 -0.413 -0.413 -0.413 12.82365 12.79373-10.88066   3.567
 4.50 2.00 -0.385 -0.385 -0.385 -0.385 -0.385 13.07188 13.04571-10.62875   4.729
 4.50 2.25 -0.348 -0.348 -0.348 -0.348 -0.348 13.31940 13.29822-10.37621   6.255
 4.50 2.50 -0.303 -0.303 -0.303 -0.303 -0.302 13.56691 13.55072-10.12367   8.273
 4.50 2.75 -0.250 -0.250 -0.250 -0.250 -0.249 13.81450 13.80312 -9.87121  10.946
 4.50 3.00 -0.188 -0.188 -0.188 -0.188 -0.187 14.06221 14.05538 -9.61889  14.489
 4.50 3.20 -0.128 -0.128 -0.128 -0.128 -0.128 14.26103 14.25662 -9.41768  18.164
 4.50 3.40 -0.058 -0.058 -0.058 -0.058 -0.057 14.46013 14.45760 -9.21675  22.792
 4.50 3.60  0.026  0.026  0.026  0.026  0.027 14.65955 14.65830 -9.01611  28.629
 4.50 3.80  0.128  0.128  0.128  0.128  0.129 14.85914 14.85882 -8.81564  35.988
 4.50 4.00  0.249  0.249  0.249  0.249  0.250 15.05881 15.05918 -8.61529  45.265
 4.50 4.20  0.391  0.391  0.391  0.391  0.391 15.25849 15.25938 -8.41503  56.966
 4.50 4.40  0.550  0.550  0.550  0.550  0.551 15.45823 15.45957 -8.21480  71.697
 4.50 4.60  0.726  0.726  0.726  0.726  0.726 15.65802 15.65980 -8.01460  90.242
 4.50 4.80  0.914  0.914  0.914  0.914  0.914 15.85784 15.86006 -7.81441 113.585
 4.50 5.00  1.112  1.112  1.112  1.112  1.112 16.05767 16.06032 -7.61421 142.966
 4.50 5.20  1.317  1.317  1.317  1.317  1.318 16.25744 16.26049 -7.41400 179.937
 4.50 5.40  1.528  1.528  1.528  1.528  1.528 16.45717 16.46066 -7.21376 226.457
 4.50 5.60  1.743  1.743  1.743  1.743  1.743 16.65688 16.66090 -7.01347 284.992
 4.50 5.80  1.962  1.962  1.962  1.962  1.962 16.85655 16.86131 -6.81309 358.631
 4.50 6.00  2.183  2.183  2.183  2.183  2.183 17.05614 17.06183 -6.61261 451.255
 4.50 6.25  2.462  2.462  2.462  2.462  2.462 17.30527 17.31262 -6.36177 601.174
 4.50 6.50  2.744  2.744  2.744  2.744  2.744 17.55400 17.56372 -6.11059 800.557
 4.50 6.75  3.030  3.030  3.030  3.030  3.030 17.80221 17.81554 -5.858811065.335
 4.50 7.00  3.319  3.319  3.319  3.319  3.319 18.04961 18.06819 -5.606251416.326
 4.50 7.25  3.604  3.604  3.604  3.604  3.604 18.29544 18.32203 -5.352381879.799
 4.50 7.50  3.886  3.886  3.886  3.886  3.886 18.53945 18.57738 -5.096962489.846
 4.50 7.75  4.155  4.155  4.155  4.155  4.155 18.78071 18.83507 -4.839213287.114
 4.50 8.00  4.408  4.408  4.408  4.408  4.408 19.01953 19.09482 -4.579384327.292
 4.55-2.00 -0.464 -0.464 -0.464 -0.464 -0.464  9.02694  8.98998-14.68445   0.043
 4.55-1.50 -0.464 -0.464 -0.464 -0.464 -0.463  9.52699  9.48996-14.18442   0.076
 4.55-1.00 -0.464 -0.464 -0.464 -0.464 -0.463 10.02694  9.98998-13.68445   0.136
 4.55-0.50 -0.463 -0.463 -0.463 -0.463 -0.463 10.52699 10.48996-13.18436   0.241
 4.55 0.00 -0.463 -0.463 -0.463 -0.463 -0.462 11.02694 10.99003-12.68424   0.429
 4.55 0.50 -0.461 -0.461 -0.461 -0.461 -0.461 11.52699 11.49010-12.18429   0.762
 4.55 1.00 -0.457 -0.457 -0.457 -0.457 -0.457 12.02694 11.99016-11.68424   1.355
 4.55 1.25 -0.453 -0.453 -0.453 -0.452 -0.452 12.27686 12.24020-11.43418   1.806
 4.55 1.50 -0.445 -0.445 -0.445 -0.445 -0.445 12.52673 12.49024-11.18409   2.408
 4.55 1.75 -0.433 -0.433 -0.433 -0.433 -0.432 12.77648 12.74046-10.93391   3.209
 4.55 2.00 -0.413 -0.413 -0.413 -0.413 -0.413 13.02612 12.99083-10.68361   4.276
 4.55 2.25 -0.383 -0.383 -0.383 -0.383 -0.383 13.27568 13.24133-10.43310   5.693
 4.55 2.50 -0.340 -0.340 -0.340 -0.340 -0.339 13.52505 13.49206-10.18230   7.574
 4.55 2.75 -0.281 -0.281 -0.281 -0.281 -0.280 13.77397 13.74337 -9.93100  10.061
 4.55 3.00 -0.207 -0.207 -0.207 -0.206 -0.206 14.02243 13.99515 -9.67923  13.346
 4.55 3.20 -0.138 -0.138 -0.138 -0.138 -0.138 14.22044 14.19710 -9.47721  16.696
 4.55 3.40 -0.063 -0.063 -0.063 -0.063 -0.062 14.41845 14.39909 -9.27519  20.886
 4.55 3.60  0.018  0.018  0.018  0.018  0.019 14.61649 14.60112 -9.07318  26.125
 4.55 3.80  0.110  0.110  0.110  0.110  0.111 14.81462 14.80315 -8.87117  32.677
 4.55 4.00  0.215  0.215  0.215  0.216  0.216 15.01284 15.00518 -8.66918  40.873
 4.55 4.20  0.337  0.337  0.337  0.337  0.338 15.21142 15.20658 -8.46780  51.211
 4.55 4.40  0.477  0.477  0.477  0.477  0.477 15.41024 15.40768 -8.26672  64.230
 4.55 4.60  0.635  0.635  0.635  0.635  0.635 15.60934 15.60845 -8.06596  80.661
 4.55 4.80  0.808  0.808  0.808  0.808  0.808 15.80867 15.80901 -7.86539 101.391
 4.55 5.00  0.994  0.994  0.994  0.994  0.995 16.00817 16.00945 -7.66494 127.523
 4.55 5.20  1.191  1.191  1.191  1.191  1.191 16.20785 16.20978 -7.46459 160.475
 4.55 5.40  1.395  1.395  1.395  1.395  1.395 16.40757 16.41011 -7.26423 201.948
 4.55 5.60  1.605  1.605  1.605  1.605  1.605 16.60734 16.61045 -7.06388 254.146
 4.55 5.80  1.819  1.819  1.819  1.819  1.819 16.80712 16.81079 -6.86351 319.838
 4.55 6.00  2.036  2.036  2.036  2.036  2.036 17.00690 17.01115 -6.66314 402.510
 4.55 6.25  2.311  2.311  2.311  2.311  2.311 17.25627 17.26166 -6.41265 536.421
 4.55 6.50  2.589  2.589  2.589  2.589  2.589 17.50542 17.51229 -6.16210 714.746
 4.55 6.75  2.869  2.869  2.869  2.869  2.869 17.75440 17.76321 -5.91114 952.081
 4.55 7.00  3.156  3.156  3.156  3.156  3.156 18.00303 18.01452 -5.659751267.669
 4.55 7.25  3.443  3.443  3.443  3.443  3.443 18.25099 18.26653 -5.407761686.427
 4.55 7.50  3.731  3.731  3.731  3.731  3.731 18.49804 18.51944 -5.154902241.035
 4.55 7.75  4.012  4.012  4.012  4.012  4.012 18.74324 18.77393 -4.900412971.954
 4.55 8.00  4.285  4.285  4.285  4.285  4.285 18.98691 19.02979 -4.644553934.445
 4.60-2.00 -0.464 -0.464 -0.464 -0.464 -0.464  8.97708  8.93997-14.73448   0.038
 4.60-1.50 -0.464 -0.464 -0.464 -0.464 -0.464  9.47698  9.43996-14.23441   0.068
 4.60-1.00 -0.464 -0.464 -0.464 -0.464 -0.463  9.97704  9.93997-13.73448   0.121
 4.60-0.50 -0.464 -0.464 -0.464 -0.463 -0.463 10.47698 10.43996-13.23441   0.215
 4.60 0.00 -0.463 -0.463 -0.463 -0.463 -0.463 10.97704 10.94002-12.73424   0.382
 4.60 0.50 -0.462 -0.462 -0.462 -0.462 -0.462 11.47698 11.43996-12.23433   0.679
 4.60 1.00 -0.460 -0.460 -0.460 -0.460 -0.459 11.97699 11.94007-11.73424   1.208
 4.60 1.25 -0.458 -0.458 -0.458 -0.457 -0.457 12.22691 12.19009-11.48425   1.610
 4.60 1.50 -0.454 -0.454 -0.454 -0.453 -0.453 12.47683 12.44012-11.23426   2.147
 4.60 1.75 -0.447 -0.447 -0.447 -0.447 -0.446 12.72684 12.69016-10.98426   2.863
 4.60 2.00 -0.436 -0.436 -0.436 -0.435 -0.435 12.97685 12.94022-10.73424   3.817
 4.60 2.25 -0.417 -0.417 -0.417 -0.417 -0.417 13.22671 13.19031-10.48414   5.089
 4.60 2.50 -0.389 -0.389 -0.389 -0.389 -0.388 13.47654 13.44044-10.23396   6.783
 4.60 2.75 -0.347 -0.347 -0.347 -0.346 -0.346 13.72637 13.69065 -9.98369   9.040
 4.60 3.00 -0.287 -0.287 -0.287 -0.287 -0.286 13.97617 13.94097 -9.73330  12.044
 4.60 3.20 -0.224 -0.224 -0.224 -0.224 -0.223 14.17577 14.14137 -9.53290  15.143
 4.60 3.40 -0.147 -0.147 -0.147 -0.146 -0.146 14.37517 14.34196 -9.33236  19.029
 4.60 3.60 -0.054 -0.054 -0.054 -0.054 -0.053 14.57435 14.54283 -9.13150  23.893
 4.60 3.80  0.053  0.053  0.053  0.053  0.053 14.77323 14.74407 -8.93021  29.969
 4.60 4.00  0.173  0.173  0.173  0.173  0.174 14.97183 14.94562 -8.72862  37.555
 4.60 4.20  0.304  0.304  0.304  0.304  0.304 15.16985 15.14772 -8.52662  46.970
 4.60 4.40  0.443  0.443  0.443  0.443  0.444 15.36786 15.34982 -8.32460  58.745
 4.60 4.60  0.591  0.591  0.592  0.592  0.592 15.56588 15.55189 -8.12257  73.473
 4.60 4.80  0.750  0.750  0.750  0.750  0.750 15.76394 15.75389 -7.92054  91.898
 4.60 5.00  0.918  0.918  0.918  0.918  0.918 15.96204 15.95578 -7.71851 114.952
 4.60 5.20  1.098  1.098  1.098  1.098  1.098 16.16067 16.15711 -7.51719 144.013
 4.60 5.40  1.287  1.287  1.287  1.287  1.287 16.35955 16.35819 -7.31611 180.621
 4.60 5.60  1.485  1.485  1.485  1.485  1.485 16.55874 16.55902 -7.11527 226.930
 4.60 5.80  1.690  1.690  1.690  1.690  1.690 16.75811 16.75970 -6.91456 285.424
 4.60 6.00  1.900  1.900  1.900  1.900  1.900 16.95756 16.96028 -6.71399 359.076
 4.60 6.25  2.168  2.168  2.168  2.168  2.168 17.20696 17.21089 -6.46348 478.499
 4.60 6.50  2.440  2.440  2.440  2.440  2.440 17.45637 17.46150 -6.21297 637.640
 4.60 6.75  2.709  2.709  2.709  2.709  2.709 17.70566 17.71219 -5.96223 849.626
 4.60 7.00  2.989  2.989  2.989  2.989  2.989 17.95482 17.96299 -5.711301131.930
 4.60 7.25  3.270  3.270  3.270  3.270  3.270 18.20362 18.21411 -5.460151507.356
 4.60 7.50  3.554  3.554  3.554  3.554  3.554 18.45194 18.46568 -5.208592006.180
 4.60 7.75  3.835  3.835  3.835  3.835  3.835 18.69930 18.71824 -4.956032667.181
 4.60 8.00  4.113  4.113  4.113  4.113  4.113 18.94586 18.97160 -4.702683542.748
 4.65-2.00 -0.464 -0.464 -0.464 -0.464 -0.464  8.92706  8.88997-14.78436   0.034
 4.65-1.50 -0.464 -0.464 -0.464 -0.464 -0.464  9.42700  9.38987-14.28441   0.061
 4.65-1.00 -0.464 -0.464 -0.464 -0.464 -0.464  9.92706  9.88997-13.78436   0.108
 4.65-0.50 -0.464 -0.464 -0.464 -0.464 -0.463 10.42700 10.39005-13.28442   0.191
 4.65 0.00 -0.463 -0.463 -0.463 -0.463 -0.463 10.92706 10.89003-12.78436   0.340
 4.65 0.50 -0.463 -0.463 -0.463 -0.462 -0.462 11.42700 11.39005-12.28433   0.605
 4.65 1.00 -0.461 -0.461 -0.461 -0.461 -0.461 11.92701 11.89009-11.78436   1.076
 4.65 1.25 -0.460 -0.460 -0.460 -0.460 -0.459 12.17701 12.14007-11.53436   1.435
 4.65 1.50 -0.458 -0.458 -0.458 -0.458 -0.457 12.42700 12.39005-11.28433   1.914
 4.65 1.75 -0.454 -0.454 -0.454 -0.454 -0.454 12.67695 12.64010-11.03421   2.552
 4.65 2.00 -0.448 -0.448 -0.448 -0.448 -0.448 12.92691 12.89014-10.78410   3.403
 4.65 2.25 -0.438 -0.438 -0.438 -0.438 -0.437 13.17687 13.14019-10.53413   4.537
 4.65 2.50 -0.421 -0.421 -0.421 -0.421 -0.421 13.42684 13.39023-10.28416   6.049
 4.65 2.75 -0.395 -0.395 -0.395 -0.395 -0.394 13.67678 13.64029-10.03415   8.065
 4.65 3.00 -0.355 -0.355 -0.355 -0.355 -0.354 13.92670 13.89037 -9.78410  10.754
 4.65 3.20 -0.310 -0.310 -0.310 -0.310 -0.310 14.12659 14.09044 -9.58400  13.535
 4.65 3.40 -0.253 -0.253 -0.253 -0.253 -0.252 14.32644 14.29053 -9.38384  17.032
 4.65 3.60 -0.180 -0.180 -0.180 -0.180 -0.179 14.52626 14.49069 -9.18365  21.430
 4.65 3.80 -0.090 -0.090 -0.090 -0.090 -0.090 14.72605 14.69100 -8.98339  26.958
 4.65 4.00  0.017  0.017  0.017  0.017  0.018 14.92578 14.89143 -8.78304  33.902
 4.65 4.20  0.145  0.145  0.145  0.145  0.145 15.12526 15.09199 -8.58247  42.609
 4.65 4.40  0.292  0.292  0.292  0.292  0.292 15.32452 15.29276 -8.38166  53.514
 4.65 4.60  0.456  0.456  0.456  0.456  0.456 15.52348 15.49385 -8.18053  67.146
 4.65 4.80  0.632  0.632  0.632  0.632  0.633 15.72210 15.69532 -7.97905  84.154
 4.65 5.00  0.816  0.816  0.816  0.816  0.816 15.92044 15.89708 -7.77728 105.369
 4.65 5.20  1.002  1.002  1.002  1.002  1.002 16.11832 16.09929 -7.57509 131.723
 4.65 5.40  1.190  1.190  1.190  1.190  1.190 16.31620 16.30150 -7.37290 164.668
 4.65 5.60  1.380  1.380  1.380  1.380  1.380 16.51414 16.50363 -7.17077 205.885
 4.65 5.80  1.572  1.572  1.572  1.572  1.572 16.71228 16.70554 -6.96880 257.563
 4.65 6.00  1.769  1.769  1.769  1.769  1.769 16.91057 16.90725 -6.76700 322.386
 4.65 6.25  2.022  2.022  2.022  2.022  2.022 17.15898 17.15874 -6.51558 428.066
 4.65 6.50  2.282  2.282  2.282  2.282  2.282 17.40773 17.40993 -6.26440 569.277
 4.65 6.75  2.541  2.541  2.541  2.541  2.541 17.65687 17.66087 -6.01343 758.359
 4.65 7.00  2.806  2.806  2.806  2.806  2.806 17.90601 17.91180 -5.762461010.243
 4.65 7.25  3.078  3.078  3.078  3.078  3.078 18.15500 18.16277 -5.511481345.637
 4.65 7.50  3.352  3.352  3.352  3.352  3.352 18.40381 18.41380 -5.260511792.101
 4.65 7.75  3.625  3.625  3.625  3.625  3.625 18.65220 18.66542 -5.008932385.329
 4.65 8.00  3.898  3.898  3.898  3.898  3.898 18.90026 18.91745 -4.756963173.551
 4.70-2.00 -0.464 -0.464 -0.464 -0.464 -0.464  8.87708  8.83998-14.83446   0.030
 4.70-1.50 -0.464 -0.464 -0.464 -0.464 -0.464  9.37694  9.33985-14.33442   0.054
 4.70-1.00 -0.464 -0.464 -0.464 -0.464 -0.464  9.87708  9.83998-13.83446   0.096
 4.70-0.50 -0.464 -0.464 -0.464 -0.464 -0.463 10.37694 10.34005-13.33442   0.171
 4.70 0.00 -0.463 -0.463 -0.463 -0.463 -0.463 10.87703 10.83998-12.83446   0.303
 4.70 0.50 -0.463 -0.463 -0.463 -0.463 -0.463 11.37694 11.34005-12.33442   0.539
 4.70 1.00 -0.462 -0.462 -0.462 -0.462 -0.461 11.87703 11.84004-11.83446   0.959
 4.70 1.25 -0.461 -0.461 -0.461 -0.461 -0.460 12.12698 12.09004-11.58440   1.279
 4.70 1.50 -0.459 -0.459 -0.459 -0.459 -0.459 12.37694 12.34005-11.33432   1.706
 4.70 1.75 -0.457 -0.457 -0.457 -0.457 -0.457 12.62696 12.59008-11.08424   2.275
 4.70 2.00 -0.454 -0.454 -0.454 -0.454 -0.453 12.87697 12.84011-10.83416   3.033
 4.70 2.25 -0.448 -0.448 -0.448 -0.448 -0.448 13.12696 13.09008-10.58420   4.044
 4.70 2.50 -0.439 -0.439 -0.439 -0.439 -0.439 13.37694 13.34005-10.33423   5.392
 4.70 2.75 -0.424 -0.424 -0.424 -0.424 -0.423 13.62688 13.59014-10.08421   7.190
 4.70 3.00 -0.400 -0.400 -0.400 -0.400 -0.399 13.87680 13.84023 -9.83416   9.587
 4.70 3.20 -0.371 -0.371 -0.371 -0.371 -0.371 14.07671 14.04024 -9.63412  12.068
 4.70 3.40 -0.333 -0.333 -0.332 -0.332 -0.332 14.27662 14.24024 -9.43407  15.190
 4.70 3.60 -0.281 -0.281 -0.281 -0.281 -0.281 14.47656 14.44031 -9.23402  19.120
 4.70 3.80 -0.215 -0.215 -0.215 -0.215 -0.214 14.67653 14.64045 -9.03395  24.064
 4.70 4.00 -0.132 -0.132 -0.132 -0.132 -0.132 14.87651 14.84061 -8.83387  30.286
 4.70 4.20 -0.032 -0.032 -0.032 -0.032 -0.032 15.07637 15.04076 -8.63370  38.111
 4.70 4.40  0.086  0.086  0.086  0.086  0.086 15.27616 15.24094 -8.43345  47.950
 4.70 4.60  0.225  0.225  0.225  0.225  0.225 15.47589 15.44120 -8.23312  60.315
 4.70 4.80  0.382  0.382  0.382  0.382  0.383 15.67551 15.64164 -8.03268  75.839
 4.70 5.00  0.557  0.557  0.557  0.557  0.558 15.87500 15.84223 -7.83209  95.316
 4.70 5.20  0.747  0.748  0.748  0.748  0.748 16.07423 16.04305 -7.63129 119.691
 4.70 5.40  0.949  0.949  0.949  0.949  0.949 16.27317 16.24414 -7.43021 150.165
 4.70 5.60  1.157  1.157  1.157  1.157  1.157 16.47172 16.44570 -7.22871 188.158
 4.70 5.80  1.368  1.368  1.368  1.368  1.368 16.66993 16.64764 -7.02684 235.500
 4.70 6.00  1.577  1.577  1.577  1.578  1.578 16.86794 16.84973 -6.82478 294.541
 4.70 6.25  1.836  1.836  1.836  1.836  1.836 17.11521 17.10249 -6.57195 389.195
 4.70 6.50  2.093  2.093  2.093  2.093  2.093 17.36248 17.35526 -6.31912 514.267
 4.70 6.75  2.349  2.349  2.349  2.349  2.349 17.61028 17.60753 -6.06690 680.811
 4.70 7.00  2.589  2.589  2.589  2.589  2.589 17.85842 17.85944 -5.81503 902.865
 4.70 7.25  2.850  2.850  2.850  2.850  2.850 18.10703 18.11077 -5.563611202.050
 4.70 7.50  3.113  3.113  3.113  3.113  3.113 18.35564 18.36211 -5.312201600.377
 4.70 7.75  3.376  3.376  3.376  3.376  3.376 18.60423 18.61352 -5.060802130.658
 4.70 8.00  3.640  3.640  3.640  3.640  3.640 18.85279 18.86498 -4.809392836.613
 4.75-2.00 -0.464 -0.464 -0.464 -0.464 -0.464  8.82705  8.79000-14.88439   0.027
 4.75-1.50 -0.464 -0.464 -0.464 -0.464 -0.464  9.32695  9.29004-14.38447   0.048
 4.75-1.00 -0.464 -0.464 -0.464 -0.464 -0.464  9.82705  9.79000-13.88439   0.086
 4.75-0.50 -0.464 -0.464 -0.464 -0.464 -0.464 10.32695 10.29003-13.38437   0.152
 4.75 0.00 -0.464 -0.464 -0.464 -0.464 -0.463 10.82705 10.79000-12.88439   0.270
 4.75 0.50 -0.463 -0.463 -0.463 -0.463 -0.463 11.32695 11.29004-12.38437   0.481
 4.75 1.00 -0.462 -0.462 -0.462 -0.462 -0.462 11.82705 11.79007-11.88439   0.855
 4.75 1.25 -0.461 -0.461 -0.461 -0.461 -0.461 12.07700 12.04006-11.63438   1.140
 4.75 1.50 -0.460 -0.460 -0.460 -0.460 -0.460 12.32695 12.29004-11.38437   1.520
 4.75 1.75 -0.458 -0.458 -0.458 -0.458 -0.458 12.57697 12.54006-11.13438   2.027
 4.75 2.00 -0.456 -0.456 -0.456 -0.456 -0.455 12.82698 12.79007-10.88439   2.703
 4.75 2.25 -0.452 -0.452 -0.452 -0.452 -0.452 13.07697 13.04005-10.63434   3.604
 4.75 2.50 -0.447 -0.447 -0.447 -0.447 -0.447 13.32695 13.29003-10.38426   4.806
 4.75 2.75 -0.438 -0.438 -0.438 -0.438 -0.438 13.57690 13.54012-10.13416   6.409
 4.75 3.00 -0.425 -0.424 -0.424 -0.424 -0.424 13.82685 13.79022 -9.88406   8.546
 4.75 3.20 -0.408 -0.408 -0.408 -0.407 -0.407 14.02681 13.99023 -9.68405  10.757
 4.75 3.40 -0.383 -0.383 -0.383 -0.383 -0.383 14.22677 14.19025 -9.48405  13.541
 4.75 3.60 -0.350 -0.350 -0.350 -0.350 -0.350 14.42673 14.39028 -9.28405  17.045
 4.75 3.80 -0.305 -0.305 -0.305 -0.305 -0.305 14.62669 14.59035 -9.08405  21.455
 4.75 4.00 -0.247 -0.247 -0.247 -0.246 -0.246 14.82666 14.79043 -8.88406  27.007
 4.75 4.20 -0.173 -0.173 -0.173 -0.172 -0.172 15.02653 14.99053 -8.68393  33.992
 4.75 4.40 -0.082 -0.082 -0.082 -0.082 -0.081 15.22640 15.19065 -8.48380  42.781
 4.75 4.60  0.026  0.026  0.026  0.026  0.026 15.42630 15.39076 -8.28367  53.840
 4.75 4.80  0.153  0.153  0.153  0.153  0.154 15.62622 15.59087 -8.08353  67.753
 4.75 5.00  0.298  0.298  0.298  0.298  0.299 15.82614 15.79099 -7.88339  85.254
 4.75 5.20  0.460  0.460  0.460  0.460  0.461 16.02590 15.99123 -7.68315 107.246
 4.75 5.40  0.637  0.637  0.637  0.637  0.638 16.22554 16.19159 -7.48280 134.867
 4.75 5.60  0.828  0.828  0.828  0.828  0.828 16.42506 16.39209 -7.28227 169.538
 4.75 5.80  1.029  1.029  1.029  1.029  1.030 16.62440 16.59282 -7.08146 212.981
 4.75 6.00  1.240  1.240  1.240  1.240  1.240 16.82354 16.79379 -6.88041 267.370
 4.75 6.25  1.512  1.512  1.512  1.512  1.512 17.07187 17.04554 -6.62875 354.640
 4.75 6.50  1.789  1.789  1.789  1.789  1.789 17.31973 17.29776 -6.37665 469.653
 4.75 6.75  2.063  2.063  2.063  2.063  2.063 17.56699 17.55064 -6.12380 620.559
 4.75 7.00  2.319  2.319  2.319  2.319  2.320 17.81425 17.80353 -5.87096 819.952
 4.75 7.25  2.583  2.583  2.583  2.583  2.583 18.06157 18.05625 -5.618221083.603
 4.75 7.50  2.844  2.844  2.844  2.844  2.844 18.30899 18.30878 -5.365621432.482
 4.75 7.75  3.102  3.102  3.102  3.102  3.102 18.55692 18.56086 -5.113491902.624
 4.75 8.00  3.358  3.358  3.358  3.358  3.358 18.80523 18.81258 -4.861702535.275
 4.80-2.00 -0.464 -0.464 -0.464 -0.464 -0.464  8.77706  8.73997-14.93442   0.024
 4.80-1.50 -0.464 -0.464 -0.464 -0.464 -0.464  9.27692  9.24005-14.43439   0.043
 4.80-1.00 -0.464 -0.464 -0.464 -0.464 -0.464  9.77706  9.73997-13.93442   0.076
 4.80-0.50 -0.464 -0.464 -0.464 -0.464 -0.464 10.27692 10.24005-13.43439   0.136
 4.80 0.00 -0.464 -0.464 -0.464 -0.464 -0.464 10.77706 10.73997-12.93442   0.241
 4.80 0.50 -0.464 -0.464 -0.464 -0.463 -0.463 11.27692 11.24005-12.43439   0.429
 4.80 1.00 -0.463 -0.463 -0.463 -0.463 -0.463 11.77699 11.74005-11.93442   0.762
 4.80 1.25 -0.462 -0.462 -0.462 -0.462 -0.462 12.02696 11.99005-11.68440   1.016
 4.80 1.50 -0.461 -0.461 -0.461 -0.461 -0.461 12.27692 12.24005-11.43439   1.355
 4.80 1.75 -0.460 -0.460 -0.460 -0.460 -0.459 12.52696 12.49005-11.18440   1.807
 4.80 2.00 -0.457 -0.457 -0.457 -0.457 -0.457 12.77699 12.74005-10.93442   2.409
 4.80 2.25 -0.454 -0.454 -0.454 -0.454 -0.454 13.02696 12.99005-10.68436   3.212
 4.80 2.50 -0.450 -0.450 -0.450 -0.450 -0.450 13.27692 13.24005-10.43427   4.284
 4.80 2.75 -0.444 -0.444 -0.444 -0.444 -0.444 13.52692 13.49013-10.18416   5.712
 4.80 3.00 -0.435 -0.435 -0.435 -0.435 -0.435 13.77692 13.74020 -9.93405   7.617
 4.80 3.20 -0.425 -0.425 -0.425 -0.425 -0.425 13.97683 13.94025 -9.73409   9.588
 4.80 3.40 -0.410 -0.410 -0.410 -0.410 -0.410 14.17674 14.14028 -9.53413  12.070
 4.80 3.60 -0.390 -0.390 -0.390 -0.390 -0.389 14.37669 14.34031 -9.33414  15.194
 4.80 3.80 -0.361 -0.361 -0.361 -0.361 -0.361 14.57670 14.54034 -9.13410  19.125
 4.80 4.00 -0.322 -0.322 -0.322 -0.322 -0.322 14.77670 14.74037 -8.93405  24.074
 4.80 4.20 -0.271 -0.271 -0.271 -0.271 -0.270 14.97661 14.94043 -8.73400  30.302
 4.80 4.40 -0.205 -0.205 -0.205 -0.205 -0.205 15.17651 15.14051 -8.53395  38.141
 4.80 4.60 -0.124 -0.124 -0.124 -0.124 -0.124 15.37645 15.34059 -8.33388  48.007
 4.80 4.80 -0.026 -0.026 -0.026 -0.025 -0.025 15.57643 15.54067 -8.13379  60.424
 4.80 5.00  0.089  0.089  0.089  0.089  0.090 15.77641 15.74076 -7.93368  76.048
 4.80 5.20  0.223  0.223  0.223  0.223  0.223 15.97628 15.94086 -7.73356  95.704
 4.80 5.40  0.373  0.373  0.373  0.373  0.374 16.17611 16.14098 -7.53341 120.429
 4.80 5.60  0.539  0.539  0.539  0.539  0.539 16.37591 16.34115 -7.33322 151.524
 4.80 5.80  0.719  0.719  0.719  0.719  0.719 16.57568 16.54142 -7.13293 190.609
 4.80 6.00  0.909  0.909  0.909  0.909  0.909 16.77539 16.74178 -6.93256 239.718
 4.80 6.25  1.160  1.160  1.160  1.160  1.160 17.02480 16.99240 -6.68190 319.047
 4.80 6.50  1.421  1.421  1.421  1.421  1.421 17.27393 17.24329 -6.43098 424.243
 4.80 6.75  1.693  1.693  1.693  1.693  1.693 17.52256 17.49478 -6.17961 563.278
 4.80 7.00  1.968  1.968  1.968  1.968  1.968 17.77071 17.74679 -5.92775 746.703
 4.80 7.25  2.241  2.241  2.241  2.241  2.241 18.01808 17.99950 -5.67495 987.438
 4.80 7.50  2.518  2.518  2.518  2.518  2.518 18.26529 18.25237 -5.422051304.616
 4.80 7.75  2.786  2.786  2.786  2.786  2.786 18.51245 18.50529 -5.169121722.921
 4.80 8.00  3.048  3.048  3.048  3.048  3.048 18.75952 18.75831 -4.916142274.005
 4.85-2.00 -0.464 -0.464 -0.464 -0.464 -0.464  8.72705  8.68993-14.98422   0.021
 4.85-1.50 -0.464 -0.464 -0.464 -0.464 -0.464  9.22712  9.19005-14.48439   0.038
 4.85-1.00 -0.464 -0.464 -0.464 -0.464 -0.464  9.72705  9.69002-13.98422   0.068
 4.85-0.50 -0.464 -0.464 -0.464 -0.464 -0.464 10.22712 10.19005-13.48439   0.121
 4.85 0.00 -0.464 -0.464 -0.464 -0.464 -0.464 10.72705 10.69002-12.98422   0.215
 4.85 0.50 -0.464 -0.464 -0.464 -0.464 -0.464 11.22711 11.19005-12.48439   0.382
 4.85 1.00 -0.463 -0.463 -0.463 -0.463 -0.463 11.72705 11.69002-11.98422   0.679
 4.85 1.25 -0.463 -0.463 -0.463 -0.463 -0.463 11.97696 11.94003-11.73431   0.906
 4.85 1.50 -0.462 -0.462 -0.462 -0.462 -0.462 12.22686 12.19005-11.48439   1.208
 4.85 1.75 -0.461 -0.461 -0.461 -0.461 -0.461 12.47691 12.44008-11.23431   1.610
 4.85 2.00 -0.460 -0.460 -0.460 -0.460 -0.460 12.72697 12.69011-10.98422   2.147
 4.85 2.25 -0.457 -0.457 -0.457 -0.457 -0.457 12.97692 12.94008-10.73424   2.863
 4.85 2.50 -0.454 -0.454 -0.454 -0.453 -0.453 13.22686 13.19005-10.48426   3.818
 4.85 2.75 -0.448 -0.448 -0.448 -0.448 -0.448 13.47687 13.44012-10.23425   5.091
 4.85 3.00 -0.441 -0.441 -0.441 -0.441 -0.440 13.72689 13.69020 -9.98422   6.789
 4.85 3.20 -0.433 -0.433 -0.433 -0.433 -0.432 13.92689 13.89014 -9.78418   8.546
 4.85 3.40 -0.422 -0.422 -0.422 -0.422 -0.422 14.12687 14.09008 -9.58415  10.758
 4.85 3.60 -0.409 -0.409 -0.409 -0.409 -0.408 14.32683 14.29010 -9.38415  13.542
 4.85 3.80 -0.390 -0.390 -0.390 -0.390 -0.390 14.52678 14.49019 -9.18418  17.047
 4.85 4.00 -0.365 -0.365 -0.365 -0.364 -0.364 14.72673 14.69028 -8.98422  21.459
 4.85 4.20 -0.330 -0.330 -0.330 -0.330 -0.330 14.92668 14.89030 -8.78413  27.012
 4.85 4.40 -0.285 -0.285 -0.285 -0.285 -0.285 15.12663 15.09032 -8.58404  34.000
 4.85 4.60 -0.227 -0.227 -0.227 -0.227 -0.227 15.32658 15.29039 -8.38396  42.797
 4.85 4.80 -0.154 -0.154 -0.154 -0.154 -0.154 15.52653 15.49052 -8.18388  53.869
 4.85 5.00 -0.065 -0.065 -0.065 -0.065 -0.065 15.72648 15.69064 -7.98380  67.803
 4.85 5.20  0.040  0.040  0.040  0.040  0.040 15.92643 15.89074 -7.78372  85.337
 4.85 5.40  0.164  0.164  0.164  0.164  0.164 16.12637 16.09084 -7.58364 107.400
 4.85 5.60  0.305  0.305  0.305  0.305  0.305 16.32627 16.29095 -7.38347 135.162
 4.85 5.80  0.463  0.463  0.463  0.463  0.463 16.52611 16.49109 -7.18322 170.087
 4.85 6.00  0.634  0.634  0.634  0.634  0.634 16.72591 16.69126 -6.98297 214.020
 4.85 6.25  0.865  0.865  0.865  0.865  0.865 16.97565 16.94157 -6.73275 285.146
 4.85 6.50  1.106  1.106  1.106  1.106  1.106 17.22531 17.19201 -6.48254 379.774
 4.85 6.75  1.359  1.359  1.359  1.359  1.359 17.47476 17.44258 -6.23187 505.534
 4.85 7.00  1.622  1.622  1.622  1.622  1.622 17.72395 17.69337 -5.98089 672.422
 4.85 7.25  1.886  1.886  1.886  1.886  1.886 17.97264 17.94467 -5.72962 893.140
 4.85 7.50  2.159  2.159  2.159  2.159  2.159 18.22089 18.19645 -5.477951184.508
 4.85 7.75  2.432  2.432  2.432  2.432  2.432 18.46865 18.44885 -5.225591567.717
 4.85 8.00  2.705  2.705  2.705  2.705  2.705 18.71592 18.70183 -4.972652071.026
 4.90-2.00 -0.464 -0.464 -0.464 -0.464 -0.464  8.67706  8.63998-15.03438   0.019
 4.90-1.50 -0.464 -0.464 -0.464 -0.464 -0.464  9.17696  9.13988-14.53447   0.034
 4.90-1.00 -0.464 -0.464 -0.464 -0.464 -0.464  9.67706  9.63998-14.03438   0.061
 4.90-0.50 -0.464 -0.464 -0.464 -0.464 -0.464 10.17696 10.13988-13.53447   0.108
 4.90 0.00 -0.464 -0.464 -0.464 -0.464 -0.464 10.67706 10.63999-13.03438   0.191
 4.90 0.50 -0.464 -0.464 -0.464 -0.464 -0.464 11.17696 11.13988-12.53447   0.340
 4.90 1.00 -0.464 -0.464 -0.464 -0.464 -0.463 11.67706 11.63998-12.03433   0.605
 4.90 1.25 -0.463 -0.463 -0.463 -0.463 -0.463 11.92701 11.88993-11.78432   0.807
 4.90 1.50 -0.463 -0.463 -0.463 -0.463 -0.463 12.17696 12.13988-11.53432   1.076
 4.90 1.75 -0.463 -0.463 -0.463 -0.462 -0.462 12.42696 12.38998-11.28432   1.435
 4.90 2.00 -0.462 -0.462 -0.462 -0.462 -0.461 12.67697 12.64008-11.03433   1.914
 4.90 2.25 -0.460 -0.460 -0.460 -0.460 -0.460 12.92696 12.89015-10.78433   2.552
 4.90 2.50 -0.458 -0.458 -0.458 -0.458 -0.458 13.17696 13.14019-10.53432   3.403
 4.90 2.75 -0.454 -0.454 -0.454 -0.454 -0.454 13.42696 13.39019-10.28428   4.538
 4.90 3.00 -0.448 -0.448 -0.448 -0.448 -0.448 13.67697 13.64018-10.03423   6.051
 4.90 3.20 -0.441 -0.441 -0.441 -0.441 -0.441 13.87697 13.84018 -9.83421   7.617
 4.90 3.40 -0.432 -0.432 -0.432 -0.432 -0.432 14.07696 14.04019 -9.63418   9.589
 4.90 3.60 -0.420 -0.420 -0.420 -0.420 -0.420 14.27692 14.24021 -9.43416  12.070
 4.90 3.80 -0.406 -0.406 -0.406 -0.405 -0.405 14.47686 14.44025 -9.23413  15.195
 4.90 4.00 -0.387 -0.387 -0.387 -0.387 -0.386 14.67679 14.64028 -9.03409  19.128
 4.90 4.20 -0.362 -0.362 -0.362 -0.362 -0.362 14.87673 14.84025 -8.83407  24.077
 4.90 4.40 -0.330 -0.330 -0.330 -0.330 -0.330 15.07669 15.04021 -8.63404  30.307
 4.90 4.60 -0.289 -0.289 -0.289 -0.289 -0.288 15.27666 15.24024 -8.43399  38.149
 4.90 4.80 -0.236 -0.236 -0.236 -0.236 -0.236 15.47663 15.44036 -8.23392  48.020
 4.90 5.00 -0.170 -0.170 -0.170 -0.169 -0.169 15.67660 15.64048 -8.03386  60.444
 4.90 5.20 -0.088 -0.088 -0.088 -0.088 -0.088 15.87652 15.84062 -7.83381  76.077
 4.90 5.40  0.009  0.009  0.009  0.009  0.010 16.07643 16.04075 -7.63375  95.751
 4.90 5.60  0.126  0.126  0.126  0.126  0.126 16.27634 16.24085 -7.43367 120.511
 4.90 5.80  0.260  0.260  0.260  0.260  0.260 16.47624 16.44092 -7.23354 151.670
 4.90 6.00  0.411  0.411  0.411  0.411  0.411 16.67615 16.64098 -7.03339 190.878
 4.90 6.25  0.620  0.620  0.620  0.620  0.621 16.92599 16.89118 -6.78320 254.394
 4.90 6.50  0.849  0.849  0.849  0.849  0.849 17.17580 17.14145 -6.53298 338.988
 4.90 6.75  1.081  1.081  1.081  1.081  1.081 17.42548 17.39176 -6.28266 451.625
 4.90 7.00  1.333  1.333  1.333  1.333  1.333 17.67505 17.64217 -6.03222 601.498
 4.90 7.25  1.588  1.588  1.588  1.588  1.588 17.92451 17.89278 -5.78161 800.622
 4.90 7.50  1.850  1.850  1.850  1.850  1.850 18.17377 18.14364 -5.530771064.839
 4.90 7.75  2.112  2.112  2.112  2.112  2.113 18.42250 18.39497 -5.279441414.278
 4.90 8.00  2.380  2.380  2.380  2.380  2.380 18.67080 18.64670 -5.027711876.160
 4.95-2.00 -0.464 -0.464 -0.464 -0.464 -0.464  8.62706  8.58995-15.08439   0.017
 4.95-1.50 -0.464 -0.464 -0.464 -0.464 -0.464  9.12710  9.08991-14.58436   0.030
 4.95-1.00 -0.464 -0.464 -0.464 -0.464 -0.464  9.62706  9.58995-14.08439   0.054
 4.95-0.50 -0.464 -0.464 -0.464 -0.464 -0.464 10.12711 10.08990-13.58436   0.096
 4.95 0.00 -0.464 -0.464 -0.464 -0.464 -0.464 10.62706 10.58995-13.08439   0.171
 4.95 0.50 -0.464 -0.464 -0.464 -0.464 -0.464 11.12710 11.08991-12.58436   0.303
 4.95 1.00 -0.464 -0.464 -0.464 -0.464 -0.464 11.62706 11.59006-12.08434   0.540
 4.95 1.25 -0.464 -0.464 -0.464 -0.464 -0.463 11.87708 11.83998-11.83435   0.720
 4.95 1.50 -0.463 -0.463 -0.463 -0.463 -0.463 12.12710 12.08991-11.58436   0.959
 4.95 1.75 -0.463 -0.463 -0.463 -0.463 -0.463 12.37708 12.33998-11.33435   1.279
 4.95 2.00 -0.463 -0.463 -0.463 -0.463 -0.462 12.62706 12.59006-11.08434   1.706
 4.95 2.25 -0.462 -0.462 -0.462 -0.462 -0.462 12.87708 12.83998-10.83435   2.275
 4.95 2.50 -0.461 -0.461 -0.461 -0.460 -0.460 13.12711 13.08991-10.58436   3.033
 4.95 2.75 -0.458 -0.458 -0.458 -0.458 -0.458 13.37704 13.33997-10.33430   4.044
 4.95 3.00 -0.455 -0.455 -0.455 -0.455 -0.454 13.62696 13.59006-10.08423   5.393
 4.95 3.20 -0.450 -0.450 -0.450 -0.450 -0.450 13.82689 13.79014 -9.88422   6.789
 4.95 3.40 -0.443 -0.443 -0.443 -0.443 -0.443 14.02682 13.99022 -9.68420   8.546
 4.95 3.60 -0.434 -0.434 -0.434 -0.434 -0.434 14.22680 14.19027 -9.48418  10.759
 4.95 3.80 -0.422 -0.422 -0.422 -0.422 -0.421 14.42682 14.39028 -9.28416  13.544
 4.95 4.00 -0.405 -0.405 -0.405 -0.405 -0.405 14.62685 14.59028 -9.08413  17.050
 4.95 4.20 -0.385 -0.385 -0.385 -0.385 -0.384 14.82683 14.79027 -8.88409  21.462
 4.95 4.40 -0.359 -0.359 -0.359 -0.359 -0.358 15.02680 14.99026 -8.68405  27.015
 4.95 4.60 -0.326 -0.326 -0.326 -0.326 -0.326 15.22676 15.19031 -8.48400  34.005
 4.95 4.80 -0.286 -0.286 -0.286 -0.285 -0.285 15.42671 15.39041 -8.28396  42.805
 4.95 5.00 -0.235 -0.235 -0.235 -0.235 -0.235 15.62665 15.59051 -8.08392  53.881
 4.95 5.20 -0.172 -0.172 -0.172 -0.172 -0.172 15.82658 15.79055 -7.88389  67.819
 4.95 5.40 -0.095 -0.095 -0.095 -0.095 -0.095 16.02650 15.99059 -7.68387  85.360
 4.95 5.60 -0.002 -0.002 -0.002 -0.002 -0.002 16.22642 16.19066 -7.48379 107.437
 4.95 5.80  0.108  0.108  0.108  0.108  0.108 16.42633 16.39075 -7.28364 135.221
 4.95 6.00  0.237  0.237  0.237  0.237  0.237 16.62624 16.59084 -7.08349 170.186
 4.95 6.25  0.423  0.423  0.423  0.423  0.423 16.87602 16.84090 -6.83334 226.847
 4.95 6.50  0.633  0.633  0.633  0.633  0.633 17.12581 17.09096 -6.58319 302.342
 4.95 6.75  0.848  0.848  0.848  0.848  0.848 17.37566 17.34127 -6.33298 402.923
 4.95 7.00  1.090  1.090  1.090  1.090  1.090 17.62552 17.59162 -6.08271 536.879
 4.95 7.25  1.338  1.338  1.338  1.338  1.338 17.87524 17.84198 -5.83235 715.155
 4.95 7.50  1.592  1.592  1.592  1.592  1.592 18.12483 18.09237 -5.58187 952.273
 4.95 7.75  1.847  1.847  1.847  1.847  1.847 18.37415 18.34314 -5.331151267.181
 4.95 8.00  2.106  2.106  2.106  2.106  2.106 18.62325 18.59417 -5.080241685.278
 5.00-2.00 -0.464 -0.464 -0.464 -0.464 -0.464  8.57703  8.53995-15.13442   0.015
 5.00-1.50 -0.464 -0.464 -0.464 -0.464 -0.464  9.07700  9.03981-14.63451   0.027
 5.00-1.00 -0.464 -0.464 -0.464 -0.464 -0.464  9.57703  9.53995-14.13436   0.048
 5.00-0.50 -0.464 -0.464 -0.464 -0.464 -0.464 10.07700 10.03981-13.63451   0.086
 5.00 0.00 -0.464 -0.464 -0.464 -0.464 -0.464 10.57703 10.53995-13.13436   0.152
 5.00 0.50 -0.464 -0.464 -0.464 -0.464 -0.464 11.07700 11.03981-12.63433   0.270
 5.00 1.00 -0.464 -0.464 -0.464 -0.464 -0.464 11.57703 11.53995-12.13436   0.481
 5.00 1.25 -0.464 -0.464 -0.464 -0.464 -0.464 11.82702 11.78988-11.88434   0.641
 5.00 1.50 -0.464 -0.464 -0.464 -0.464 -0.463 12.07700 12.03981-11.63433   0.855
 5.00 1.75 -0.463 -0.463 -0.463 -0.463 -0.463 12.32702 12.28995-11.38431   1.140
 5.00 2.00 -0.463 -0.463 -0.463 -0.463 -0.463 12.57703 12.54008-11.13430   1.520
 5.00 2.25 -0.463 -0.463 -0.463 -0.463 -0.463 12.82703 12.79017-10.88431   2.027
 5.00 2.50 -0.462 -0.462 -0.462 -0.462 -0.462 13.07701 13.04021-10.63433   2.703
 5.00 2.75 -0.461 -0.461 -0.461 -0.461 -0.461 13.32696 13.29014-10.38428   3.605
 5.00 3.00 -0.459 -0.459 -0.459 -0.459 -0.459 13.57692 13.54008-10.13424   4.807
 5.00 3.20 -0.456 -0.456 -0.456 -0.456 -0.456 13.77695 13.74013 -9.93428   6.051
 5.00 3.40 -0.452 -0.452 -0.452 -0.452 -0.452 13.97699 13.94018 -9.73431   7.618
 5.00 3.60 -0.446 -0.446 -0.446 -0.446 -0.446 14.17700 14.14021 -9.53429   9.590
 5.00 3.80 -0.438 -0.438 -0.438 -0.438 -0.438 14.37697 14.34021 -9.33421  12.072
 5.00 4.00 -0.426 -0.426 -0.426 -0.426 -0.426 14.57692 14.54020 -9.13413  15.197
 5.00 4.20 -0.409 -0.409 -0.409 -0.409 -0.409 14.77681 14.74020 -8.93413  19.129
 5.00 4.40 -0.388 -0.388 -0.388 -0.388 -0.387 14.97670 14.94021 -8.73414  24.080
 5.00 4.60 -0.360 -0.360 -0.360 -0.360 -0.359 15.17665 15.14026 -8.53410  30.311
 5.00 4.80 -0.325 -0.325 -0.325 -0.325 -0.325 15.37667 15.34036 -8.33402  38.155
 5.00 5.00 -0.282 -0.282 -0.282 -0.282 -0.282 15.57669 15.54045 -8.13395  48.029
 5.00 5.20 -0.230 -0.230 -0.230 -0.230 -0.230 15.77668 15.74052 -7.93387  60.454
 5.00 5.40 -0.167 -0.167 -0.167 -0.167 -0.167 15.97666 15.94058 -7.73380  76.092
 5.00 5.60 -0.091 -0.091 -0.091 -0.091 -0.091 16.17659 16.14062 -7.53373  95.775
 5.00 5.80  0.000  0.000  0.000  0.000  0.000 16.37648 16.34066 -7.33366 120.548
 5.00 6.00  0.108  0.108  0.108  0.108  0.108 16.57634 16.54070 -7.13359 151.726
 5.00 6.25  0.269  0.269  0.269  0.269  0.269 16.82613 16.79083 -6.88350 202.253
 5.00 6.50  0.458  0.458  0.458  0.458  0.458 17.07591 17.04100 -6.63339 269.588
 5.00 6.75  0.665  0.665  0.665  0.665  0.665 17.32584 17.29123 -6.38318 359.321
 5.00 7.00  0.884  0.884  0.884  0.884  0.884 17.57577 17.54145 -6.13295 478.873
 5.00 7.25  1.124  1.124  1.124  1.124  1.124 17.82552 17.79162 -5.88271 638.082
 5.00 7.50  1.372  1.372  1.372  1.372  1.372 18.07518 18.04179 -5.63246 850.039
 5.00 7.75  1.622  1.622  1.622  1.623  1.623 18.32477 18.29226 -5.381981132.049
 5.00 8.00  1.877  1.877  1.877  1.877  1.877 18.57426 18.54295 -5.131361507.195
 5.05-2.00 -0.464 -0.464 -0.464 -0.464 -0.464  8.52711  8.48996-15.18442   0.014
 5.05-1.50 -0.464 -0.464 -0.464 -0.464 -0.464  9.02694  8.98994-14.68445   0.024
 5.05-1.00 -0.464 -0.464 -0.464 -0.464 -0.464  9.52711  9.48996-14.18442   0.043
 5.05-0.50 -0.464 -0.464 -0.464 -0.464 -0.464 10.02694  9.98994-13.68445   0.076
 5.05 0.00 -0.464 -0.464 -0.464 -0.464 -0.464 10.52711 10.48996-13.18436   0.136
 5.05 0.50 -0.464 -0.464 -0.464 -0.464 -0.464 11.02694 10.98994-12.68445   0.241
 5.05 1.00 -0.464 -0.464 -0.464 -0.464 -0.464 11.52711 11.48996-12.18436   0.429
 5.05 1.25 -0.464 -0.464 -0.464 -0.464 -0.464 11.77703 11.73997-11.93440   0.572
 5.05 1.50 -0.464 -0.464 -0.464 -0.464 -0.464 12.02694 11.98998-11.68445   0.762
 5.05 1.75 -0.464 -0.464 -0.464 -0.464 -0.463 12.27696 12.24004-11.43440   1.016
 5.05 2.00 -0.463 -0.463 -0.463 -0.463 -0.463 12.52699 12.49010-11.18436   1.355
 5.05 2.25 -0.463 -0.463 -0.463 -0.463 -0.463 12.77696 12.74006-10.93440   1.807
 5.05 2.50 -0.463 -0.463 -0.463 -0.463 -0.463 13.02694 12.99003-10.68445   2.410
 5.05 2.75 -0.462 -0.462 -0.462 -0.462 -0.462 13.27696 13.24006-10.43437   3.214
 5.05 3.00 -0.461 -0.461 -0.461 -0.461 -0.461 13.52699 13.49010-10.18429   4.285
 5.05 3.20 -0.460 -0.460 -0.460 -0.460 -0.460 13.72698 13.69009 -9.98427   5.394
 5.05 3.40 -0.458 -0.458 -0.458 -0.458 -0.457 13.92696 13.89008 -9.78425   6.790
 5.05 3.60 -0.454 -0.454 -0.454 -0.454 -0.454 14.12692 14.09011 -9.58422   8.547
 5.05 3.80 -0.449 -0.449 -0.449 -0.449 -0.449 14.32689 14.29017 -9.38419  10.760
 5.05 4.00 -0.442 -0.442 -0.442 -0.442 -0.442 14.52686 14.49024 -9.18416  13.545
 5.05 4.20 -0.432 -0.432 -0.432 -0.431 -0.431 14.72689 14.69023 -8.98419  17.051
 5.05 4.40 -0.416 -0.416 -0.416 -0.416 -0.416 14.92692 14.89021 -8.78422  21.463
 5.05 4.60 -0.395 -0.395 -0.395 -0.395 -0.395 15.12690 15.09024 -8.58420  27.018
 5.05 4.80 -0.367 -0.367 -0.367 -0.367 -0.367 15.32681 15.29031 -8.38411  34.010
 5.05 5.00 -0.330 -0.330 -0.330 -0.330 -0.330 15.52673 15.49038 -8.18402  42.812
 5.05 5.20 -0.285 -0.285 -0.285 -0.285 -0.285 15.72665 15.69040 -7.98394  53.888
 5.05 5.40 -0.230 -0.230 -0.230 -0.230 -0.230 15.92657 15.89042 -7.78386  67.830
 5.05 5.60 -0.164 -0.164 -0.164 -0.164 -0.164 16.12652 16.09048 -7.58379  85.377
 5.05 5.80 -0.086 -0.086 -0.086 -0.086 -0.085 16.32650 16.29057 -7.38374 107.463
 5.05 6.00  0.007  0.007  0.007  0.007  0.007 16.52647 16.49066 -7.18369 135.261
 5.05 6.25  0.147  0.147  0.147  0.147  0.147 16.77630 16.74077 -6.93365 180.314
 5.05 6.50  0.314  0.314  0.314  0.314  0.314 17.02612 16.99087 -6.68361 240.359
 5.05 6.75  0.507  0.507  0.507  0.507  0.507 17.27604 17.24104 -6.43339 320.388
 5.05 7.00  0.706  0.706  0.706  0.706  0.706 17.52595 17.49122 -6.18316 427.031
 5.05 7.25  0.936  0.936  0.936  0.936  0.936 17.77563 17.74141 -5.93297 569.089
 5.05 7.50  1.179  1.179  1.179  1.179  1.179 18.02530 17.99162 -5.68277 758.295
 5.05 7.75  1.425  1.425  1.425  1.425  1.425 18.27503 18.24195 -5.432421010.232
 5.05 8.00  1.676  1.676  1.676  1.676  1.676 18.52479 18.49234 -5.181971345.652
 5.10-2.00 -0.464 -0.464 -0.464 -0.464 -0.464  8.47712  8.43996-15.23441   0.012
 5.10-1.50 -0.464 -0.464 -0.464 -0.464 -0.464  8.97704  8.93992-14.73448   0.021
 5.10-1.00 -0.464 -0.464 -0.464 -0.464 -0.464  9.47712  9.43996-14.23441   0.038
 5.10-0.50 -0.464 -0.464 -0.464 -0.464 -0.464  9.97704  9.93992-13.73448   0.068
 5.10 0.00 -0.464 -0.464 -0.464 -0.464 -0.464 10.47712 10.43996-13.23441   0.121
 5.10 0.50 -0.464 -0.464 -0.464 -0.464 -0.464 10.97704 10.93997-12.73448   0.215
 5.10 1.00 -0.464 -0.464 -0.464 -0.464 -0.464 11.47712 11.43996-12.23433   0.382
 5.10 1.25 -0.464 -0.464 -0.464 -0.464 -0.464 11.72706 11.68997-11.98440   0.509
 5.10 1.50 -0.464 -0.464 -0.464 -0.464 -0.463 11.97699 11.93997-11.73448   0.679
 5.10 1.75 -0.464 -0.464 -0.464 -0.464 -0.463 12.22698 12.18997-11.48440   0.906
 5.10 2.00 -0.464 -0.464 -0.464 -0.463 -0.463 12.47698 12.43996-11.23433   1.208
 5.10 2.25 -0.463 -0.463 -0.463 -0.463 -0.463 12.72698 12.68998-10.98440   1.611
 5.10 2.50 -0.463 -0.463 -0.463 -0.463 -0.463 12.97699 12.94002-10.73448   2.148
 5.10 2.75 -0.463 -0.463 -0.463 -0.463 -0.463 13.22699 13.19007-10.48437   2.864
 5.10 3.00 -0.462 -0.462 -0.462 -0.462 -0.462 13.47698 13.44012-10.23426   3.819
 5.10 3.20 -0.462 -0.462 -0.462 -0.462 -0.461 13.67695 13.64010-10.03425   4.807
 5.10 3.40 -0.460 -0.460 -0.460 -0.460 -0.460 13.87692 13.84008 -9.83424   6.052
 5.10 3.60 -0.459 -0.459 -0.459 -0.459 -0.459 14.07692 14.04008 -9.63423   7.618
 5.10 3.80 -0.456 -0.456 -0.456 -0.456 -0.456 14.27695 14.24010 -9.43421   9.590
 5.10 4.00 -0.452 -0.452 -0.452 -0.452 -0.452 14.47698 14.44012 -9.23418  12.073
 5.10 4.20 -0.446 -0.446 -0.446 -0.446 -0.446 14.67691 14.64014 -9.03421  15.198
 5.10 4.40 -0.437 -0.437 -0.437 -0.437 -0.437 14.87684 14.84016 -8.83423  19.131
 5.10 4.60 -0.424 -0.424 -0.424 -0.424 -0.423 15.07681 15.04019 -8.63420  24.082
 5.10 4.80 -0.405 -0.405 -0.405 -0.405 -0.404 15.27682 15.24024 -8.43412  30.315
 5.10 5.00 -0.378 -0.378 -0.378 -0.378 -0.378 15.47683 15.44028 -8.23403  38.161
 5.10 5.20 -0.343 -0.343 -0.343 -0.343 -0.342 15.67675 15.64031 -8.03402  48.035
 5.10 5.40 -0.297 -0.297 -0.297 -0.297 -0.297 15.87667 15.84035 -7.83401  60.463
 5.10 5.60 -0.240 -0.240 -0.240 -0.240 -0.240 16.07661 16.04041 -7.63397  76.106
 5.10 5.80 -0.171 -0.171 -0.171 -0.171 -0.171 16.27658 16.24050 -7.43390  95.796
 5.10 6.00 -0.088 -0.088 -0.088 -0.088 -0.088 16.47654 16.44059 -7.23381 120.579
 5.10 6.25  0.035  0.035  0.035  0.035  0.035 16.72642 16.69068 -6.98367 160.744
 5.10 6.50  0.186  0.186  0.186  0.186  0.186 16.97631 16.94077 -6.73353 214.281
 5.10 6.75  0.362  0.362  0.362  0.362  0.362 17.22621 17.19091 -6.48341 285.644
 5.10 7.00  0.554  0.554  0.554  0.554  0.554 17.47611 17.44107 -6.23329 380.758
 5.10 7.25  0.769  0.769  0.769  0.769  0.769 17.72589 17.69123 -5.98307 507.470
 5.10 7.50  1.004  1.004  1.004  1.004  1.004 17.97566 17.94141 -5.73283 676.276
 5.10 7.75  1.246  1.246  1.246  1.246  1.246 18.22545 18.19168 -5.48258 901.136
 5.10 8.00  1.495  1.495  1.495  1.495  1.495 18.47524 18.44201 -5.232331200.631
 5.15-2.00 -0.463 -0.463 -0.463 -0.463 -0.463  8.42716  8.39005-15.28441   0.011
 5.15-1.50 -0.463 -0.463 -0.463 -0.463 -0.463  8.92706  8.88992-14.78436   0.019
 5.15-1.00 -0.463 -0.463 -0.463 -0.463 -0.463  9.42700  9.39005-14.28441   0.034
 5.15-0.50 -0.463 -0.463 -0.463 -0.463 -0.463  9.92706  9.88992-13.78436   0.061
 5.15 0.00 -0.463 -0.463 -0.463 -0.463 -0.463 10.42700 10.39005-13.28442   0.108
 5.15 0.50 -0.463 -0.463 -0.463 -0.463 -0.463 10.92701 10.88992-12.78436   0.191
 5.15 1.00 -0.463 -0.463 -0.463 -0.463 -0.463 11.42700 11.39005-12.28433   0.340
 5.15 1.25 -0.463 -0.463 -0.463 -0.463 -0.463 11.67701 11.64001-12.03435   0.454
 5.15 1.50 -0.463 -0.463 -0.463 -0.463 -0.463 11.92701 11.88997-11.78436   0.605
 5.15 1.75 -0.463 -0.463 -0.463 -0.463 -0.463 12.17701 12.14001-11.53435   0.807
 5.15 2.00 -0.463 -0.463 -0.463 -0.463 -0.463 12.42700 12.39005-11.28433   1.076
 5.15 2.25 -0.463 -0.463 -0.463 -0.463 -0.463 12.67698 12.64001-11.03435   1.435
 5.15 2.50 -0.463 -0.463 -0.463 -0.463 -0.463 12.92696 12.88997-10.78436   1.914
 5.15 2.75 -0.463 -0.463 -0.463 -0.463 -0.463 13.17698 13.14001-10.53435   2.553
 5.15 3.00 -0.463 -0.463 -0.463 -0.463 -0.463 13.42700 13.39005-10.28433   3.404
 5.15 3.20 -0.462 -0.462 -0.462 -0.462 -0.462 13.62696 13.59004-10.08434   4.285
 5.15 3.40 -0.462 -0.462 -0.462 -0.462 -0.462 13.82693 13.79003 -9.88436   5.394
 5.15 3.60 -0.461 -0.461 -0.461 -0.461 -0.461 14.02693 13.99003 -9.68434   6.790
 5.15 3.80 -0.460 -0.460 -0.460 -0.460 -0.459 14.22696 14.19004 -9.48430   8.548
 5.15 4.00 -0.457 -0.457 -0.457 -0.457 -0.457 14.42700 14.39005 -9.28425  10.761
 5.15 4.20 -0.454 -0.454 -0.454 -0.454 -0.454 14.62694 14.59009 -9.08419  13.546
 5.15 4.40 -0.449 -0.449 -0.449 -0.449 -0.449 14.82689 14.79012 -8.88413  17.051
 5.15 4.60 -0.442 -0.442 -0.442 -0.442 -0.442 15.02685 14.99016 -8.68409  21.465
 5.15 4.80 -0.431 -0.431 -0.431 -0.431 -0.431 15.22684 15.19019 -8.48408  27.021
 5.15 5.00 -0.414 -0.414 -0.414 -0.414 -0.414 15.42684 15.39023 -8.28408  34.015
 5.15 5.20 -0.391 -0.391 -0.391 -0.391 -0.391 15.62676 15.59026 -8.08409  42.816
 5.15 5.40 -0.359 -0.359 -0.359 -0.359 -0.358 15.82669 15.79029 -7.88409  53.895
 5.15 5.60 -0.315 -0.315 -0.315 -0.315 -0.315 16.02662 15.99037 -7.68404  67.840
 5.15 5.80 -0.260 -0.260 -0.260 -0.260 -0.260 16.22656 16.19047 -7.48394  85.394
 5.15 6.00 -0.191 -0.191 -0.191 -0.191 -0.190 16.42651 16.39058 -7.28383 107.488
 5.15 6.25 -0.083 -0.083 -0.083 -0.083 -0.083 16.67645 16.64062 -7.03370 143.297
 5.15 6.50  0.050  0.050  0.050  0.050  0.050 16.92639 16.89065 -6.78357 191.030
 5.15 6.75  0.209  0.209  0.209  0.209  0.209 17.17631 17.14079 -6.53349 254.662
 5.15 7.00  0.394  0.394  0.394  0.394  0.394 17.42619 17.39094 -6.28341 339.478
 5.15 7.25  0.588  0.588  0.588  0.588  0.588 17.67602 17.64109 -6.03325 452.483
 5.15 7.50  0.815  0.815  0.815  0.816  0.816 17.92583 17.89126 -5.78304 603.053
 5.15 7.75  1.053  1.053  1.053  1.053  1.053 18.17561 18.14151 -5.53282 803.665
 5.15 8.00  1.300  1.300  1.300  1.300  1.300 18.42537 18.39182 -5.282581070.927
 5.20-2.00 -0.463 -0.463 -0.463 -0.463 -0.463  8.37712  8.34005-15.33442   0.010
 5.20-1.50 -0.463 -0.463 -0.463 -0.463 -0.463  8.87703  8.83992-14.83446   0.017
 5.20-1.00 -0.463 -0.463 -0.463 -0.463 -0.463  9.37712  9.34005-14.33442   0.030
 5.20-0.50 -0.463 -0.463 -0.463 -0.463 -0.463  9.87703  9.83992-13.83446   0.054
 5.20 0.00 -0.463 -0.463 -0.463 -0.463 -0.463 10.37712 10.34005-13.33442   0.096
 5.20 0.50 -0.463 -0.463 -0.463 -0.463 -0.463 10.87703 10.83992-12.83446   0.171
 5.20 1.00 -0.463 -0.463 -0.463 -0.463 -0.463 11.37712 11.34005-12.33442   0.303
 5.20 1.25 -0.463 -0.463 -0.463 -0.463 -0.463 11.62708 11.59001-12.08444   0.404
 5.20 1.50 -0.463 -0.463 -0.463 -0.463 -0.463 11.87703 11.83998-11.83446   0.540
 5.20 1.75 -0.463 -0.463 -0.463 -0.463 -0.463 12.12708 12.09001-11.58439   0.720
 5.20 2.00 -0.463 -0.463 -0.463 -0.463 -0.463 12.37712 12.34005-11.33432   0.959
 5.20 2.25 -0.463 -0.463 -0.463 -0.463 -0.463 12.62705 12.59001-11.08439   1.279
 5.20 2.50 -0.463 -0.463 -0.463 -0.463 -0.463 12.87697 12.83998-10.83446   1.706
 5.20 2.75 -0.463 -0.463 -0.463 -0.463 -0.463 13.12695 13.09001-10.58439   2.275
 5.20 3.00 -0.463 -0.463 -0.463 -0.463 -0.463 13.37694 13.34005-10.33433   3.034
 5.20 3.20 -0.463 -0.463 -0.463 -0.463 -0.463 13.57695 13.54005-10.13438   3.819
 5.20 3.40 -0.462 -0.462 -0.462 -0.462 -0.462 13.77696 13.74004 -9.93443   4.808
 5.20 3.60 -0.462 -0.462 -0.462 -0.462 -0.462 13.97697 13.94004 -9.73441   6.052
 5.20 3.80 -0.461 -0.461 -0.461 -0.461 -0.461 14.17696 14.14005 -9.53432   7.619
 5.20 4.00 -0.460 -0.460 -0.460 -0.460 -0.460 14.37694 14.34005 -9.33423   9.591
 5.20 4.20 -0.459 -0.458 -0.458 -0.458 -0.458 14.57691 14.54006 -9.13420  12.073
 5.20 4.40 -0.456 -0.456 -0.456 -0.456 -0.456 14.77687 14.74009 -8.93417  15.198
 5.20 4.60 -0.452 -0.452 -0.452 -0.452 -0.452 14.97683 14.94014 -8.73415  19.132
 5.20 4.80 -0.446 -0.446 -0.446 -0.446 -0.446 15.17680 15.14019 -8.53414  24.085
 5.20 5.00 -0.437 -0.437 -0.437 -0.437 -0.437 15.37676 15.34025 -8.33414  30.319
 5.20 5.20 -0.423 -0.423 -0.423 -0.423 -0.423 15.57675 15.54027 -8.13415  38.164
 5.20 5.40 -0.403 -0.403 -0.403 -0.403 -0.403 15.77674 15.74028 -7.93416  48.040
 5.20 5.60 -0.375 -0.375 -0.375 -0.375 -0.375 15.97670 15.94032 -7.73412  60.471
 5.20 5.80 -0.336 -0.336 -0.336 -0.336 -0.336 16.17664 16.14038 -7.53404  76.119
 5.20 6.00 -0.285 -0.285 -0.285 -0.285 -0.285 16.37658 16.34044 -7.33395  95.816
 5.20 6.25 -0.201 -0.201 -0.201 -0.201 -0.201 16.62651 16.59052 -7.08391 127.741
 5.20 6.50 -0.091 -0.091 -0.091 -0.091 -0.091 16.87645 16.84061 -6.83387 170.297
 5.20 6.75  0.045  0.045  0.045  0.045  0.045 17.12633 17.09072 -6.58367 227.029
 5.20 7.00  0.209  0.209  0.209  0.209  0.209 17.37621 17.34084 -6.33348 302.651
 5.20 7.25  0.384  0.384  0.384  0.384  0.385 17.62610 17.59097 -6.08338 403.424
 5.20 7.50  0.598  0.598  0.598  0.598  0.598 17.87599 17.84111 -5.83327 537.714
 5.20 7.75  0.827  0.827  0.827  0.827  0.827 18.12584 18.09134 -5.58308 716.658
 5.20 8.00  1.069  1.069  1.069  1.069  1.069 18.37566 18.34163 -5.33283 955.086
 5.25-2.00 -0.463 -0.463 -0.463 -0.463 -0.463  8.32716  8.29004-15.38437   0.009
 5.25-1.50 -0.463 -0.463 -0.463 -0.463 -0.463  8.82705  8.78993-14.88439   0.015
 5.25-1.00 -0.463 -0.463 -0.463 -0.463 -0.463  9.32715  9.29004-14.38437   0.027
 5.25-0.50 -0.463 -0.463 -0.463 -0.463 -0.463  9.82705  9.78993-13.88439   0.048
 5.25 0.00 -0.463 -0.463 -0.463 -0.463 -0.463 10.32716 10.29003-13.38437   0.086
 5.25 0.50 -0.463 -0.463 -0.463 -0.463 -0.463 10.82705 10.78993-12.88439   0.152
 5.25 1.00 -0.463 -0.463 -0.463 -0.463 -0.463 11.32716 11.29004-12.38437   0.270
 5.25 1.25 -0.463 -0.463 -0.463 -0.463 -0.463 11.57710 11.53998-12.13438   0.360
 5.25 1.50 -0.463 -0.463 -0.463 -0.463 -0.463 11.82705 11.78993-11.88439   0.481
 5.25 1.75 -0.463 -0.463 -0.463 -0.463 -0.463 12.07700 12.03998-11.63438   0.641
 5.25 2.00 -0.463 -0.463 -0.463 -0.463 -0.463 12.32695 12.29004-11.38437   0.855
 5.25 2.25 -0.463 -0.463 -0.463 -0.463 -0.463 12.57697 12.54002-11.13438   1.140
 5.25 2.50 -0.463 -0.463 -0.463 -0.463 -0.463 12.82698 12.79000-10.88439   1.520
 5.25 2.75 -0.463 -0.463 -0.463 -0.463 -0.463 13.07697 13.04002-10.63438   2.027
 5.25 3.00 -0.463 -0.463 -0.463 -0.463 -0.463 13.32695 13.29003-10.38437   2.704
 5.25 3.20 -0.463 -0.463 -0.463 -0.463 -0.463 13.52696 13.49002-10.18438   3.404
 5.25 3.40 -0.463 -0.463 -0.463 -0.463 -0.463 13.72698 13.69001 -9.98439   4.285
 5.25 3.60 -0.462 -0.462 -0.462 -0.462 -0.462 13.92698 13.89001 -9.78436   5.394
 5.25 3.80 -0.462 -0.462 -0.462 -0.462 -0.462 14.12697 14.09002 -9.58431   6.790
 5.25 4.00 -0.461 -0.461 -0.461 -0.461 -0.461 14.32695 14.29004 -9.38426   8.548
 5.25 4.20 -0.461 -0.461 -0.461 -0.461 -0.460 14.52691 14.49005 -9.18431  10.761
 5.25 4.40 -0.459 -0.459 -0.459 -0.459 -0.459 14.72687 14.69007 -8.98436  13.546
 5.25 4.60 -0.457 -0.457 -0.457 -0.457 -0.457 14.92687 14.89011 -8.78434  17.053
 5.25 4.80 -0.454 -0.454 -0.454 -0.454 -0.454 15.12691 15.09018 -8.58425  21.467
 5.25 5.00 -0.449 -0.449 -0.449 -0.449 -0.449 15.32695 15.29026 -8.38416  27.024
 5.25 5.20 -0.442 -0.441 -0.441 -0.441 -0.441 15.52686 15.49027 -8.18412  34.018
 5.25 5.40 -0.430 -0.430 -0.430 -0.430 -0.430 15.72677 15.69028 -7.98408  42.821
 5.25 5.60 -0.414 -0.414 -0.414 -0.414 -0.414 15.92673 15.89032 -7.78404  53.902
 5.25 5.80 -0.390 -0.390 -0.390 -0.390 -0.390 16.12674 16.09040 -7.58399  67.851
 5.25 6.00 -0.357 -0.357 -0.357 -0.357 -0.357 16.32675 16.29048 -7.38395  85.409
 5.25 6.25 -0.299 -0.299 -0.299 -0.299 -0.299 16.57664 16.54049 -7.13383 113.869
 5.25 6.50 -0.218 -0.218 -0.218 -0.218 -0.218 16.82653 16.79050 -6.88372 151.809
 5.25 6.75 -0.112 -0.112 -0.112 -0.112 -0.112 17.07643 17.04059 -6.63368 202.389
 5.25 7.00  0.021  0.021  0.021  0.021  0.021 17.32634 17.29070 -6.38363 269.815
 5.25 7.25  0.179  0.179  0.179  0.179  0.179 17.57622 17.54083 -6.13353 359.672
 5.25 7.50  0.357  0.357  0.357  0.357  0.357 17.82607 17.79099 -5.88339 479.424
 5.25 7.75  0.567  0.567  0.567  0.567  0.567 18.07591 18.04117 -5.63322 639.015
 5.25 8.00  0.794  0.794  0.794  0.794  0.794 18.32572 18.29137 -5.38300 851.682
 5.30-2.00 -0.463 -0.463 -0.463 -0.463 -0.463  8.27715  8.24005-15.43439   0.008
 5.30-1.50 -0.463 -0.463 -0.463 -0.463 -0.463  8.77706  8.73997-14.93442   0.014
 5.30-1.00 -0.463 -0.463 -0.463 -0.463 -0.463  9.27715  9.24005-14.43439   0.024
 5.30-0.50 -0.463 -0.463 -0.463 -0.463 -0.463  9.77706  9.73997-13.93442   0.043
 5.30 0.00 -0.463 -0.463 -0.463 -0.463 -0.463 10.27715 10.24005-13.43439   0.076
 5.30 0.50 -0.463 -0.463 -0.463 -0.463 -0.463 10.77706 10.73997-12.93442   0.136
 5.30 1.00 -0.463 -0.463 -0.463 -0.463 -0.463 11.27715 11.24005-12.43439   0.241
 5.30 1.25 -0.463 -0.463 -0.463 -0.463 -0.463 11.52707 11.49001-12.18440   0.322
 5.30 1.50 -0.463 -0.463 -0.463 -0.463 -0.463 11.77699 11.73997-11.93442   0.429
 5.30 1.75 -0.463 -0.463 -0.463 -0.463 -0.463 12.02707 11.99001-11.68440   0.572
 5.30 2.00 -0.463 -0.463 -0.463 -0.463 -0.463 12.27715 12.24005-11.43439   0.762
 5.30 2.25 -0.463 -0.463 -0.463 -0.463 -0.463 12.52707 12.49001-11.18440   1.016
 5.30 2.50 -0.463 -0.463 -0.463 -0.463 -0.463 12.77699 12.73997-10.93442   1.355
 5.30 2.75 -0.463 -0.463 -0.463 -0.463 -0.463 13.02694 12.99001-10.68441   1.807
 5.30 3.00 -0.463 -0.463 -0.463 -0.463 -0.463 13.27692 13.24005-10.43439   2.410
 5.30 3.20 -0.463 -0.463 -0.463 -0.463 -0.463 13.47695 13.44005-10.23440   3.034
 5.30 3.40 -0.463 -0.463 -0.463 -0.463 -0.463 13.67698 13.64005-10.03441   3.819
 5.30 3.60 -0.463 -0.463 -0.463 -0.463 -0.462 13.87698 13.84005 -9.83439   4.808
 5.30 3.80 -0.462 -0.462 -0.462 -0.462 -0.462 14.07695 14.04005 -9.63433   6.052
 5.30 4.00 -0.462 -0.462 -0.462 -0.462 -0.462 14.27692 14.24005 -9.43427   7.619
 5.30 4.20 -0.462 -0.462 -0.462 -0.462 -0.461 14.47692 14.44007 -9.23433   9.591
 5.30 4.40 -0.461 -0.461 -0.461 -0.461 -0.461 14.67692 14.64011 -9.03439  12.074
 5.30 4.60 -0.460 -0.460 -0.460 -0.460 -0.460 14.87692 14.84016 -8.83437  15.200
 5.30 4.80 -0.458 -0.458 -0.458 -0.458 -0.458 15.07692 15.04023 -8.63426  19.134
 5.30 5.00 -0.455 -0.455 -0.455 -0.455 -0.455 15.27692 15.24030 -8.43415  24.087
 5.30 5.20 -0.451 -0.451 -0.451 -0.451 -0.451 15.47686 15.44026 -8.23410  30.321
 5.30 5.40 -0.445 -0.445 -0.445 -0.445 -0.445 15.67680 15.64022 -8.03406  38.168
 5.30 5.60 -0.436 -0.436 -0.436 -0.436 -0.436 15.87676 15.84022 -7.83404  48.046
 5.30 5.80 -0.423 -0.423 -0.423 -0.423 -0.422 16.07673 16.04025 -7.63403  60.480
 5.30 6.00 -0.403 -0.403 -0.403 -0.403 -0.403 16.27669 16.24030 -7.43403  76.132
 5.30 6.25 -0.366 -0.366 -0.366 -0.366 -0.366 16.52662 16.49037 -7.18404 101.503
 5.30 6.50 -0.313 -0.313 -0.313 -0.313 -0.313 16.77656 16.74044 -6.93405 135.326
 5.30 6.75 -0.238 -0.238 -0.238 -0.238 -0.238 17.02651 16.99050 -6.68386 180.419
 5.30 7.00 -0.139 -0.139 -0.139 -0.139 -0.139 17.27646 17.24055 -6.43368 240.534
 5.30 7.25 -0.014 -0.014 -0.014 -0.014 -0.013 17.52633 17.49067 -6.18368 320.645
 5.30 7.50  0.128  0.128  0.128  0.128  0.128 17.77619 17.74084 -5.93367 427.421
 5.30 7.75  0.306  0.306  0.306  0.306  0.306 18.02609 17.99105 -5.68350 569.738
 5.30 8.00  0.507  0.507  0.507  0.507  0.507 18.27600 18.24130 -5.43321 759.420
