 ROSSELAND MASS ABSORPTION COEFFICIENTS [-5.0]
 logT logP  0km/s  1km/s  2km/s  4km/s  8km/s  log Ne   log Na  log rho IPloCM-1
 3.32-2.00 -6.887 -6.886 -6.883 -6.879 -6.872  1.42619 10.54033-13.13395   0.001
 3.32-1.50 -6.894 -6.893 -6.890 -6.886 -6.879  1.82763 11.04139-12.63302   0.001
 3.32-1.00 -6.885 -6.883 -6.881 -6.876 -6.869  2.20112 11.54419-12.13024   0.001
 3.32-0.50 -6.855 -6.853 -6.851 -6.845 -6.838  2.55291 12.05231-11.62197   0.001
 3.32 0.00 -6.815 -6.813 -6.810 -6.805 -6.796  2.89905 12.57380-11.10062   0.001
 3.32 0.50 -6.786 -6.784 -6.781 -6.774 -6.765  3.26293 13.11494-10.55956   0.001
 3.32 1.00 -6.770 -6.768 -6.764 -6.757 -6.746  3.66633 13.66829-10.00603   0.001
 3.32 1.25 -6.762 -6.760 -6.756 -6.749 -6.738  3.88689 13.94330 -9.73096   0.001
 3.32 1.50 -6.752 -6.749 -6.746 -6.738 -6.727  4.11594 14.21643 -9.45780   0.001
 3.32 1.75 -6.737 -6.735 -6.731 -6.724 -6.712  4.35417 14.48542 -9.18895   0.001
 3.32 2.00 -6.719 -6.717 -6.713 -6.706 -6.694  4.59240 14.75113 -8.92336   0.001
 3.32 2.25 -6.696 -6.695 -6.691 -6.684 -6.673  4.82826 15.01336 -8.66105   0.001
 3.32 2.50 -6.670 -6.668 -6.665 -6.658 -6.647  5.06108 15.27300 -8.40132   0.002
 3.32 2.75 -6.639 -6.638 -6.635 -6.629 -6.619  5.28481 15.53044 -8.14382   0.002
 3.32 3.00 -6.605 -6.604 -6.601 -6.596 -6.587  5.50188 15.78618 -7.88807   0.003
 3.32 3.20 -6.575 -6.574 -6.572 -6.567 -6.558  5.67009 15.98972 -7.68460   0.004
 3.32 3.40 -6.542 -6.541 -6.540 -6.536 -6.528  5.83552 16.19260 -7.48177   0.005
 3.32 3.60 -6.509 -6.509 -6.507 -6.503 -6.497  5.99762 16.39489 -7.27951   0.006
 3.32 3.80 -6.476 -6.475 -6.474 -6.471 -6.464  6.15846 16.59677 -7.07764   0.007
 3.32 4.00 -6.441 -6.440 -6.439 -6.435 -6.429  6.31931 16.79824 -6.87615   0.008
 3.32 4.20 -6.406 -6.405 -6.404 -6.400 -6.394  6.48021 16.99933 -6.67499   0.009
 3.32 4.40 -6.369 -6.368 -6.367 -6.363 -6.356  6.64120 17.20022 -6.47405   0.011
 3.32 4.60 -6.330 -6.330 -6.328 -6.325 -6.318  6.80364 17.40096 -6.27331   0.013
 3.32 4.80 -6.291 -6.290 -6.289 -6.285 -6.278  6.96747 17.60159 -6.07271   0.016
 3.32 5.00 -6.251 -6.250 -6.249 -6.245 -6.238  7.13130 17.80209 -5.87225   0.019
 3.32 5.20 -6.210 -6.210 -6.208 -6.205 -6.198  7.29315 18.00238 -5.67192   0.023
 3.32 5.40 -6.169 -6.169 -6.167 -6.164 -6.158  7.45269 18.20264 -5.47163   0.027
 3.32 5.60 -6.127 -6.127 -6.125 -6.122 -6.116  7.60789 18.40289 -5.27138   0.033
 3.32 5.80 -6.082 -6.082 -6.081 -6.078 -6.072  7.75653 18.60312 -5.07115   0.039
 3.32 6.00 -6.033 -6.033 -6.032 -6.029 -6.024  7.89993 18.80332 -4.87096   0.046
 3.32 6.25 -5.962 -5.962 -5.960 -5.958 -5.953  8.07041 19.05350 -4.62087   0.056
 3.32 6.50 -5.876 -5.876 -5.875 -5.872 -5.868  8.23477 19.30363 -4.37080   0.068
 3.32 6.75 -5.772 -5.771 -5.770 -5.768 -5.765  8.39325 19.55368 -4.12071   0.082
 3.32 7.00 -5.677 -5.677 -5.676 -5.674 -5.671  8.55035 19.80373 -3.87063   0.098
 3.32 7.25 -5.593 -5.592 -5.591 -5.590 -5.587  8.70654 20.05379 -3.62060   0.118
 3.32 7.50 -5.502 -5.502 -5.501 -5.500 -5.498  8.86273 20.30384 -3.37059   0.141
 3.32 7.75 -5.407 -5.407 -5.407 -5.406 -5.404  9.02187 20.55387 -3.12060   0.169
 3.32 8.00 -5.310 -5.310 -5.310 -5.309 -5.308  9.18299 20.80387 -2.87063   0.203
 3.34-2.00 -6.793 -6.791 -6.788 -6.783 -6.775  1.52634 10.51996-13.15441   0.001
 3.34-1.50 -6.788 -6.786 -6.783 -6.778 -6.770  1.96960 11.02036-12.65404   0.001
 3.34-1.00 -6.766 -6.765 -6.762 -6.756 -6.748  2.39182 11.52114-12.15323   0.001
 3.34-0.50 -6.726 -6.724 -6.720 -6.714 -6.705  2.78767 12.02366-11.65053   0.001
 3.34 0.00 -6.678 -6.675 -6.672 -6.665 -6.654  3.15746 12.53199-11.14237   0.001
 3.34 0.50 -6.642 -6.640 -6.636 -6.628 -6.616  3.51215 13.05269-10.62160   0.001
 3.34 1.00 -6.625 -6.622 -6.618 -6.609 -6.597  3.86929 13.59329-10.08103   0.001
 3.34 1.25 -6.620 -6.618 -6.613 -6.604 -6.591  4.05482 13.87002 -9.80435   0.001
 3.34 1.50 -6.615 -6.612 -6.608 -6.599 -6.585  4.24674 14.14675 -9.52768   0.001
 3.34 1.75 -6.606 -6.604 -6.599 -6.590 -6.577  4.44833 14.42190 -9.25256   0.001
 3.34 2.00 -6.593 -6.591 -6.586 -6.578 -6.564  4.65877 14.69522 -8.97922   0.001
 3.34 2.25 -6.573 -6.571 -6.567 -6.559 -6.545  4.88052 14.96434 -8.71007   0.001
 3.34 2.50 -6.547 -6.545 -6.542 -6.534 -6.521  5.10721 15.23019 -8.44418   0.002
 3.34 2.75 -6.515 -6.514 -6.510 -6.503 -6.491  5.33823 15.49267 -8.18173   0.002
 3.34 3.00 -6.479 -6.478 -6.475 -6.468 -6.457  5.56926 15.75251 -7.92191   0.003
 3.34 3.20 -6.447 -6.446 -6.443 -6.438 -6.428  5.75002 15.95863 -7.71578   0.004
 3.34 3.40 -6.414 -6.413 -6.411 -6.406 -6.397  5.92769 16.16366 -7.51073   0.005
 3.34 3.60 -6.382 -6.381 -6.379 -6.375 -6.367  6.10130 16.36765 -7.30666   0.005
 3.34 3.80 -6.351 -6.350 -6.348 -6.344 -6.337  6.27074 16.57094 -7.10331   0.007
 3.34 4.00 -6.319 -6.319 -6.317 -6.313 -6.306  6.43696 16.77357 -6.90066   0.008
 3.34 4.20 -6.290 -6.290 -6.288 -6.284 -6.277  6.59975 16.97567 -6.69870   0.010
 3.34 4.40 -6.261 -6.260 -6.258 -6.255 -6.248  6.76117 17.17737 -6.49709   0.012
 3.34 4.60 -6.231 -6.230 -6.228 -6.225 -6.218  6.92110 17.37867 -6.29579   0.014
 3.34 4.80 -6.200 -6.199 -6.198 -6.194 -6.187  7.08057 17.57972 -6.09469   0.017
 3.34 5.00 -6.169 -6.168 -6.167 -6.163 -6.156  7.24005 17.78053 -5.89381   0.021
 3.34 5.20 -6.137 -6.137 -6.135 -6.132 -6.125  7.40117 17.98119 -5.69319   0.025
 3.34 5.40 -6.105 -6.104 -6.103 -6.100 -6.093  7.56230 18.18172 -5.49267   0.031
 3.34 5.60 -6.071 -6.071 -6.070 -6.066 -6.061  7.72322 18.38215 -5.29220   0.037
 3.34 5.80 -6.037 -6.036 -6.035 -6.032 -6.026  7.88319 18.58250 -5.09178   0.044
 3.34 6.00 -6.001 -6.000 -5.999 -5.996 -5.991  8.04218 18.78276 -4.89144   0.053
 3.34 6.25 -5.954 -5.953 -5.952 -5.949 -5.944  8.23242 19.03292 -4.64129   0.066
 3.34 6.50 -5.904 -5.904 -5.903 -5.900 -5.896  8.41531 19.28308 -4.39115   0.082
 3.34 6.75 -5.854 -5.853 -5.852 -5.850 -5.845  8.58852 19.53328 -4.14096   0.100
 3.34 7.00 -5.801 -5.801 -5.800 -5.797 -5.793  8.75496 19.78348 -3.89076   0.121
 3.34 7.25 -5.747 -5.747 -5.746 -5.744 -5.740  8.91473 20.03350 -3.64080   0.146
 3.34 7.50 -5.691 -5.691 -5.690 -5.688 -5.684  9.07188 20.28353 -3.39083   0.175
 3.34 7.75 -5.633 -5.632 -5.631 -5.630 -5.627  9.22780 20.53359 -3.14081   0.209
 3.34 8.00 -5.571 -5.571 -5.570 -5.569 -5.566  9.38202 20.78369 -2.89076   0.250
 3.36-2.00 -6.721 -6.719 -6.716 -6.710 -6.702  1.55823 10.49996-13.17444   0.001
 3.36-1.50 -6.706 -6.704 -6.701 -6.695 -6.686  2.03623 10.99996-12.67448   0.001
 3.36-1.00 -6.676 -6.674 -6.671 -6.664 -6.655  2.49554 11.50024-12.17406   0.001
 3.36-0.50 -6.628 -6.626 -6.622 -6.615 -6.605  2.93323 12.00130-11.67325   0.001
 3.36 0.00 -6.574 -6.572 -6.568 -6.559 -6.548  3.34889 12.50406-11.17031   0.001
 3.36 0.50 -6.528 -6.525 -6.520 -6.511 -6.498  3.73878 13.01242-10.66214   0.001
 3.36 1.00 -6.488 -6.485 -6.480 -6.470 -6.455  4.10823 13.53339-10.14092   0.001
 3.36 1.25 -6.471 -6.468 -6.463 -6.453 -6.437  4.28895 13.80201 -9.87237   0.001
 3.36 1.50 -6.457 -6.454 -6.449 -6.438 -6.422  4.46967 14.07445 -9.59998   0.001
 3.36 1.75 -6.445 -6.442 -6.436 -6.426 -6.409  4.65177 14.35116 -9.32323   0.001
 3.36 2.00 -6.432 -6.429 -6.424 -6.414 -6.397  4.83569 14.62788 -9.04648   0.001
 3.36 2.25 -6.417 -6.415 -6.410 -6.400 -6.383  5.02486 14.90292 -8.77142   0.001
 3.36 2.50 -6.399 -6.396 -6.392 -6.382 -6.367  5.21985 15.17609 -8.49826   0.002
 3.36 2.75 -6.374 -6.372 -6.368 -6.360 -6.345  5.42441 15.44513 -8.22917   0.002
 3.36 3.00 -6.344 -6.342 -6.339 -6.332 -6.319  5.63639 15.71088 -7.96337   0.003
 3.36 3.20 -6.316 -6.314 -6.312 -6.305 -6.294  5.81382 15.92086 -7.75338   0.004
 3.36 3.40 -6.285 -6.284 -6.282 -6.276 -6.266  5.99141 16.12919 -7.54506   0.004
 3.36 3.60 -6.255 -6.254 -6.252 -6.247 -6.239  6.16914 16.33597 -7.33840   0.006
 3.36 3.80 -6.226 -6.225 -6.223 -6.219 -6.211  6.34690 16.54158 -7.13292   0.007
 3.36 4.00 -6.197 -6.196 -6.195 -6.191 -6.183  6.52466 16.74609 -6.92849   0.009
 3.36 4.20 -6.171 -6.171 -6.169 -6.165 -6.158  6.69688 16.94956 -6.72488   0.011
 3.36 4.40 -6.146 -6.145 -6.144 -6.140 -6.133  6.86610 17.15240 -6.52191   0.014
 3.36 4.60 -6.121 -6.120 -6.119 -6.115 -6.108  7.03194 17.35467 -6.31956   0.017
 3.36 4.80 -6.095 -6.095 -6.093 -6.090 -6.083  7.19517 17.55657 -6.11764   0.020
 3.36 5.00 -6.069 -6.069 -6.067 -6.064 -6.057  7.35641 17.75808 -5.91614   0.024
 3.36 5.20 -6.042 -6.042 -6.041 -6.037 -6.031  7.51537 17.95923 -5.71504   0.029
 3.36 5.40 -6.014 -6.014 -6.012 -6.009 -6.003  7.67433 18.16016 -5.51413   0.034
 3.36 5.60 -5.984 -5.984 -5.982 -5.979 -5.974  7.83332 18.36091 -5.31337   0.041
 3.36 5.80 -5.952 -5.951 -5.950 -5.947 -5.942  7.99235 18.56153 -5.11272   0.049
 3.36 6.00 -5.916 -5.915 -5.914 -5.911 -5.906  8.15137 18.76200 -4.91222   0.059
 3.36 6.25 -5.867 -5.866 -5.865 -5.863 -5.858  8.34964 19.01237 -4.66189   0.074
 3.36 6.50 -5.813 -5.813 -5.812 -5.809 -5.805  8.54704 19.26269 -4.41162   0.093
 3.36 6.75 -5.756 -5.755 -5.754 -5.752 -5.748  8.73766 19.51300 -4.16136   0.116
 3.36 7.00 -5.696 -5.696 -5.695 -5.693 -5.689  8.92195 19.76328 -3.91116   0.144
 3.36 7.25 -5.635 -5.635 -5.634 -5.632 -5.629  9.09663 20.01334 -3.66104   0.176
 3.36 7.50 -5.574 -5.573 -5.573 -5.571 -5.568  9.26435 20.26340 -3.41094   0.213
 3.36 7.75 -5.511 -5.511 -5.510 -5.509 -5.506  9.42637 20.51351 -3.16086   0.257
 3.36 8.00 -5.447 -5.446 -5.446 -5.445 -5.443  9.58229 20.76365 -2.91080   0.307
 3.38-2.00 -6.644 -6.642 -6.639 -6.633 -6.625  1.60617 10.47986-13.19450   0.001
 3.38-1.50 -6.637 -6.635 -6.632 -6.625 -6.616  2.06371 10.97987-12.69443   0.001
 3.38-1.00 -6.604 -6.602 -6.598 -6.592 -6.582  2.53857 11.48001-12.19436   0.001
 3.38-0.50 -6.551 -6.549 -6.545 -6.537 -6.526  3.00860 11.98028-11.69400   0.001
 3.38 0.00 -6.493 -6.491 -6.486 -6.477 -6.464  3.46000 12.48130-11.19308   0.001
 3.38 0.50 -6.436 -6.433 -6.428 -6.418 -6.403  3.89076 12.98430-10.69016   0.001
 3.38 1.00 -6.373 -6.370 -6.364 -6.352 -6.335  4.29973 13.49318-10.18125   0.001
 3.38 1.25 -6.341 -6.337 -6.331 -6.319 -6.301  4.49553 13.75227 -9.92211   0.001
 3.38 1.50 -6.310 -6.307 -6.301 -6.288 -6.269  4.68690 14.01536 -9.65896   0.001
 3.38 1.75 -6.283 -6.280 -6.273 -6.261 -6.241  4.87432 14.28468 -9.38965   0.001
 3.38 2.00 -6.261 -6.257 -6.251 -6.238 -6.219  5.05919 14.55763 -9.11674   0.002
 3.38 2.25 -6.241 -6.238 -6.232 -6.220 -6.201  5.24146 14.83445 -8.83997   0.003
 3.38 2.50 -6.223 -6.221 -6.215 -6.204 -6.186  5.42374 15.11126 -8.56320   0.003
 3.38 2.75 -6.204 -6.202 -6.198 -6.188 -6.171  5.60683 15.38608 -8.28835   0.003
 3.38 3.00 -6.184 -6.182 -6.178 -6.170 -6.155  5.79120 15.65877 -8.01556   0.004
 3.38 3.20 -6.164 -6.163 -6.160 -6.153 -6.140  5.94355 15.87386 -7.80052   0.005
 3.38 3.40 -6.143 -6.142 -6.140 -6.134 -6.123  6.09989 16.08685 -7.58757   0.005
 3.38 3.60 -6.122 -6.121 -6.119 -6.114 -6.105  6.26179 16.29765 -7.37682   0.007
 3.38 3.80 -6.101 -6.100 -6.098 -6.094 -6.086  6.42867 16.50660 -7.16790   0.008
 3.38 4.00 -6.078 -6.078 -6.076 -6.072 -6.065  6.59879 16.71391 -6.96059   0.010
 3.38 4.20 -6.058 -6.058 -6.056 -6.052 -6.045  6.77248 16.91977 -6.75462   0.012
 3.38 4.40 -6.037 -6.037 -6.035 -6.032 -6.025  6.94618 17.12458 -6.54974   0.015
 3.38 4.60 -6.016 -6.015 -6.013 -6.010 -6.003  7.11891 17.32842 -6.34594   0.018
 3.38 4.80 -5.993 -5.992 -5.991 -5.988 -5.981  7.28923 17.53157 -6.14289   0.021
 3.38 5.00 -5.970 -5.969 -5.968 -5.964 -5.958  7.45758 17.73408 -5.94044   0.026
 3.38 5.20 -5.945 -5.944 -5.943 -5.940 -5.934  7.62229 17.93605 -5.73840   0.032
 3.38 5.40 -5.918 -5.918 -5.917 -5.914 -5.908  7.78492 18.13764 -5.53673   0.038
 3.38 5.60 -5.890 -5.889 -5.888 -5.885 -5.880  7.94534 18.33888 -5.33546   0.046
 3.38 5.80 -5.858 -5.858 -5.857 -5.854 -5.849  8.10445 18.53988 -5.13445   0.055
 3.38 6.00 -5.824 -5.823 -5.822 -5.819 -5.815  8.26269 18.74068 -4.93367   0.066
 3.38 6.25 -5.776 -5.776 -5.775 -5.772 -5.767  8.45984 18.99146 -4.68297   0.082
 3.38 6.50 -5.723 -5.722 -5.721 -5.719 -5.715  8.65629 19.24205 -4.43239   0.103
 3.38 6.75 -5.664 -5.664 -5.663 -5.660 -5.656  8.85247 19.49247 -4.18186   0.129
 3.38 7.00 -5.600 -5.600 -5.599 -5.597 -5.594  9.04766 19.74280 -3.93144   0.162
 3.38 7.25 -5.533 -5.533 -5.532 -5.530 -5.528  9.23749 19.99308 -3.68127   0.202
 3.38 7.50 -5.464 -5.464 -5.463 -5.462 -5.459  9.42177 20.24329 -3.43109   0.250
 3.38 7.75 -5.394 -5.393 -5.393 -5.392 -5.390  9.59721 20.49343 -3.18090   0.306
 3.38 8.00 -5.322 -5.322 -5.321 -5.320 -5.319  9.76492 20.74351 -2.93070   0.371
 3.40-2.00 -6.491 -6.489 -6.486 -6.481 -6.473  1.92412 10.45984-13.21446   0.001
 3.40-1.50 -6.522 -6.520 -6.517 -6.510 -6.501  2.25575 10.95985-12.71444   0.001
 3.40-1.00 -6.519 -6.517 -6.514 -6.506 -6.496  2.63518 11.46000-12.21446   0.001
 3.40-0.50 -6.481 -6.478 -6.474 -6.465 -6.454  3.06371 11.96000-11.71444   0.001
 3.40 0.00 -6.424 -6.421 -6.416 -6.406 -6.393  3.52035 12.46045-11.21396   0.001
 3.40 0.50 -6.361 -6.357 -6.352 -6.340 -6.324  3.97750 12.96147-10.71287   0.001
 3.40 1.00 -6.283 -6.279 -6.272 -6.260 -6.241  4.41946 13.46494-10.20950   0.001
 3.40 1.25 -6.239 -6.235 -6.228 -6.215 -6.194  4.63385 13.71868 -9.95577   0.001
 3.40 1.50 -6.195 -6.191 -6.184 -6.170 -6.148  4.84367 13.97460 -9.69984   0.001
 3.40 1.75 -6.153 -6.149 -6.142 -6.128 -6.106  5.04866 14.23463 -9.43976   0.001
 3.40 2.00 -6.115 -6.112 -6.105 -6.091 -6.069  5.24895 14.49886 -9.17548   0.002
 3.40 2.25 -6.083 -6.079 -6.073 -6.060 -6.039  5.44455 14.76929 -8.90515   0.002
 3.40 2.50 -6.056 -6.053 -6.048 -6.036 -6.017  5.63558 15.04297 -8.63153   0.003
 3.40 2.75 -6.034 -6.032 -6.027 -6.017 -6.000  5.82152 15.31984 -8.35461   0.004
 3.40 3.00 -6.015 -6.013 -6.010 -6.001 -5.987  6.00432 15.59671 -8.07769   0.005
 3.40 3.20 -6.001 -5.999 -5.996 -5.989 -5.977  6.14796 15.81640 -7.85803   0.006
 3.40 3.40 -5.987 -5.986 -5.983 -5.978 -5.968  6.29160 16.03453 -7.63995   0.007
 3.40 3.60 -5.975 -5.974 -5.972 -5.967 -5.958  6.43595 16.25051 -7.42400   0.008
 3.40 3.80 -5.963 -5.962 -5.960 -5.956 -5.949  6.58259 16.46395 -7.21053   0.009
 3.40 4.00 -5.950 -5.949 -5.948 -5.944 -5.937  6.73135 16.67532 -6.99913   0.011
 3.40 4.20 -5.938 -5.938 -5.936 -5.933 -5.926  6.88599 16.88462 -6.78987   0.013
 3.40 4.40 -5.924 -5.924 -5.922 -5.919 -5.913  7.04465 17.09235 -6.58215   0.016
 3.40 4.60 -5.908 -5.907 -5.906 -5.903 -5.897  7.20903 17.29854 -6.37588   0.019
 3.40 4.80 -5.889 -5.889 -5.887 -5.884 -5.878  7.37627 17.50360 -6.17071   0.023
 3.40 5.00 -5.868 -5.867 -5.866 -5.863 -5.857  7.54370 17.70766 -5.96658   0.028
 3.40 5.20 -5.844 -5.844 -5.842 -5.839 -5.834  7.71122 17.91086 -5.76342   0.034
 3.40 5.40 -5.818 -5.818 -5.816 -5.813 -5.808  7.87875 18.11349 -5.56085   0.041
 3.40 5.60 -5.790 -5.789 -5.788 -5.785 -5.780  8.04471 18.31558 -5.35885   0.050
 3.40 5.80 -5.758 -5.758 -5.757 -5.754 -5.749  8.20777 18.51730 -5.15719   0.060
 3.40 6.00 -5.724 -5.723 -5.722 -5.720 -5.715  8.36903 18.71867 -4.95585   0.073
 3.40 6.25 -5.677 -5.676 -5.675 -5.673 -5.668  8.56804 18.96994 -4.70448   0.092
 3.40 6.50 -5.625 -5.624 -5.623 -5.621 -5.617  8.76530 19.22089 -4.45346   0.115
 3.40 6.75 -5.567 -5.567 -5.566 -5.563 -5.560  8.96133 19.47159 -4.20284   0.144
 3.40 7.00 -5.504 -5.504 -5.503 -5.501 -5.498  9.15625 19.72214 -3.95234   0.180
 3.40 7.25 -5.435 -5.435 -5.434 -5.433 -5.430  9.35057 19.97262 -3.70187   0.225
 3.40 7.50 -5.361 -5.361 -5.360 -5.359 -5.357  9.54332 20.22298 -3.45149   0.281
 3.40 7.75 -5.283 -5.283 -5.283 -5.282 -5.280  9.73074 20.47320 -3.20126   0.348
 3.40 8.00 -5.202 -5.202 -5.201 -5.201 -5.200  9.91408 20.72329 -2.95117   0.430
 3.42-2.00 -6.282 -6.281 -6.278 -6.274 -6.268  2.45591 10.43996-13.23441   0.001
 3.42-1.50 -6.336 -6.335 -6.332 -6.327 -6.319  2.72591 10.93992-12.73448   0.001
 3.42-1.00 -6.368 -6.366 -6.363 -6.356 -6.346  3.01115 11.43996-12.23441   0.001
 3.42-0.50 -6.368 -6.366 -6.361 -6.353 -6.342  3.32222 11.93997-11.73448   0.001
 3.42 0.00 -6.339 -6.336 -6.331 -6.321 -6.307  3.67256 12.44012-11.23426   0.001
 3.42 0.50 -6.285 -6.282 -6.276 -6.264 -6.247  4.07041 12.94052-10.73377   0.001
 3.42 1.00 -6.204 -6.201 -6.194 -6.180 -6.160  4.50325 13.44185-10.23255   0.001
 3.42 1.25 -6.156 -6.152 -6.145 -6.130 -6.109  4.72349 13.69333 -9.98108   0.001
 3.42 1.50 -6.106 -6.102 -6.094 -6.079 -6.056  4.94374 13.94576 -9.72862   0.001
 3.42 1.75 -6.055 -6.051 -6.044 -6.028 -6.005  5.16135 14.20019 -9.47419   0.001
 3.42 2.00 -6.006 -6.002 -5.995 -5.981 -5.958  5.37658 14.45713 -9.21724   0.002
 3.42 2.25 -5.961 -5.958 -5.951 -5.938 -5.916  5.58863 14.71841 -8.95598   0.003
 3.42 2.50 -5.922 -5.919 -5.913 -5.902 -5.883  5.79692 14.98403 -8.69037   0.004
 3.42 2.75 -5.889 -5.887 -5.883 -5.873 -5.857  6.00036 15.25601 -8.41834   0.005
 3.42 3.00 -5.864 -5.862 -5.859 -5.851 -5.838  6.19838 15.53058 -8.14375   0.006
 3.42 3.20 -5.848 -5.847 -5.844 -5.837 -5.827  6.35152 15.75204 -7.92235   0.007
 3.42 3.40 -5.835 -5.834 -5.831 -5.826 -5.817  6.50106 15.97349 -7.70094   0.008
 3.42 3.60 -5.824 -5.824 -5.822 -5.817 -5.810  6.64596 16.19399 -7.48047   0.010
 3.42 3.80 -5.816 -5.815 -5.813 -5.810 -5.803  6.78850 16.41218 -7.26225   0.012
 3.42 4.00 -5.807 -5.806 -5.805 -5.802 -5.796  6.93054 16.62859 -7.04581   0.014
 3.42 4.20 -5.800 -5.799 -5.798 -5.795 -5.789  7.07228 16.84226 -6.83213   0.016
 3.42 4.40 -5.791 -5.791 -5.789 -5.786 -5.781  7.21401 17.05390 -6.62048   0.019
 3.42 4.60 -5.781 -5.780 -5.779 -5.776 -5.770  7.35780 17.26347 -6.41090   0.022
 3.42 4.80 -5.767 -5.767 -5.765 -5.762 -5.757  7.50625 17.47137 -6.20297   0.026
 3.42 5.00 -5.751 -5.750 -5.749 -5.746 -5.741  7.65820 17.67779 -5.99654   0.031
 3.42 5.20 -5.731 -5.730 -5.729 -5.726 -5.721  7.81619 17.88294 -5.79143   0.038
 3.42 5.40 -5.707 -5.707 -5.705 -5.703 -5.698  7.97638 18.08717 -5.58722   0.045
 3.42 5.60 -5.680 -5.680 -5.678 -5.676 -5.671  8.13896 18.29051 -5.38383   0.055
 3.42 5.80 -5.650 -5.649 -5.648 -5.646 -5.641  8.30232 18.49324 -5.18102   0.066
 3.42 6.00 -5.616 -5.616 -5.615 -5.612 -5.608  8.46568 18.69539 -4.97881   0.079
 3.42 6.25 -5.570 -5.569 -5.568 -5.566 -5.562  8.66743 18.94738 -4.72686   0.100
 3.42 6.50 -5.518 -5.518 -5.517 -5.515 -5.511  8.86741 19.19893 -4.47534   0.126
 3.42 6.75 -5.462 -5.461 -5.460 -5.458 -5.455  9.06526 19.45024 -4.22405   0.158
 3.42 7.00 -5.399 -5.398 -5.398 -5.396 -5.393  9.26150 19.70122 -3.97306   0.198
 3.42 7.25 -5.330 -5.330 -5.329 -5.328 -5.326  9.45650 19.95176 -3.72243   0.248
 3.42 7.50 -5.255 -5.255 -5.254 -5.253 -5.252  9.65002 20.20222 -3.47198   0.310
 3.42 7.75 -5.173 -5.173 -5.172 -5.172 -5.171  9.84191 20.45265 -3.22164   0.387
 3.42 8.00 -5.085 -5.085 -5.085 -5.084 -5.084 10.03222 20.70303 -2.97143   0.481
 3.44-2.00 -6.044 -6.043 -6.042 -6.040 -6.037  3.02776 10.41996-13.25446   0.001
 3.44-1.50 -6.117 -6.116 -6.115 -6.111 -6.106  3.28285 10.91991-12.75449   0.001
 3.44-1.00 -6.173 -6.172 -6.169 -6.165 -6.157  3.54158 11.41996-12.25446   0.001
 3.44-0.50 -6.202 -6.200 -6.197 -6.190 -6.180  3.80699 11.91991-11.75449   0.001
 3.44 0.00 -6.199 -6.196 -6.192 -6.183 -6.170  4.08422 12.41996-11.25438   0.001
 3.44 0.50 -6.164 -6.161 -6.155 -6.143 -6.126  4.38148 12.92012-10.75424   0.001
 3.44 1.00 -6.101 -6.097 -6.090 -6.075 -6.055  4.71020 13.42062-10.25368   0.001
 3.44 1.25 -6.060 -6.056 -6.049 -6.033 -6.011  4.89040 13.67120-10.00305   0.001
 3.44 1.50 -6.015 -6.011 -6.003 -5.987 -5.963  5.08027 13.92221 -9.75203   0.002
 3.44 1.75 -5.967 -5.963 -5.955 -5.939 -5.915  5.28053 14.17408 -9.50021   0.003
 3.44 2.00 -5.916 -5.913 -5.905 -5.890 -5.867  5.48671 14.42716 -9.24726   0.003
 3.44 2.25 -5.866 -5.863 -5.857 -5.844 -5.823  5.69805 14.68240 -8.99206   0.003
 3.44 2.50 -5.819 -5.817 -5.812 -5.800 -5.783  5.91068 14.94047 -8.73400   0.004
 3.44 2.75 -5.777 -5.775 -5.771 -5.762 -5.747  6.12417 15.20356 -8.47088   0.005
 3.44 3.00 -5.741 -5.739 -5.736 -5.729 -5.718  6.33766 15.47114 -8.20329   0.007
 3.44 3.20 -5.716 -5.715 -5.713 -5.707 -5.698  6.50518 15.69014 -7.98443   0.008
 3.44 3.40 -5.696 -5.695 -5.693 -5.688 -5.681  6.66969 15.91006 -7.76455   0.010
 3.44 3.60 -5.680 -5.679 -5.677 -5.674 -5.667  6.82984 16.13089 -7.54365   0.012
 3.44 3.80 -5.667 -5.666 -5.664 -5.661 -5.656  6.98445 16.35194 -7.32249   0.014
 3.44 4.00 -5.655 -5.654 -5.653 -5.650 -5.645  7.13450 16.57299 -7.10133   0.017
 3.44 4.20 -5.646 -5.645 -5.644 -5.641 -5.637  7.27869 16.79122 -6.88309   0.020
 3.44 4.40 -5.637 -5.636 -5.635 -5.632 -5.628  7.42050 17.00752 -6.66681   0.023
 3.44 4.60 -5.627 -5.627 -5.625 -5.623 -5.618  7.55969 17.22155 -6.45282   0.027
 3.44 4.80 -5.616 -5.616 -5.614 -5.612 -5.607  7.69804 17.43328 -6.24110   0.032
 3.44 5.00 -5.603 -5.603 -5.602 -5.599 -5.594  7.83639 17.64306 -6.03133   0.038
 3.44 5.20 -5.588 -5.588 -5.586 -5.584 -5.579  7.97739 17.85092 -5.82343   0.045
 3.44 5.40 -5.570 -5.569 -5.568 -5.566 -5.561  8.12080 18.05742 -5.61689   0.053
 3.44 5.60 -5.548 -5.548 -5.547 -5.544 -5.540  8.26800 18.26266 -5.41168   0.062
 3.44 5.80 -5.523 -5.522 -5.521 -5.519 -5.515  8.41931 18.46699 -5.20740   0.074
 3.44 6.00 -5.493 -5.492 -5.491 -5.489 -5.485  8.57345 18.67043 -5.00397   0.088
 3.44 6.25 -5.450 -5.449 -5.448 -5.446 -5.443  8.77066 18.92364 -4.75064   0.110
 3.44 6.50 -5.401 -5.400 -5.399 -5.397 -5.394  8.96788 19.17609 -4.49812   0.138
 3.44 6.75 -5.345 -5.345 -5.344 -5.342 -5.340  9.16486 19.42805 -4.24624   0.173
 3.44 7.00 -5.283 -5.283 -5.282 -5.281 -5.279  9.36154 19.67952 -3.99482   0.217
 3.44 7.25 -5.214 -5.214 -5.213 -5.212 -5.211  9.55708 19.93049 -3.74377   0.272
 3.44 7.50 -5.138 -5.137 -5.137 -5.136 -5.135  9.75159 20.18127 -3.49295   0.341
 3.44 7.75 -5.053 -5.053 -5.053 -5.053 -5.052  9.94477 20.43196 -3.24230   0.426
 3.44 8.00 -4.962 -4.962 -4.962 -4.961 -4.961 10.13672 20.68251 -2.99183   0.531
 3.46-2.00 -5.789 -5.789 -5.789 -5.788 -5.788  3.58894 10.39985-13.27450   0.001
 3.46-1.50 -5.875 -5.875 -5.874 -5.873 -5.871  3.84017 10.89988-12.77443   0.001
 3.46-1.00 -5.948 -5.948 -5.946 -5.944 -5.940  4.09237 11.39985-12.27450   0.001
 3.46-0.50 -5.999 -5.998 -5.996 -5.992 -5.986  4.34655 11.89988-11.77443   0.001
 3.46 0.00 -6.016 -6.014 -6.011 -6.004 -5.995  4.60358 12.39985-11.27442   0.001
 3.46 0.50 -5.995 -5.993 -5.988 -5.979 -5.965  4.86617 12.89998-10.77443   0.001
 3.46 1.00 -5.947 -5.943 -5.937 -5.925 -5.907  5.13830 13.40019-10.27417   0.002
 3.46 1.25 -5.915 -5.912 -5.905 -5.892 -5.872  5.27976 13.65042-10.02397   0.002
 3.46 1.50 -5.881 -5.877 -5.870 -5.855 -5.834  5.42602 13.90081 -9.77366   0.002
 3.46 1.75 -5.843 -5.840 -5.833 -5.818 -5.797  5.57886 14.15160 -9.52286   0.002
 3.46 2.00 -5.803 -5.800 -5.793 -5.779 -5.759  5.73894 14.40295 -9.27148   0.003
 3.46 2.25 -5.761 -5.758 -5.753 -5.741 -5.722  5.90805 14.65521 -9.01918   0.004
 3.46 2.50 -5.718 -5.716 -5.711 -5.701 -5.685  6.08600 14.90886 -8.76548   0.005
 3.46 2.75 -5.676 -5.674 -5.671 -5.663 -5.650  6.27393 15.16536 -8.50896   0.006
 3.46 3.00 -5.635 -5.634 -5.631 -5.625 -5.615  6.46982 15.42521 -8.24911   0.008
 3.46 3.20 -5.604 -5.603 -5.601 -5.596 -5.588  6.63393 15.63709 -8.03726   0.009
 3.46 3.40 -5.576 -5.575 -5.573 -5.569 -5.562  6.79894 15.85179 -7.82260   0.011
 3.46 3.60 -5.550 -5.549 -5.548 -5.544 -5.538  6.96480 16.07050 -7.60390   0.013
 3.46 3.80 -5.527 -5.526 -5.525 -5.522 -5.517  7.13084 16.29112 -7.38325   0.016
 3.46 4.00 -5.506 -5.506 -5.504 -5.502 -5.497  7.29688 16.51175 -7.16260   0.020
 3.46 4.20 -5.489 -5.488 -5.487 -5.485 -5.480  7.45566 16.73232 -6.94202   0.024
 3.46 4.40 -5.473 -5.473 -5.471 -5.469 -5.465  7.60979 16.95277 -6.72155   0.029
 3.46 4.60 -5.458 -5.458 -5.457 -5.455 -5.451  7.75817 17.17181 -6.50253   0.034
 3.46 4.80 -5.444 -5.444 -5.443 -5.441 -5.437  7.90169 17.38796 -6.28639   0.039
 3.46 5.00 -5.430 -5.430 -5.429 -5.427 -5.423  8.04179 17.60206 -6.07232   0.046
 3.46 5.20 -5.416 -5.415 -5.414 -5.412 -5.408  8.17795 17.81359 -5.86081   0.054
 3.46 5.40 -5.400 -5.399 -5.398 -5.396 -5.393  8.31412 18.02328 -5.65114   0.064
 3.46 5.60 -5.382 -5.381 -5.380 -5.378 -5.375  8.45059 18.23113 -5.44327   0.075
 3.46 5.80 -5.361 -5.361 -5.360 -5.358 -5.355  8.58822 18.43761 -5.23677   0.087
 3.46 6.00 -5.337 -5.337 -5.336 -5.334 -5.331  8.72697 18.64286 -5.03152   0.102
 3.46 6.25 -5.302 -5.301 -5.300 -5.299 -5.296  8.90633 18.89804 -4.77637   0.125
 3.46 6.50 -5.258 -5.258 -5.257 -5.256 -5.254  9.08991 19.15198 -4.52245   0.155
 3.46 6.75 -5.208 -5.207 -5.207 -5.205 -5.203  9.27856 19.40488 -4.26950   0.193
 3.46 7.00 -5.148 -5.148 -5.148 -5.147 -5.145  9.46864 19.65706 -4.01728   0.240
 3.46 7.25 -5.081 -5.081 -5.081 -5.080 -5.079  9.65955 19.90863 -3.76567   0.299
 3.46 7.50 -5.006 -5.006 -5.005 -5.005 -5.004  9.85089 20.15987 -3.51442   0.373
 3.46 7.75 -4.921 -4.921 -4.921 -4.921 -4.920 10.04244 20.41091 -3.26340   0.465
 3.46 8.00 -4.828 -4.828 -4.828 -4.828 -4.828 10.23426 20.66172 -3.01265   0.580
 3.48-2.00 -5.522 -5.522 -5.522 -5.522 -5.522  4.13513 10.37967-13.29474   0.001
 3.48-1.50 -5.620 -5.620 -5.620 -5.620 -5.620  4.38561 10.87955-12.79480   0.001
 3.48-1.00 -5.707 -5.707 -5.707 -5.706 -5.706  4.63619 11.37967-12.29473   0.001
 3.48-0.50 -5.775 -5.775 -5.774 -5.773 -5.771  4.88722 11.87955-11.79480   0.001
 3.48 0.00 -5.812 -5.811 -5.809 -5.807 -5.802  5.13925 12.37967-11.29474   0.002
 3.48 0.50 -5.808 -5.807 -5.805 -5.800 -5.793  5.39252 12.87961-10.79480   0.002
 3.48 1.00 -5.773 -5.771 -5.768 -5.761 -5.751  5.64865 13.37967-10.29465   0.003
 3.48 1.25 -5.747 -5.745 -5.742 -5.734 -5.722  5.77818 13.62977-10.04459   0.004
 3.48 1.50 -5.718 -5.716 -5.712 -5.704 -5.692  5.90908 13.87996 -9.79453   0.004
 3.48 1.75 -5.687 -5.685 -5.681 -5.672 -5.660  6.04185 14.13033 -9.54417   0.004
 3.48 2.00 -5.653 -5.651 -5.647 -5.639 -5.627  6.17696 14.38094 -9.29354   0.005
 3.48 2.25 -5.618 -5.616 -5.612 -5.605 -5.594  6.31524 14.63189 -9.04258   0.006
 3.48 2.50 -5.581 -5.579 -5.576 -5.570 -5.559  6.45728 14.88344 -8.79102   0.007
 3.48 2.75 -5.543 -5.542 -5.539 -5.534 -5.525  6.60404 15.13643 -8.53802   0.008
 3.48 3.00 -5.505 -5.504 -5.502 -5.497 -5.490  6.75648 15.39129 -8.28316   0.010
 3.48 3.20 -5.475 -5.474 -5.472 -5.468 -5.462  6.88361 15.59749 -8.07690   0.012
 3.48 3.40 -5.445 -5.444 -5.442 -5.439 -5.434  7.01603 15.80610 -7.86821   0.014
 3.48 3.60 -5.416 -5.416 -5.414 -5.411 -5.406  7.15503 16.01801 -7.65629   0.016
 3.48 3.80 -5.389 -5.388 -5.387 -5.384 -5.380  7.30057 16.23332 -7.44104   0.019
 3.48 4.00 -5.362 -5.362 -5.360 -5.358 -5.354  7.45133 16.45117 -7.22323   0.023
 3.48 4.20 -5.337 -5.337 -5.336 -5.334 -5.330  7.60931 16.67243 -7.00193   0.028
 3.48 4.40 -5.313 -5.313 -5.312 -5.310 -5.306  7.76729 16.89369 -6.78064   0.033
 3.48 4.60 -5.290 -5.289 -5.289 -5.287 -5.284  7.92439 17.11464 -6.55968   0.039
 3.48 4.80 -5.268 -5.267 -5.266 -5.265 -5.262  8.07878 17.33452 -6.33983   0.047
 3.48 5.00 -5.246 -5.246 -5.245 -5.243 -5.241  8.23070 17.55340 -6.12102   0.056
 3.48 5.20 -5.226 -5.226 -5.225 -5.223 -5.220  8.37578 17.76916 -5.90525   0.066
 3.48 5.40 -5.206 -5.206 -5.205 -5.203 -5.201  8.51717 17.98281 -5.69158   0.078
 3.48 5.60 -5.186 -5.185 -5.185 -5.183 -5.181  8.65395 18.19422 -5.48014   0.092
 3.48 5.80 -5.165 -5.165 -5.164 -5.163 -5.160  8.78863 18.40371 -5.27063   0.107
 3.48 6.00 -5.143 -5.142 -5.142 -5.140 -5.138  8.92293 18.61151 -5.06283   0.125
 3.48 6.25 -5.111 -5.111 -5.110 -5.109 -5.108  9.09055 18.86921 -4.80520   0.152
 3.48 6.50 -5.074 -5.074 -5.074 -5.073 -5.071  9.25816 19.12516 -4.54929   0.184
 3.48 6.75 -5.031 -5.030 -5.030 -5.029 -5.028  9.43048 19.37963 -4.29473   0.225
 3.48 7.00 -4.978 -4.978 -4.978 -4.977 -4.976  9.60606 19.63307 -4.04125   0.275
 3.48 7.25 -4.917 -4.917 -4.916 -4.916 -4.915  9.78559 19.88569 -3.78866   0.338
 3.48 7.50 -4.846 -4.846 -4.846 -4.846 -4.845  9.96731 20.13767 -3.53671   0.417
 3.48 7.75 -4.766 -4.766 -4.766 -4.766 -4.766 10.15037 20.38919 -3.28518   0.515
 3.48 8.00 -4.678 -4.678 -4.678 -4.678 -4.677 10.33506 20.64018 -3.03414   0.637
 3.50-2.00 -5.244 -5.244 -5.244 -5.244 -5.244  4.64177 10.36003-13.31444   0.001
 3.50-1.50 -5.354 -5.354 -5.354 -5.354 -5.354  4.89182 10.85992-12.81446   0.001
 3.50-1.00 -5.454 -5.454 -5.454 -5.454 -5.454  5.14208 11.36003-12.31444   0.002
 3.50-0.50 -5.539 -5.538 -5.538 -5.538 -5.538  5.39234 11.85992-11.81446   0.002
 3.50 0.00 -5.595 -5.594 -5.594 -5.594 -5.593  5.64296 12.36003-11.31444   0.003
 3.50 0.50 -5.611 -5.610 -5.610 -5.609 -5.607  5.89393 12.85992-10.81446   0.004
 3.50 1.00 -5.589 -5.589 -5.588 -5.585 -5.582  6.14582 13.36003-10.31435   0.005
 3.50 1.25 -5.568 -5.567 -5.566 -5.564 -5.560  6.27212 13.61006-10.06427   0.006
 3.50 1.50 -5.542 -5.541 -5.540 -5.537 -5.533  6.39881 13.86010 -9.81418   0.007
 3.50 1.75 -5.512 -5.512 -5.510 -5.508 -5.504  6.52613 14.11020 -9.56406   0.008
 3.50 2.00 -5.480 -5.479 -5.478 -5.475 -5.471  6.65418 14.36040 -9.31390   0.009
 3.50 2.25 -5.445 -5.445 -5.444 -5.441 -5.437  6.78312 14.61086 -9.06349   0.010
 3.50 2.50 -5.409 -5.408 -5.407 -5.405 -5.401  6.91318 14.86166 -8.81276   0.012
 3.50 2.75 -5.370 -5.370 -5.369 -5.367 -5.363  7.04466 15.11304 -8.56135   0.014
 3.50 3.00 -5.331 -5.330 -5.329 -5.327 -5.324  7.17783 15.36530 -8.30901   0.016
 3.50 3.20 -5.299 -5.298 -5.297 -5.295 -5.292  7.28574 15.56834 -8.10595   0.018
 3.50 3.40 -5.266 -5.266 -5.265 -5.263 -5.260  7.39531 15.77287 -7.90142   0.021
 3.50 3.60 -5.234 -5.234 -5.233 -5.231 -5.229  7.50658 15.97944 -7.69487   0.024
 3.50 3.80 -5.204 -5.204 -5.203 -5.201 -5.199  7.62054 16.18896 -7.48536   0.027
 3.50 4.00 -5.175 -5.175 -5.174 -5.172 -5.170  7.73743 16.40123 -7.27311   0.031
 3.50 4.20 -5.149 -5.149 -5.148 -5.147 -5.144  7.85925 16.61787 -7.05646   0.036
 3.50 4.40 -5.124 -5.124 -5.123 -5.122 -5.120  7.98617 16.83642 -6.83791   0.042
 3.50 4.60 -5.100 -5.100 -5.099 -5.098 -5.096  8.12041 17.05714 -6.61719   0.049
 3.50 4.80 -5.076 -5.075 -5.075 -5.074 -5.072  8.26048 17.27862 -6.39572   0.057
 3.50 5.00 -5.050 -5.050 -5.049 -5.048 -5.047  8.40364 17.50010 -6.17425   0.067
 3.50 5.20 -5.023 -5.023 -5.023 -5.022 -5.020  8.54967 17.71959 -5.95481   0.080
 3.50 5.40 -4.996 -4.996 -4.995 -4.995 -4.993  8.69570 17.93742 -5.73702   0.095
 3.50 5.60 -4.969 -4.969 -4.968 -4.967 -4.966  8.83984 18.15301 -5.52144   0.112
 3.50 5.80 -4.942 -4.942 -4.941 -4.940 -4.939  8.98006 18.36606 -5.30836   0.131
 3.50 6.00 -4.915 -4.915 -4.914 -4.914 -4.913  9.11760 18.57703 -5.09734   0.153
 3.50 6.25 -4.880 -4.880 -4.880 -4.879 -4.878  9.28416 18.83797 -4.83636   0.185
 3.50 6.50 -4.844 -4.844 -4.843 -4.843 -4.842  9.44902 19.09656 -4.57774   0.224
 3.50 6.75 -4.804 -4.803 -4.803 -4.803 -4.802  9.61260 19.35321 -4.32113   0.271
 3.50 7.00 -4.758 -4.757 -4.757 -4.757 -4.756  9.77619 19.60831 -4.06606   0.327
 3.50 7.25 -4.704 -4.704 -4.704 -4.704 -4.703  9.94252 19.86207 -3.81229   0.396
 3.50 7.50 -4.643 -4.642 -4.642 -4.642 -4.642 10.11093 20.11494 -3.55941   0.481
 3.50 7.75 -4.572 -4.572 -4.572 -4.572 -4.572 10.28179 20.36725 -3.30710   0.585
 3.50 8.00 -4.494 -4.494 -4.494 -4.494 -4.493 10.45500 20.61889 -3.05547   0.714
 3.52-2.00 -4.954 -4.954 -4.954 -4.954 -4.954  5.13418 10.33985-13.33442   0.002
 3.52-1.50 -5.077 -5.077 -5.077 -5.077 -5.077  5.38417 10.83992-12.83446   0.002
 3.52-1.00 -5.191 -5.191 -5.191 -5.191 -5.191  5.63428 11.33985-12.33442   0.003
 3.52-0.50 -5.290 -5.290 -5.290 -5.290 -5.290  5.88440 11.83992-11.83446   0.004
 3.52 0.00 -5.365 -5.365 -5.365 -5.365 -5.365  6.13450 12.33985-11.33442   0.005
 3.52 0.50 -5.401 -5.401 -5.401 -5.401 -5.401  6.38489 12.83992-10.83446   0.006
 3.52 1.00 -5.394 -5.394 -5.394 -5.393 -5.393  6.63548 13.34005-10.33442   0.009
 3.52 1.25 -5.377 -5.376 -5.376 -5.376 -5.376  6.76088 13.59001-10.08444   0.010
 3.52 1.50 -5.353 -5.352 -5.352 -5.352 -5.351  6.88638 13.83998 -9.83446   0.011
 3.52 1.75 -5.323 -5.323 -5.323 -5.322 -5.322  7.01207 14.09009 -9.58434   0.013
 3.52 2.00 -5.290 -5.290 -5.289 -5.289 -5.288  7.13799 14.34025 -9.33414   0.015
 3.52 2.25 -5.253 -5.253 -5.252 -5.252 -5.251  7.26421 14.59042 -9.08390   0.018
 3.52 2.50 -5.213 -5.213 -5.212 -5.212 -5.211  7.39076 14.84067 -8.83357   0.021
 3.52 2.75 -5.170 -5.170 -5.169 -5.169 -5.168  7.51765 15.09131 -8.58294   0.024
 3.52 3.00 -5.124 -5.124 -5.124 -5.123 -5.123  7.64493 15.34242 -8.33189   0.027
 3.52 3.20 -5.086 -5.085 -5.085 -5.085 -5.084  7.74715 15.54387 -8.13046   0.031
 3.52 3.40 -5.046 -5.046 -5.045 -5.045 -5.044  7.84960 15.74610 -7.92823   0.035
 3.52 3.60 -5.005 -5.005 -5.004 -5.004 -5.003  7.95223 15.94940 -7.72494   0.039
 3.52 3.80 -4.964 -4.963 -4.963 -4.963 -4.962  8.05503 16.15460 -7.51975   0.044
 3.52 4.00 -4.923 -4.923 -4.923 -4.922 -4.922  8.15806 16.36173 -7.31265   0.050
 3.52 4.20 -4.885 -4.885 -4.885 -4.884 -4.884  8.26126 16.57225 -7.10210   0.056
 3.52 4.40 -4.851 -4.851 -4.850 -4.850 -4.849  8.36495 16.78562 -6.88871   0.063
 3.52 4.60 -4.821 -4.821 -4.820 -4.820 -4.819  8.46959 17.00299 -6.67136   0.071
 3.52 4.80 -4.795 -4.795 -4.795 -4.795 -4.794  8.57667 17.22277 -6.45163   0.080
 3.52 5.00 -4.774 -4.773 -4.773 -4.773 -4.772  8.68619 17.44326 -6.23114   0.091
 3.52 5.20 -4.753 -4.753 -4.753 -4.752 -4.752  8.80214 17.66425 -6.01013   0.104
 3.52 5.40 -4.732 -4.732 -4.732 -4.731 -4.731  8.92289 17.88523 -5.78911   0.120
 3.52 5.60 -4.708 -4.708 -4.708 -4.708 -4.707  9.05037 18.10497 -5.56938   0.139
 3.52 5.80 -4.682 -4.682 -4.682 -4.682 -4.681  9.18179 18.32195 -5.35242   0.162
 3.52 6.00 -4.653 -4.653 -4.653 -4.653 -4.653  9.31429 18.53694 -5.13745   0.188
 3.52 6.25 -4.615 -4.615 -4.615 -4.615 -4.614  9.48079 18.80200 -4.87229   0.227
 3.52 6.50 -4.575 -4.575 -4.575 -4.575 -4.575  9.64729 19.06409 -4.61013   0.275
 3.52 6.75 -4.534 -4.534 -4.534 -4.534 -4.534  9.80970 19.32356 -4.35072   0.332
 3.52 7.00 -4.490 -4.490 -4.490 -4.490 -4.490  9.97039 19.58092 -4.09340   0.400
 3.52 7.25 -4.443 -4.443 -4.443 -4.443 -4.442 10.12932 19.83639 -3.83781   0.480
 3.52 7.50 -4.390 -4.390 -4.390 -4.390 -4.390 10.28825 20.09061 -3.58353   0.576
 3.52 7.75 -4.331 -4.331 -4.331 -4.331 -4.331 10.44817 20.34403 -3.33018   0.692
 3.52 8.00 -4.266 -4.266 -4.266 -4.266 -4.266 10.60874 20.59649 -3.07790   0.833
 3.54-2.00 -4.650 -4.650 -4.650 -4.650 -4.650  5.60477 10.31994-13.35438   0.003
 3.54-1.50 -4.788 -4.788 -4.788 -4.788 -4.788  5.85473 10.81987-12.85449   0.003
 3.54-1.00 -4.916 -4.916 -4.916 -4.916 -4.916  6.10483 11.31994-12.35438   0.005
 3.54-0.50 -5.029 -5.029 -5.029 -5.029 -5.029  6.35488 11.81987-11.85449   0.006
 3.54 0.00 -5.121 -5.121 -5.121 -5.121 -5.121  6.60487 12.31994-11.35438   0.008
 3.54 0.50 -5.177 -5.177 -5.177 -5.177 -5.177  6.85497 12.81994-10.85449   0.011
 3.54 1.00 -5.186 -5.186 -5.186 -5.186 -5.186  7.10517 13.31994-10.35438   0.014
 3.54 1.25 -5.173 -5.173 -5.173 -5.173 -5.173  7.23030 13.56994-10.10444   0.016
 3.54 1.50 -5.151 -5.151 -5.151 -5.151 -5.151  7.35545 13.81994 -9.85449   0.019
 3.54 1.75 -5.120 -5.120 -5.120 -5.120 -5.120  7.48067 14.07004 -9.60439   0.022
 3.54 2.00 -5.083 -5.083 -5.083 -5.083 -5.083  7.60595 14.32015 -9.35428   0.026
 3.54 2.25 -5.041 -5.041 -5.041 -5.041 -5.041  7.73133 14.57021 -9.10423   0.030
 3.54 2.50 -4.994 -4.994 -4.994 -4.994 -4.994  7.85679 14.82027 -8.85418   0.034
 3.54 2.75 -4.941 -4.941 -4.941 -4.941 -4.941  7.98230 15.07060 -8.60383   0.040
 3.54 3.00 -4.884 -4.884 -4.884 -4.884 -4.884  8.10789 15.32119 -8.35320   0.046
 3.54 3.20 -4.835 -4.835 -4.835 -4.835 -4.835  8.20852 15.52186 -8.15250   0.051
 3.54 3.40 -4.783 -4.782 -4.782 -4.782 -4.782  8.30914 15.72289 -7.95144   0.058
 3.54 3.60 -4.728 -4.728 -4.728 -4.728 -4.728  8.40971 15.92447 -7.74987   0.065
 3.54 3.80 -4.671 -4.671 -4.671 -4.671 -4.671  8.51003 16.12718 -7.54720   0.073
 3.54 4.00 -4.613 -4.613 -4.613 -4.613 -4.613  8.61013 16.33102 -7.34342   0.082
 3.54 4.20 -4.556 -4.556 -4.556 -4.556 -4.556  8.70951 16.53692 -7.13751   0.092
 3.54 4.40 -4.502 -4.502 -4.502 -4.502 -4.502  8.80810 16.74516 -6.92923   0.102
 3.54 4.60 -4.453 -4.453 -4.453 -4.453 -4.453  8.90531 16.95661 -6.71773   0.114
 3.54 4.80 -4.411 -4.411 -4.411 -4.410 -4.410  9.00126 17.17149 -6.50283   0.128
 3.54 5.00 -4.377 -4.377 -4.377 -4.377 -4.377  9.09656 17.38899 -6.28534   0.143
 3.54 5.20 -4.352 -4.352 -4.352 -4.352 -4.352  9.19124 17.61014 -6.06424   0.160
 3.54 5.40 -4.334 -4.334 -4.334 -4.334 -4.334  9.28591 17.83129 -5.84314   0.178
 3.54 5.60 -4.322 -4.322 -4.322 -4.322 -4.321  9.38210 18.05220 -5.62226   0.199
 3.54 5.80 -4.311 -4.311 -4.311 -4.311 -4.311  9.48240 18.27227 -5.40218   0.223
 3.54 6.00 -4.299 -4.299 -4.299 -4.299 -4.299  9.58614 18.49150 -5.18290   0.251
 3.54 6.25 -4.280 -4.280 -4.280 -4.280 -4.280  9.72540 18.76128 -4.91313   0.294
 3.54 6.50 -4.255 -4.255 -4.255 -4.254 -4.254  9.87105 19.02776 -4.64666   0.348
 3.54 6.75 -4.223 -4.222 -4.222 -4.222 -4.222 10.02375 19.29072 -4.38367   0.415
 3.54 7.00 -4.185 -4.185 -4.185 -4.185 -4.185 10.17725 19.55096 -4.12338   0.495
 3.54 7.25 -4.144 -4.144 -4.144 -4.144 -4.144 10.33120 19.80877 -3.86551   0.591
 3.54 7.50 -4.100 -4.100 -4.100 -4.099 -4.099 10.48515 20.06483 -3.60942   0.706
 3.54 7.75 -4.051 -4.051 -4.051 -4.051 -4.051 10.63801 20.31967 -3.35460   0.842
 3.54 8.00 -3.999 -3.999 -3.999 -3.998 -3.998 10.79014 20.57310 -3.10122   1.003
 3.56-2.00 -4.333 -4.333 -4.333 -4.333 -4.333  6.05614 10.29994-13.37448   0.004
 3.56-1.50 -4.487 -4.487 -4.487 -4.487 -4.487  6.30600 10.79982-12.87452   0.006
 3.56-1.00 -4.629 -4.629 -4.629 -4.629 -4.629  6.55606 11.29994-12.37448   0.007
 3.56-0.50 -4.757 -4.757 -4.757 -4.757 -4.757  6.80604 11.79982-11.87452   0.010
 3.56 0.00 -4.864 -4.864 -4.864 -4.864 -4.864  7.05614 12.29994-11.37448   0.013
 3.56 0.50 -4.938 -4.938 -4.938 -4.938 -4.938  7.30621 12.79982-10.87452   0.018
 3.56 1.00 -4.962 -4.962 -4.962 -4.962 -4.962  7.55618 13.29994-10.37448   0.024
 3.56 1.25 -4.953 -4.953 -4.953 -4.953 -4.953  7.68124 13.54988-10.12450   0.028
 3.56 1.50 -4.930 -4.930 -4.930 -4.930 -4.930  7.80632 13.79982 -9.87452   0.032
 3.56 1.75 -4.897 -4.897 -4.897 -4.897 -4.897  7.93142 14.04988 -9.62451   0.037
 3.56 2.00 -4.854 -4.854 -4.854 -4.854 -4.854  8.05652 14.29994 -9.37448   0.042
 3.56 2.25 -4.802 -4.802 -4.802 -4.802 -4.802  8.18158 14.54999 -9.12434   0.048
 3.56 2.50 -4.743 -4.743 -4.743 -4.743 -4.743  8.30664 14.80003 -8.87419   0.056
 3.56 2.75 -4.676 -4.676 -4.676 -4.676 -4.676  8.43189 15.05015 -8.62408   0.065
 3.56 3.00 -4.603 -4.603 -4.603 -4.603 -4.603  8.55715 15.30038 -8.37397   0.075
 3.56 3.20 -4.540 -4.540 -4.540 -4.540 -4.540  8.65729 15.50072 -8.17370   0.084
 3.56 3.40 -4.473 -4.473 -4.473 -4.473 -4.473  8.75738 15.70126 -7.97321   0.094
 3.56 3.60 -4.404 -4.404 -4.404 -4.404 -4.404  8.85740 15.90206 -7.77243   0.106
 3.56 3.80 -4.332 -4.332 -4.332 -4.332 -4.332  8.95725 16.10341 -7.57102   0.119
 3.56 4.00 -4.258 -4.258 -4.258 -4.258 -4.258  9.05690 16.30535 -7.36896   0.133
 3.56 4.20 -4.185 -4.185 -4.185 -4.185 -4.185  9.15604 16.50850 -7.16580   0.149
 3.56 4.40 -4.113 -4.113 -4.113 -4.113 -4.113  9.25446 16.71319 -6.96113   0.167
 3.56 4.60 -4.044 -4.044 -4.044 -4.044 -4.044  9.35189 16.91992 -6.75441   0.187
 3.56 4.80 -3.982 -3.982 -3.982 -3.982 -3.982  9.44757 17.12960 -6.54471   0.209
 3.56 5.00 -3.928 -3.928 -3.928 -3.928 -3.928  9.54158 17.34203 -6.33227   0.233
 3.56 5.20 -3.885 -3.885 -3.885 -3.885 -3.885  9.63266 17.55895 -6.11545   0.259
 3.56 5.40 -3.853 -3.853 -3.853 -3.853 -3.853  9.72178 17.77768 -5.89678   0.286
 3.56 5.60 -3.833 -3.833 -3.833 -3.833 -3.833  9.80822 17.99846 -5.67600   0.316
 3.56 5.80 -3.823 -3.823 -3.823 -3.823 -3.823  9.89347 18.21992 -5.45449   0.349
 3.56 6.00 -3.819 -3.819 -3.819 -3.819 -3.819  9.97873 18.44138 -5.23299   0.385
 3.56 6.25 -3.820 -3.820 -3.820 -3.820 -3.820 10.08708 18.71525 -4.95907   0.436
 3.56 6.50 -3.822 -3.822 -3.822 -3.822 -3.822 10.19783 18.98646 -4.68782   0.496
 3.56 6.75 -3.820 -3.820 -3.819 -3.819 -3.819 10.31666 19.25362 -4.42069   0.569
 3.56 7.00 -3.810 -3.810 -3.810 -3.810 -3.810 10.44201 19.51759 -4.15677   0.657
 3.56 7.25 -3.792 -3.792 -3.792 -3.792 -3.792 10.57548 19.77849 -3.89598   0.766
 3.56 7.50 -3.766 -3.766 -3.766 -3.766 -3.766 10.71332 20.03703 -3.63752   0.898
 3.56 7.75 -3.734 -3.734 -3.734 -3.734 -3.734 10.85381 20.29377 -3.38076   1.055
 3.56 8.00 -3.697 -3.697 -3.697 -3.696 -3.696 10.99752 20.54851 -3.12592   1.245
 3.58-2.00 -4.003 -4.003 -4.003 -4.003 -4.003  6.48530 10.27990-13.39459   0.007
 3.58-1.50 -4.173 -4.173 -4.173 -4.173 -4.173  6.73536 10.77981-12.89449   0.009
 3.58-1.00 -4.330 -4.330 -4.330 -4.330 -4.330  6.98538 11.27989-12.39448   0.012
 3.58-0.50 -4.472 -4.472 -4.471 -4.471 -4.471  7.23528 11.77981-11.89449   0.016
 3.58 0.00 -4.592 -4.592 -4.592 -4.592 -4.592  7.48544 12.27989-11.39448   0.021
 3.58 0.50 -4.680 -4.680 -4.680 -4.680 -4.679  7.73544 12.77981-10.89449   0.028
 3.58 1.00 -4.714 -4.714 -4.714 -4.714 -4.714  7.98547 13.27990-10.39448   0.038
 3.58 1.25 -4.706 -4.706 -4.706 -4.706 -4.706  8.11050 13.52989-10.14449   0.044
 3.58 1.50 -4.682 -4.682 -4.682 -4.682 -4.682  8.23553 13.77989 -9.89449   0.051
 3.58 1.75 -4.643 -4.643 -4.643 -4.643 -4.643  8.36056 14.02989 -9.64449   0.058
 3.58 2.00 -4.591 -4.591 -4.591 -4.591 -4.590  8.48558 14.27989 -9.39448   0.067
 3.58 2.25 -4.527 -4.527 -4.527 -4.527 -4.526  8.61059 14.52992 -9.14449   0.078
 3.58 2.50 -4.453 -4.453 -4.453 -4.453 -4.453  8.73560 14.77996 -8.89449   0.090
 3.58 2.75 -4.371 -4.371 -4.371 -4.371 -4.371  8.86067 15.03002 -8.64437   0.104
 3.58 3.00 -4.283 -4.283 -4.283 -4.283 -4.283  8.98574 15.28012 -8.39416   0.120
 3.58 3.20 -4.208 -4.208 -4.208 -4.208 -4.208  9.08578 15.48029 -8.19395   0.135
 3.58 3.40 -4.130 -4.130 -4.130 -4.130 -4.130  9.18579 15.68057 -7.99365   0.151
 3.58 3.60 -4.050 -4.050 -4.050 -4.050 -4.049  9.28575 15.88097 -7.79325   0.169
 3.58 3.80 -3.967 -3.967 -3.967 -3.967 -3.967  9.38559 16.08165 -7.59261   0.190
 3.58 4.00 -3.884 -3.884 -3.884 -3.884 -3.884  9.48530 16.28262 -7.39169   0.213
 3.58 4.20 -3.801 -3.801 -3.801 -3.801 -3.801  9.58467 16.48427 -7.19011   0.239
 3.58 4.40 -3.718 -3.718 -3.718 -3.718 -3.718  9.68359 16.68683 -6.98763   0.268
 3.58 4.60 -3.637 -3.637 -3.637 -3.637 -3.637  9.78191 16.89058 -6.78393   0.301
 3.58 4.80 -3.561 -3.561 -3.561 -3.561 -3.560  9.87906 17.09640 -6.57811   0.336
 3.58 5.00 -3.490 -3.490 -3.490 -3.490 -3.490  9.97497 17.30428 -6.37018   0.375
 3.58 5.20 -3.428 -3.428 -3.428 -3.428 -3.428 10.06846 17.51577 -6.15859   0.418
 3.58 5.40 -3.377 -3.377 -3.377 -3.377 -3.377 10.15951 17.73007 -5.94420   0.464
 3.58 5.60 -3.339 -3.339 -3.339 -3.339 -3.339 10.24754 17.94839 -5.72583   0.513
 3.58 5.80 -3.314 -3.314 -3.314 -3.314 -3.314 10.33241 18.16877 -5.50546   0.566
 3.58 6.00 -3.301 -3.301 -3.301 -3.301 -3.301 10.41464 18.38935 -5.28492   0.622
 3.58 6.25 -3.299 -3.299 -3.299 -3.299 -3.299 10.51254 18.66521 -5.00911   0.696
 3.58 6.50 -3.308 -3.308 -3.308 -3.307 -3.307 10.61045 18.94107 -4.73330   0.779
 3.58 6.75 -3.321 -3.321 -3.321 -3.321 -3.321 10.70854 19.21243 -4.46189   0.872
 3.58 7.00 -3.336 -3.336 -3.335 -3.335 -3.335 10.80699 19.48058 -4.19368   0.977
 3.58 7.25 -3.347 -3.347 -3.346 -3.346 -3.346 10.91121 19.74497 -3.92927   1.102
 3.58 7.50 -3.351 -3.351 -3.351 -3.351 -3.351 11.02036 20.00647 -3.66776   1.249
 3.58 7.75 -3.349 -3.349 -3.348 -3.348 -3.348 11.13603 20.26564 -3.40861   1.427
 3.58 8.00 -3.338 -3.338 -3.338 -3.337 -3.337 11.25768 20.52231 -3.15200   1.641
 3.60-2.00 -3.664 -3.664 -3.664 -3.664 -3.664  6.89537 10.25983-13.41465   0.011
 3.60-1.50 -3.849 -3.849 -3.849 -3.849 -3.849  7.14551 10.75974-12.91471   0.014
 3.60-1.00 -4.021 -4.021 -4.021 -4.021 -4.021  7.39550 11.25983-12.41454   0.019
 3.60-0.50 -4.176 -4.176 -4.176 -4.176 -4.175  7.64552 11.75982-11.91435   0.025
 3.60 0.00 -4.307 -4.307 -4.307 -4.307 -4.307  7.89553 12.25983-11.41443   0.033
 3.60 0.50 -4.401 -4.401 -4.401 -4.401 -4.401  8.14551 12.75982-10.91435   0.045
 3.60 1.00 -4.439 -4.439 -4.439 -4.439 -4.439  8.39550 13.25983-10.41443   0.059
 3.60 1.25 -4.430 -4.430 -4.430 -4.430 -4.430  8.52056 13.50986-10.16439   0.068
 3.60 1.50 -4.402 -4.402 -4.402 -4.402 -4.402  8.64562 13.75990 -9.91435   0.079
 3.60 1.75 -4.356 -4.356 -4.356 -4.356 -4.356  8.77065 14.00986 -9.66439   0.092
 3.60 2.00 -4.294 -4.294 -4.294 -4.294 -4.294  8.89564 14.25983 -9.41443   0.106
 3.60 2.25 -4.219 -4.219 -4.219 -4.219 -4.219  9.02058 14.50985 -9.16439   0.122
 3.60 2.50 -4.134 -4.134 -4.134 -4.134 -4.134  9.14551 14.75989 -8.91435   0.141
 3.60 2.75 -4.041 -4.041 -4.041 -4.041 -4.041  9.27059 15.00997 -8.66433   0.163
 3.60 3.00 -3.943 -3.943 -3.943 -3.943 -3.942  9.39568 15.26007 -8.41431   0.188
 3.60 3.20 -3.861 -3.861 -3.861 -3.861 -3.860  9.49568 15.46016 -8.21424   0.211
 3.60 3.40 -3.776 -3.776 -3.776 -3.776 -3.776  9.59565 15.66028 -8.01409   0.237
 3.60 3.60 -3.690 -3.690 -3.690 -3.690 -3.690  9.69559 15.86048 -7.81388   0.266
 3.60 3.80 -3.603 -3.603 -3.603 -3.603 -3.603  9.79548 16.06090 -7.61351   0.298
 3.60 4.00 -3.515 -3.515 -3.515 -3.515 -3.515  9.89531 16.26150 -7.41296   0.334
 3.60 4.20 -3.427 -3.427 -3.427 -3.426 -3.426  9.99496 16.46235 -7.21205   0.375
 3.60 4.40 -3.338 -3.338 -3.338 -3.338 -3.338 10.09435 16.66366 -7.01064   0.420
 3.60 4.60 -3.251 -3.251 -3.251 -3.251 -3.251 10.19339 16.86560 -6.80861   0.471
 3.60 4.80 -3.166 -3.166 -3.166 -3.166 -3.166 10.29167 17.06886 -6.60539   0.527
 3.60 5.00 -3.085 -3.085 -3.085 -3.085 -3.085 10.38917 17.27346 -6.40088   0.590
 3.60 5.20 -3.009 -3.009 -3.009 -3.009 -3.009 10.48518 17.48062 -6.19374   0.659
 3.60 5.40 -2.942 -2.942 -2.942 -2.942 -2.942 10.57934 17.69037 -5.98398   0.735
 3.60 5.60 -2.885 -2.885 -2.885 -2.885 -2.885 10.67110 17.90362 -5.77072   0.816
 3.60 5.80 -2.841 -2.841 -2.841 -2.841 -2.840 10.75954 18.12010 -5.55422   0.904
 3.60 6.00 -2.810 -2.810 -2.810 -2.810 -2.810 10.84491 18.33885 -5.33545   0.997
 3.60 6.25 -2.791 -2.791 -2.791 -2.791 -2.790 10.94588 18.61570 -5.05859   1.121
 3.60 6.50 -2.789 -2.789 -2.789 -2.789 -2.788 11.04258 18.89254 -4.78173   1.253
 3.60 6.75 -2.800 -2.800 -2.800 -2.800 -2.799 11.13460 19.16727 -4.50700   1.393
 3.60 7.00 -2.819 -2.819 -2.819 -2.819 -2.818 11.22608 19.43981 -4.23448   1.547
 3.60 7.25 -2.842 -2.842 -2.841 -2.841 -2.841 11.31725 19.70816 -3.96619   1.718
 3.60 7.50 -2.864 -2.864 -2.864 -2.864 -2.863 11.40841 19.97327 -3.70115   1.908
 3.60 7.75 -2.884 -2.884 -2.884 -2.884 -2.883 11.50370 20.23539 -3.43905   2.129
 3.60 8.00 -2.899 -2.899 -2.899 -2.899 -2.898 11.60173 20.49443 -3.18000   2.384
 3.62-2.00 -3.318 -3.318 -3.318 -3.318 -3.318  7.28825 10.23930-13.43498   0.016
 3.62-1.50 -3.518 -3.518 -3.518 -3.518 -3.518  7.53832 10.73957-12.93479   0.022
 3.62-1.00 -3.704 -3.704 -3.704 -3.704 -3.704  7.78845 11.23980-12.43462   0.029
 3.62-0.50 -3.872 -3.872 -3.872 -3.872 -3.872  8.03862 11.73973-11.93479   0.039
 3.62 0.00 -4.013 -4.013 -4.013 -4.013 -4.013  8.28870 12.23980-11.43451   0.051
 3.62 0.50 -4.111 -4.111 -4.111 -4.111 -4.111  8.53857 12.73981-10.93442   0.069
 3.62 1.00 -4.146 -4.146 -4.146 -4.146 -4.146  8.78866 13.23980-10.43451   0.091
 3.62 1.25 -4.134 -4.134 -4.134 -4.134 -4.134  8.91364 13.48981-10.18446   0.105
 3.62 1.50 -4.102 -4.102 -4.102 -4.102 -4.102  9.03862 13.73981 -9.93442   0.122
 3.62 1.75 -4.050 -4.050 -4.050 -4.049 -4.049  9.16366 13.98981 -9.68446   0.141
 3.62 2.00 -3.981 -3.981 -3.981 -3.981 -3.980  9.28870 14.23980 -9.43451   0.162
 3.62 2.25 -3.899 -3.899 -3.899 -3.899 -3.898  9.41370 14.48980 -9.18446   0.187
 3.62 2.50 -3.807 -3.807 -3.807 -3.807 -3.807  9.53870 14.73981 -8.93442   0.217
 3.62 2.75 -3.708 -3.708 -3.708 -3.708 -3.708  9.66368 14.98993 -8.68440   0.250
 3.62 3.00 -3.604 -3.604 -3.604 -3.604 -3.604  9.78866 15.24005 -8.43439   0.289
 3.62 3.20 -3.519 -3.519 -3.519 -3.519 -3.519  9.88865 15.44005 -8.23440   0.324
 3.62 3.40 -3.432 -3.432 -3.432 -3.432 -3.431  9.98863 15.64005 -8.03441   0.364
 3.62 3.60 -3.343 -3.343 -3.343 -3.343 -3.343 10.08860 15.84009 -7.83433   0.408
 3.62 3.80 -3.254 -3.254 -3.254 -3.253 -3.253 10.18855 16.04026 -7.63407   0.458
 3.62 4.00 -3.163 -3.163 -3.163 -3.163 -3.163 10.28847 16.24055 -7.43368   0.514
 3.62 4.20 -3.072 -3.072 -3.072 -3.072 -3.072 10.38828 16.44104 -7.23323   0.576
 3.62 4.40 -2.981 -2.981 -2.981 -2.981 -2.981 10.48793 16.64183 -7.03259   0.646
 3.62 4.60 -2.891 -2.891 -2.891 -2.891 -2.890 10.58738 16.84297 -6.83155   0.724
 3.62 4.80 -2.801 -2.801 -2.801 -2.801 -2.801 10.68640 17.04484 -6.62964   0.812
 3.62 5.00 -2.714 -2.714 -2.713 -2.713 -2.713 10.78497 17.24748 -6.42690   0.910
 3.62 5.20 -2.629 -2.629 -2.629 -2.629 -2.629 10.88266 17.45167 -6.22271   1.018
 3.62 5.40 -2.550 -2.550 -2.550 -2.550 -2.550 10.97915 17.65774 -6.01666   1.138
 3.62 5.60 -2.478 -2.478 -2.478 -2.478 -2.478 11.07403 17.86638 -5.80799   1.269
 3.62 5.80 -2.416 -2.416 -2.416 -2.416 -2.416 11.16629 18.07833 -5.59598   1.411
 3.62 6.00 -2.367 -2.367 -2.367 -2.367 -2.366 11.25600 18.29314 -5.38111   1.565
 3.62 6.25 -2.324 -2.324 -2.324 -2.324 -2.324 11.36272 18.56748 -5.10696   1.769
 3.62 6.50 -2.303 -2.303 -2.303 -2.303 -2.303 11.46419 18.84298 -4.83150   1.988
 3.62 6.75 -2.301 -2.301 -2.301 -2.301 -2.301 11.55967 19.11924 -4.55518   2.219
 3.62 7.00 -2.313 -2.313 -2.313 -2.313 -2.312 11.65128 19.39550 -4.27885   2.466
 3.62 7.25 -2.334 -2.334 -2.334 -2.334 -2.333 11.73894 19.66767 -4.00676   2.728
 3.62 7.50 -2.361 -2.361 -2.360 -2.360 -2.360 11.82614 19.93672 -3.73779   3.016
 3.62 7.75 -2.389 -2.389 -2.389 -2.389 -2.388 11.91319 20.20212 -3.47234   3.334
 3.62 8.00 -2.417 -2.417 -2.417 -2.416 -2.416 12.00000 20.46404 -3.21028   3.685
 3.64-2.00 -2.970 -2.970 -2.970 -2.970 -2.970  7.66134 10.21880-13.45568   0.024
 3.64-1.50 -3.182 -3.182 -3.182 -3.182 -3.182  7.91190 10.71917-12.95507   0.033
 3.64-1.00 -3.382 -3.382 -3.382 -3.381 -3.381  8.16227 11.21958-12.45482   0.043
 3.64-0.50 -3.563 -3.563 -3.563 -3.563 -3.563  8.41246 11.71966-11.95468   0.058
 3.64 0.00 -3.715 -3.715 -3.715 -3.715 -3.715  8.66247 12.21985-11.45457   0.077
 3.64 0.50 -3.818 -3.818 -3.818 -3.818 -3.818  8.91254 12.71983-10.95468   0.103
 3.64 1.00 -3.850 -3.850 -3.850 -3.850 -3.850  9.16256 13.21985-10.45445   0.137
 3.64 1.25 -3.835 -3.835 -3.835 -3.835 -3.835  9.28760 13.46984-10.20456   0.158
 3.64 1.50 -3.798 -3.798 -3.798 -3.798 -3.798  9.41263 13.71983 -9.95468   0.183
 3.64 1.75 -3.742 -3.742 -3.742 -3.742 -3.742  9.53765 13.96983 -9.70456   0.211
 3.64 2.00 -3.669 -3.669 -3.669 -3.669 -3.669  9.66266 14.21985 -9.45445   0.244
 3.64 2.25 -3.583 -3.583 -3.583 -3.583 -3.583  9.78766 14.46988 -9.20435   0.282
 3.64 2.50 -3.488 -3.488 -3.488 -3.488 -3.488  9.91265 14.71991 -8.95429   0.326
 3.64 2.75 -3.387 -3.387 -3.387 -3.386 -3.386 10.03761 14.96988 -8.70437   0.376
 3.64 3.00 -3.281 -3.281 -3.281 -3.280 -3.280 10.16256 15.21985 -8.45445   0.434
 3.64 3.20 -3.194 -3.194 -3.194 -3.193 -3.193 10.26259 15.41988 -8.25439   0.487
 3.64 3.40 -3.105 -3.105 -3.105 -3.105 -3.105 10.36262 15.61995 -8.05433   0.547
 3.64 3.60 -3.015 -3.015 -3.015 -3.015 -3.015 10.46263 15.82005 -7.85425   0.613
 3.64 3.80 -2.924 -2.924 -2.924 -2.924 -2.924 10.56262 16.02018 -7.65417   0.688
 3.64 4.00 -2.833 -2.833 -2.833 -2.833 -2.832 10.66257 16.22037 -7.45408   0.772
 3.64 4.20 -2.741 -2.741 -2.741 -2.740 -2.740 10.76244 16.42062 -7.25382   0.866
 3.64 4.40 -2.648 -2.648 -2.648 -2.648 -2.648 10.86222 16.62100 -7.05339   0.972
 3.64 4.60 -2.555 -2.555 -2.555 -2.555 -2.555 10.96187 16.82160 -6.85275   1.090
 3.64 4.80 -2.463 -2.463 -2.463 -2.463 -2.463 11.06130 17.02269 -6.65168   1.222
 3.64 5.00 -2.372 -2.372 -2.372 -2.371 -2.371 11.16047 17.22428 -6.45014   1.370
 3.64 5.20 -2.282 -2.282 -2.282 -2.282 -2.281 11.25916 17.42668 -6.24777   1.535
 3.64 5.40 -2.195 -2.195 -2.195 -2.195 -2.195 11.35714 17.63030 -6.04419   1.718
 3.64 5.60 -2.113 -2.113 -2.113 -2.113 -2.113 11.45414 17.83563 -5.83887   1.921
 3.64 5.80 -2.038 -2.038 -2.038 -2.038 -2.038 11.54932 18.04369 -5.63077   2.144
 3.64 6.00 -1.972 -1.972 -1.972 -1.972 -1.972 11.64266 18.25431 -5.42010   2.387
 3.64 6.25 -1.907 -1.907 -1.907 -1.907 -1.907 11.75493 18.52308 -5.15131   2.716
 3.64 6.50 -1.863 -1.863 -1.863 -1.863 -1.863 11.86231 18.79560 -4.87877   3.073
 3.64 6.75 -1.842 -1.842 -1.842 -1.841 -1.841 11.96330 19.07234 -4.60200   3.452
 3.64 7.00 -1.839 -1.839 -1.839 -1.839 -1.838 12.05919 19.34908 -4.32523   3.855
 3.64 7.25 -1.851 -1.851 -1.851 -1.851 -1.851 12.14982 19.62410 -4.05027   4.279
 3.64 7.50 -1.874 -1.873 -1.873 -1.873 -1.873 12.23754 19.89719 -3.77728   4.734
 3.64 7.75 -1.902 -1.902 -1.902 -1.901 -1.901 12.32353 20.16608 -3.50837   5.227
 3.64 8.00 -1.933 -1.933 -1.933 -1.933 -1.932 12.40739 20.43152 -3.24283   5.756
 3.66-2.00 -2.623 -2.623 -2.623 -2.623 -2.623  8.01828 10.19701-13.47730   0.036
 3.66-1.50 -2.845 -2.845 -2.845 -2.845 -2.845  8.26951 10.69827-12.97634   0.048
 3.66-1.00 -3.056 -3.056 -3.056 -3.056 -3.056  8.52035 11.19893-12.47534   0.064
 3.66-0.50 -3.250 -3.250 -3.250 -3.250 -3.250  8.77078 11.69932-11.97510   0.085
 3.66 0.00 -3.414 -3.414 -3.414 -3.414 -3.414  9.02119 12.19948-11.47483   0.114
 3.66 0.50 -3.526 -3.526 -3.526 -3.526 -3.526  9.27114 12.69967-10.97469   0.152
 3.66 1.00 -3.560 -3.560 -3.560 -3.560 -3.560  9.52127 13.19976-10.47457   0.203
 3.66 1.25 -3.543 -3.543 -3.543 -3.543 -3.542  9.64630 13.44980-10.22463   0.234
 3.66 1.50 -3.504 -3.504 -3.503 -3.503 -3.503  9.77129 13.69984 -9.97469   0.270
 3.66 1.75 -3.445 -3.445 -3.445 -3.445 -3.444  9.89624 13.94980 -9.72463   0.312
 3.66 2.00 -3.370 -3.370 -3.369 -3.369 -3.369 10.02119 14.19976 -9.47457   0.361
 3.66 2.25 -3.282 -3.282 -3.282 -3.282 -3.282 10.14628 14.44978 -9.22463   0.417
 3.66 2.50 -3.185 -3.185 -3.185 -3.185 -3.185 10.27138 14.69984 -8.97469   0.481
 3.66 2.75 -3.083 -3.083 -3.083 -3.082 -3.082 10.39640 14.94993 -8.72457   0.555
 3.66 3.00 -2.976 -2.976 -2.976 -2.975 -2.975 10.52140 15.20003 -8.47444   0.641
 3.66 3.20 -2.888 -2.888 -2.888 -2.888 -2.887 10.62140 15.39999 -8.27437   0.719
 3.66 3.40 -2.798 -2.798 -2.798 -2.798 -2.798 10.72138 15.59995 -8.07431   0.807
 3.66 3.60 -2.708 -2.708 -2.708 -2.708 -2.707 10.82133 15.79992 -7.87426   0.906
 3.66 3.80 -2.616 -2.616 -2.616 -2.616 -2.616 10.92126 15.99995 -7.67422   1.016
 3.66 4.00 -2.524 -2.524 -2.524 -2.523 -2.523 11.02119 16.20003 -7.47418   1.140
 3.66 4.20 -2.431 -2.431 -2.430 -2.430 -2.430 11.12117 16.40019 -7.27410   1.279
 3.66 4.40 -2.337 -2.337 -2.337 -2.337 -2.336 11.22115 16.60045 -7.07396   1.435
 3.66 4.60 -2.243 -2.243 -2.243 -2.243 -2.242 11.32105 16.80081 -6.87367   1.610
 3.66 4.80 -2.149 -2.149 -2.149 -2.149 -2.148 11.42073 17.00139 -6.67299   1.806
 3.66 5.00 -2.055 -2.055 -2.055 -2.055 -2.055 11.52022 17.20222 -6.47198   2.026
 3.66 5.20 -1.962 -1.962 -1.962 -1.962 -1.962 11.61946 17.40366 -6.27054   2.271
 3.66 5.40 -1.871 -1.871 -1.871 -1.871 -1.870 11.71828 17.60590 -6.06835   2.545
 3.66 5.60 -1.783 -1.783 -1.782 -1.782 -1.782 11.81651 17.80915 -5.86514   2.849
 3.66 5.80 -1.698 -1.698 -1.698 -1.698 -1.698 11.91358 18.01422 -5.66005   3.186
 3.66 6.00 -1.621 -1.621 -1.621 -1.621 -1.620 12.00945 18.22116 -5.45309   3.558
 3.66 6.25 -1.537 -1.536 -1.536 -1.536 -1.536 12.12620 18.48464 -5.18974   4.069
 3.66 6.50 -1.471 -1.471 -1.471 -1.471 -1.470 12.23905 18.75259 -4.92191   4.633
 3.66 6.75 -1.427 -1.427 -1.427 -1.427 -1.427 12.34594 19.02668 -4.64761   5.240
 3.66 7.00 -1.405 -1.405 -1.405 -1.405 -1.405 12.44747 19.30211 -4.37212   5.890
 3.66 7.25 -1.403 -1.403 -1.403 -1.403 -1.403 12.54298 19.57845 -4.09586   6.575
 3.66 7.50 -1.416 -1.416 -1.416 -1.415 -1.415 12.63418 19.85479 -3.81959   7.303
 3.66 7.75 -1.439 -1.439 -1.439 -1.438 -1.438 12.72214 20.12691 -3.54747   8.082
 3.66 8.00 -1.468 -1.468 -1.468 -1.468 -1.467 12.80652 20.39620 -3.27811   8.906
 3.68-2.00 -2.281 -2.281 -2.281 -2.281 -2.281  8.35603 10.17348-13.50100   0.052
 3.68-1.50 -2.511 -2.511 -2.510 -2.510 -2.510  8.60906 10.67614-12.99827   0.069
 3.68-1.00 -2.731 -2.731 -2.731 -2.731 -2.730  8.86082 11.17783-12.49648   0.093
 3.68-0.50 -2.936 -2.936 -2.936 -2.936 -2.935  9.11193 11.67870-11.99568   0.124
 3.68 0.00 -3.112 -3.112 -3.112 -3.112 -3.112  9.36229 12.17927-11.49512   0.165
 3.68 0.50 -3.236 -3.236 -3.236 -3.236 -3.236  9.61257 12.67952-10.99482   0.220
 3.68 1.00 -3.276 -3.276 -3.276 -3.276 -3.276  9.86279 13.17984-10.49471   0.294
 3.68 1.25 -3.260 -3.260 -3.260 -3.260 -3.259  9.98787 13.42982-10.24455   0.340
 3.68 1.50 -3.221 -3.220 -3.220 -3.220 -3.220 10.11294 13.67979 -9.99439   0.392
 3.68 1.75 -3.161 -3.161 -3.161 -3.161 -3.161 10.23800 13.92982 -9.74442   0.452
 3.68 2.00 -3.085 -3.085 -3.085 -3.085 -3.085 10.36305 14.17984 -9.49444   0.522
 3.68 2.25 -2.997 -2.997 -2.997 -2.997 -2.996 10.48802 14.42986 -9.24442   0.603
 3.68 2.50 -2.900 -2.900 -2.900 -2.900 -2.899 10.61300 14.67988 -8.99439   0.697
 3.68 2.75 -2.797 -2.796 -2.796 -2.796 -2.796 10.73804 14.92986 -8.74442   0.805
 3.68 3.00 -2.689 -2.689 -2.689 -2.689 -2.688 10.86309 15.17984 -8.49444   0.929
 3.68 3.20 -2.601 -2.600 -2.600 -2.600 -2.600 10.96303 15.37984 -8.29443   1.042
 3.68 3.40 -2.511 -2.511 -2.510 -2.510 -2.510 11.06297 15.57986 -8.09441   1.170
 3.68 3.60 -2.419 -2.419 -2.419 -2.419 -2.419 11.16296 15.77993 -7.89438   1.312
 3.68 3.80 -2.327 -2.327 -2.327 -2.327 -2.327 11.26301 15.98003 -7.69435   1.472
 3.68 4.00 -2.234 -2.234 -2.234 -2.234 -2.234 11.36305 16.18013 -7.49431   1.652
 3.68 4.20 -2.140 -2.140 -2.140 -2.140 -2.140 11.46305 16.38021 -7.29421   1.853
 3.68 4.40 -2.046 -2.046 -2.046 -2.046 -2.045 11.56302 16.58029 -7.09406   2.079
 3.68 4.60 -1.951 -1.951 -1.951 -1.951 -1.951 11.66295 16.78044 -6.89384   2.332
 3.68 4.80 -1.856 -1.856 -1.856 -1.856 -1.855 11.76280 16.98077 -6.69347   2.617
 3.68 5.00 -1.761 -1.761 -1.761 -1.761 -1.760 11.86255 17.18127 -6.49295   2.936
 3.68 5.20 -1.666 -1.666 -1.666 -1.666 -1.666 11.96210 17.38212 -6.29216   3.293
 3.68 5.40 -1.572 -1.572 -1.572 -1.572 -1.572 12.06139 17.58345 -6.09091   3.691
 3.68 5.60 -1.480 -1.480 -1.480 -1.479 -1.479 12.16035 17.78543 -5.88903   4.137
 3.68 5.80 -1.390 -1.390 -1.390 -1.390 -1.389 12.25865 17.98863 -5.68585   4.632
 3.68 6.00 -1.304 -1.304 -1.304 -1.304 -1.304 12.35622 18.19312 -5.48135   5.182
 3.68 6.25 -1.206 -1.206 -1.206 -1.206 -1.206 12.47597 18.45216 -5.22218   5.948
 3.68 6.50 -1.122 -1.122 -1.122 -1.122 -1.122 12.59284 18.71517 -4.95900   6.805
 3.68 6.75 -1.057 -1.057 -1.057 -1.057 -1.057 12.70500 18.98436 -4.68990   7.743
 3.68 7.00 -1.014 -1.014 -1.014 -1.014 -1.014 12.81231 19.25720 -4.41714   8.762
 3.68 7.25 -0.994 -0.994 -0.994 -0.994 -0.993 12.91343 19.53399 -4.14037   9.843
 3.68 7.50 -0.992 -0.992 -0.992 -0.992 -0.992 13.00945 19.81077 -3.86360  10.992
 3.68 7.75 -1.006 -1.006 -1.006 -1.006 -1.005 13.10098 20.08537 -3.58901  12.214
 3.68 8.00 -1.030 -1.030 -1.030 -1.029 -1.029 13.18780 20.35851 -3.31587  13.499
 3.70-2.00 -1.946 -1.946 -1.946 -1.946 -1.945  8.67532 10.14551-13.52900   0.073
 3.70-1.50 -2.180 -2.180 -2.180 -2.180 -2.180  8.93207 10.65167-13.02273   0.098
 3.70-1.00 -2.407 -2.407 -2.407 -2.407 -2.406  9.18583 11.15534-12.51913   0.132
 3.70-0.50 -2.620 -2.620 -2.620 -2.620 -2.620  9.43807 11.65725-12.01714   0.176
 3.70 0.00 -2.808 -2.808 -2.808 -2.808 -2.808  9.68931 12.15836-11.51599   0.235
 3.70 0.50 -2.945 -2.945 -2.945 -2.945 -2.944  9.93992 12.65906-11.01534   0.314
 3.70 1.00 -2.996 -2.996 -2.996 -2.996 -2.996 10.19033 13.15957-10.51499   0.418
 3.70 1.25 -2.984 -2.984 -2.984 -2.984 -2.983 10.31548 13.40960-10.26489   0.483
 3.70 1.50 -2.947 -2.947 -2.947 -2.946 -2.946 10.44060 13.65963-10.01480   0.558
 3.70 1.75 -2.888 -2.888 -2.888 -2.888 -2.888 10.56568 13.90975 -9.76468   0.644
 3.70 2.00 -2.813 -2.813 -2.813 -2.813 -2.813 10.69073 14.15987 -9.51456   0.744
 3.70 2.25 -2.726 -2.726 -2.726 -2.725 -2.725 10.81575 14.40980 -9.26457   0.860
 3.70 2.50 -2.629 -2.629 -2.629 -2.628 -2.628 10.94077 14.65973 -9.01457   0.993
 3.70 2.75 -2.525 -2.525 -2.525 -2.525 -2.525 11.06583 14.90980 -8.76457   1.147
 3.70 3.00 -2.418 -2.418 -2.417 -2.417 -2.417 11.19089 15.15987 -8.51456   1.324
 3.70 3.20 -2.329 -2.329 -2.329 -2.329 -2.328 11.29090 15.35985 -8.31455   1.485
 3.70 3.40 -2.239 -2.239 -2.239 -2.239 -2.238 11.39091 15.55983 -8.11454   1.666
 3.70 3.60 -2.148 -2.148 -2.147 -2.147 -2.147 11.49091 15.75982 -7.91451   1.870
 3.70 3.80 -2.055 -2.055 -2.055 -2.055 -2.055 11.59091 15.95983 -7.71447   2.098
 3.70 4.00 -1.962 -1.962 -1.962 -1.962 -1.961 11.69090 16.15987 -7.51442   2.354
 3.70 4.20 -1.868 -1.868 -1.868 -1.867 -1.867 11.79091 16.35993 -7.31437   2.642
 3.70 4.40 -1.773 -1.773 -1.773 -1.773 -1.772 11.89091 16.56004 -7.11430   2.964
 3.70 4.60 -1.678 -1.678 -1.678 -1.677 -1.677 11.99089 16.76019 -6.91418   3.326
 3.70 4.80 -1.582 -1.582 -1.582 -1.582 -1.581 12.09078 16.96043 -6.71393   3.732
 3.70 5.00 -1.486 -1.486 -1.486 -1.486 -1.486 12.19061 17.16077 -6.51357   4.186
 3.70 5.20 -1.390 -1.390 -1.390 -1.390 -1.390 12.29039 17.36126 -6.31309   4.695
 3.70 5.40 -1.295 -1.295 -1.295 -1.294 -1.294 12.39003 17.56200 -6.11235   5.266
 3.70 5.60 -1.200 -1.200 -1.200 -1.200 -1.199 12.48949 17.76313 -5.91123   5.904
 3.70 5.80 -1.107 -1.107 -1.107 -1.106 -1.106 12.58852 17.96509 -5.70925   6.617
 3.70 6.00 -1.016 -1.016 -1.016 -1.016 -1.015 12.68708 18.16791 -5.50640   7.412
 3.70 6.25 -0.908 -0.908 -0.908 -0.908 -0.908 12.80886 18.42383 -5.25045   8.528
 3.70 6.50 -0.811 -0.811 -0.811 -0.811 -0.810 12.92865 18.68287 -4.99140   9.789
 3.70 6.75 -0.728 -0.728 -0.728 -0.728 -0.728 13.04505 18.94718 -4.72720  11.192
 3.70 7.00 -0.665 -0.665 -0.665 -0.665 -0.665 13.15746 19.21590 -4.45855  12.737
 3.70 7.25 -0.624 -0.624 -0.624 -0.624 -0.624 13.26393 19.49060 -4.18360  14.399
 3.70 7.50 -0.606 -0.606 -0.606 -0.605 -0.605 13.36511 19.76619 -3.90798  16.180
 3.70 7.75 -0.606 -0.606 -0.606 -0.606 -0.605 13.46099 20.04209 -3.63215  18.069
 3.70 8.00 -0.621 -0.621 -0.620 -0.620 -0.620 13.55157 20.31848 -3.35596  20.055
 3.73-2.00 -1.464 -1.464 -1.463 -1.463 -1.463  9.10585 10.08672-13.58754   0.116
 3.73-1.50 -1.698 -1.698 -1.698 -1.698 -1.698  9.37694 10.60498-13.06946   0.158
 3.73-1.00 -1.928 -1.928 -1.928 -1.928 -1.928  9.63879 11.11561-12.55862   0.214
 3.73-0.50 -2.148 -2.148 -2.148 -2.148 -2.147  9.89542 11.62180-12.05257   0.288
 3.73 0.00 -2.346 -2.346 -2.346 -2.346 -2.346 10.14922 12.12548-11.54898   0.386
 3.73 0.50 -2.500 -2.500 -2.500 -2.500 -2.499 10.40123 12.62726-11.04706   0.515
 3.73 1.00 -2.573 -2.573 -2.573 -2.572 -2.572 10.65254 13.12840-10.54592   0.688
 3.73 1.25 -2.570 -2.570 -2.570 -2.569 -2.569 10.77789 13.37881-10.29556   0.795
 3.73 1.50 -2.540 -2.540 -2.540 -2.540 -2.540 10.90314 13.62910-10.04528   0.918
 3.73 1.75 -2.488 -2.488 -2.488 -2.488 -2.487 11.02834 13.87924 -9.79503   1.060
 3.73 2.00 -2.417 -2.417 -2.417 -2.417 -2.417 11.15351 14.12937 -9.54485   1.225
 3.73 2.25 -2.333 -2.333 -2.332 -2.332 -2.332 11.27867 14.37950 -9.29480   1.415
 3.73 2.50 -2.238 -2.238 -2.238 -2.238 -2.237 11.40381 14.62961 -9.04475   1.634
 3.73 2.75 -2.136 -2.136 -2.136 -2.136 -2.136 11.52891 14.87965 -8.79465   1.887
 3.73 3.00 -2.030 -2.030 -2.030 -2.030 -2.029 11.65398 15.12969 -8.54455   2.180
 3.73 3.20 -1.943 -1.943 -1.943 -1.942 -1.942 11.75402 15.32973 -8.34455   2.446
 3.73 3.40 -1.854 -1.854 -1.853 -1.853 -1.853 11.85405 15.52979 -8.14455   2.744
 3.73 3.60 -1.763 -1.763 -1.763 -1.763 -1.763 11.95408 15.72986 -7.94452   3.079
 3.73 3.80 -1.672 -1.672 -1.672 -1.671 -1.671 12.05410 15.92993 -7.74446   3.455
 3.73 4.00 -1.579 -1.579 -1.579 -1.579 -1.579 12.15412 16.13001 -7.54439   3.877
 3.73 4.20 -1.486 -1.486 -1.486 -1.485 -1.485 12.25420 16.33002 -7.34438   4.350
 3.73 4.40 -1.392 -1.392 -1.391 -1.391 -1.391 12.35428 16.53002 -7.14437   4.882
 3.73 4.60 -1.297 -1.297 -1.297 -1.296 -1.296 12.45433 16.73005 -6.94433   5.478
 3.73 4.80 -1.201 -1.201 -1.201 -1.201 -1.201 12.55432 16.93016 -6.74424   6.146
 3.73 5.00 -1.105 -1.105 -1.105 -1.105 -1.105 12.65427 17.13033 -6.54409   6.896
 3.73 5.20 -1.009 -1.009 -1.009 -1.009 -1.008 12.75421 17.33056 -6.34385   7.737
 3.73 5.40 -0.912 -0.912 -0.912 -0.912 -0.912 12.85409 17.53092 -6.14346   8.679
 3.73 5.60 -0.816 -0.816 -0.816 -0.816 -0.816 12.95390 17.73146 -5.94288   9.735
 3.73 5.80 -0.720 -0.720 -0.720 -0.720 -0.720 13.05350 17.93244 -5.74189  10.918
 3.73 6.00 -0.625 -0.625 -0.625 -0.625 -0.625 13.15290 18.13386 -5.54046  12.242
 3.73 6.25 -0.510 -0.510 -0.510 -0.510 -0.510 13.27639 18.38690 -5.28743  14.113
 3.73 6.50 -0.400 -0.400 -0.400 -0.400 -0.399 13.39881 18.64177 -5.03259  16.250
 3.73 6.75 -0.299 -0.299 -0.299 -0.298 -0.298 13.51932 18.90010 -4.77430  18.668
 3.73 7.00 -0.211 -0.211 -0.211 -0.211 -0.211 13.63729 19.16227 -4.51216  21.382
 3.73 7.25 -0.142 -0.142 -0.142 -0.141 -0.141 13.75086 19.43032 -4.24394  24.369
 3.73 7.50 -0.094 -0.094 -0.094 -0.094 -0.094 13.85980 19.70234 -3.97184  27.627
 3.73 7.75 -0.069 -0.069 -0.069 -0.069 -0.069 13.96281 19.97738 -3.69688  31.106
 3.73 8.00 -0.064 -0.064 -0.064 -0.064 -0.064 14.06032 20.25575 -3.41873  34.802
 3.76-2.00 -1.024 -1.024 -1.024 -1.024 -1.024  9.44963  9.98994-13.68445   0.166
 3.76-1.50 -1.243 -1.243 -1.243 -1.243 -1.242  9.75899 10.53224-13.14213   0.238
 3.76-1.00 -1.466 -1.466 -1.466 -1.465 -1.465 10.04297 11.05994-12.61439   0.330
 3.76-0.50 -1.682 -1.682 -1.682 -1.681 -1.681 10.31239 11.57692-12.09745   0.449
 3.76 0.00 -1.880 -1.880 -1.880 -1.880 -1.880 10.57334 12.08672-11.58754   0.607
 3.76 0.50 -2.041 -2.041 -2.041 -2.041 -2.041 10.82937 12.59251-11.08192   0.815
 3.76 1.00 -2.132 -2.132 -2.132 -2.132 -2.131 11.08279 13.09587-10.57856   1.091
 3.76 1.25 -2.140 -2.140 -2.140 -2.140 -2.140 11.20896 13.34676-10.32760   1.261
 3.76 1.50 -2.122 -2.122 -2.122 -2.122 -2.122 11.33486 13.59748-10.07686   1.458
 3.76 1.75 -2.080 -2.080 -2.080 -2.080 -2.080 11.46053 13.84813 -9.82625   1.685
 3.76 2.00 -2.018 -2.018 -2.018 -2.018 -2.018 11.58602 14.09864 -9.57577   1.947
 3.76 2.25 -1.941 -1.941 -1.941 -1.941 -1.940 11.71131 14.34893 -9.32546   2.250
 3.76 2.50 -1.852 -1.852 -1.852 -1.852 -1.852 11.83658 14.59912 -9.07520   2.599
 3.76 2.75 -1.756 -1.756 -1.756 -1.755 -1.755 11.96184 14.84923 -8.82497   3.002
 3.76 3.00 -1.654 -1.654 -1.654 -1.654 -1.653 12.08707 15.09934 -8.57479   3.467
 3.76 3.20 -1.570 -1.570 -1.570 -1.569 -1.569 12.18715 15.29947 -8.37474   3.891
 3.76 3.40 -1.484 -1.484 -1.484 -1.484 -1.483 12.28722 15.49960 -8.17470   4.366
 3.76 3.60 -1.397 -1.396 -1.396 -1.396 -1.396 12.38731 15.69967 -7.97468   4.899
 3.76 3.80 -1.308 -1.308 -1.308 -1.308 -1.307 12.48740 15.89968 -7.77465   5.498
 3.76 4.00 -1.218 -1.218 -1.218 -1.218 -1.218 12.58749 16.09968 -7.57463   6.169
 3.76 4.20 -1.127 -1.127 -1.127 -1.127 -1.127 12.68758 16.29976 -7.37458   6.922
 3.76 4.40 -1.035 -1.035 -1.035 -1.035 -1.035 12.78767 16.49984 -7.17452   7.767
 3.76 4.60 -0.943 -0.943 -0.943 -0.942 -0.942 12.88773 16.69991 -6.97445   8.716
 3.76 4.80 -0.849 -0.849 -0.849 -0.849 -0.848 12.98776 16.89997 -6.77438   9.780
 3.76 5.00 -0.754 -0.754 -0.754 -0.754 -0.754 13.08778 17.10003 -6.57430  10.974
 3.76 5.20 -0.659 -0.659 -0.659 -0.659 -0.658 13.18781 17.30017 -6.37418  12.314
 3.76 5.40 -0.563 -0.563 -0.563 -0.563 -0.563 13.28784 17.50040 -6.17399  13.816
 3.76 5.60 -0.467 -0.467 -0.467 -0.467 -0.466 13.38785 17.70069 -5.97370  15.502
 3.76 5.80 -0.370 -0.370 -0.370 -0.370 -0.370 13.48777 17.90113 -5.77322  17.391
 3.76 6.00 -0.274 -0.274 -0.274 -0.274 -0.274 13.58760 18.10175 -5.57251  19.509
 3.76 6.25 -0.155 -0.155 -0.155 -0.155 -0.155 13.71201 18.35332 -5.32096  22.513
 3.76 6.50 -0.039 -0.039 -0.039 -0.039 -0.038 13.83588 18.60595 -5.06839  25.964
 3.76 6.75  0.072  0.072  0.072  0.072  0.072 13.95879 18.86051 -4.81384  29.908
 3.76 7.00  0.176  0.176  0.176  0.176  0.176 14.08027 19.11760 -4.55674  34.394
 3.76 7.25  0.267  0.267  0.267  0.267  0.267 14.19878 19.37928 -4.29509  39.426
 3.76 7.50  0.341  0.341  0.341  0.341  0.341 14.31387 19.64532 -4.02905  45.019
 3.76 7.75  0.393  0.393  0.393  0.393  0.393 14.42366 19.91640 -3.75795  51.086
 3.76 8.00  0.423  0.423  0.423  0.423  0.423 14.52879 20.19229 -3.48201  57.655
 3.79-2.00 -0.700 -0.700 -0.700 -0.700 -0.700  9.64856  9.86303-13.81135   0.202
 3.79-1.50 -0.851 -0.851 -0.851 -0.851 -0.850 10.03623 10.41963-13.25477   0.316
 3.79-1.00 -1.038 -1.038 -1.038 -1.037 -1.037 10.37346 10.97234-12.70202   0.466
 3.79-0.50 -1.233 -1.233 -1.233 -1.233 -1.233 10.67505 11.51068-12.16368   0.659
 3.79 0.00 -1.419 -1.419 -1.419 -1.419 -1.419 10.95453 12.03543-11.63903   0.909
 3.79 0.50 -1.574 -1.574 -1.574 -1.574 -1.574 11.22115 12.54998-11.12442   1.236
 3.79 1.00 -1.672 -1.672 -1.671 -1.671 -1.671 11.48058 13.05843-10.61583   1.666
 3.79 1.25 -1.689 -1.689 -1.689 -1.689 -1.689 11.60862 13.31129-10.36305   1.931
 3.79 1.50 -1.683 -1.683 -1.683 -1.683 -1.683 11.73592 13.56348-10.11092   2.236
 3.79 1.75 -1.654 -1.654 -1.654 -1.654 -1.654 11.86266 13.81511 -9.85925   2.587
 3.79 2.00 -1.605 -1.605 -1.605 -1.605 -1.604 11.98896 14.06633 -9.60801   2.992
 3.79 2.25 -1.539 -1.539 -1.539 -1.539 -1.538 12.11483 14.31717 -9.35721   3.459
 3.79 2.50 -1.460 -1.460 -1.460 -1.460 -1.460 12.24055 14.56785 -9.10657   3.997
 3.79 2.75 -1.373 -1.373 -1.373 -1.372 -1.372 12.36622 14.81846 -8.85600   4.619
 3.79 3.00 -1.279 -1.279 -1.279 -1.278 -1.278 12.49178 15.06893 -8.60555   5.337
 3.79 3.20 -1.200 -1.200 -1.200 -1.200 -1.200 12.59202 15.26906 -8.40535   5.990
 3.79 3.40 -1.120 -1.120 -1.120 -1.120 -1.119 12.69223 15.46919 -8.20520   6.723
 3.79 3.60 -1.038 -1.038 -1.037 -1.037 -1.037 12.79243 15.66934 -8.00506   7.545
 3.79 3.80 -0.954 -0.954 -0.954 -0.954 -0.953 12.89263 15.86950 -7.80495   8.467
 3.79 4.00 -0.869 -0.869 -0.869 -0.869 -0.868 12.99282 16.06967 -7.60485   9.502
 3.79 4.20 -0.783 -0.783 -0.782 -0.782 -0.782 13.09301 16.26969 -7.40478  10.663
 3.79 4.40 -0.695 -0.695 -0.695 -0.695 -0.694 13.19320 16.46971 -7.20472  11.967
 3.79 4.60 -0.606 -0.606 -0.606 -0.606 -0.606 13.29336 16.66979 -7.00465  13.429
 3.79 4.80 -0.516 -0.516 -0.516 -0.516 -0.515 13.39349 16.86991 -6.80458  15.070
 3.79 5.00 -0.424 -0.424 -0.424 -0.424 -0.424 13.49360 17.07004 -6.60450  16.912
 3.79 5.20 -0.332 -0.332 -0.332 -0.332 -0.331 13.59369 17.27005 -6.40441  18.978
 3.79 5.40 -0.238 -0.238 -0.238 -0.238 -0.238 13.69378 17.47007 -6.20431  21.297
 3.79 5.60 -0.144 -0.144 -0.144 -0.144 -0.143 13.79387 17.67014 -6.00415  23.898
 3.79 5.80 -0.049 -0.049 -0.049 -0.048 -0.048 13.89396 17.87039 -5.80386  26.817
 3.79 6.00  0.046  0.046  0.046  0.046  0.046 13.99405 18.07078 -5.60345  30.091
 3.79 6.25  0.166  0.166  0.166  0.166  0.166 14.11893 18.32161 -5.35266  34.745
 3.79 6.50  0.285  0.285  0.285  0.285  0.285 14.24354 18.57299 -5.10139  40.107
 3.79 6.75  0.401  0.401  0.401  0.401  0.402 14.36767 18.82536 -4.84896  46.269
 3.79 7.00  0.514  0.514  0.514  0.514  0.514 14.49108 19.07918 -4.59500  53.331
 3.79 7.25  0.619  0.619  0.619  0.619  0.619 14.61288 19.33600 -4.33824  61.357
 3.79 7.50  0.713  0.713  0.713  0.713  0.713 14.73256 19.59627 -4.07811  70.417
 3.79 7.75  0.790  0.790  0.790  0.790  0.790 14.84801 19.86190 -3.81250  80.427
 3.79 8.00  0.847  0.847  0.847  0.847  0.847 14.95995 20.13226 -3.54212  91.492
 3.82-2.00 -0.568 -0.567 -0.567 -0.567 -0.567  9.69810  9.77612-13.89825   0.207
 3.82-1.50 -0.612 -0.612 -0.612 -0.612 -0.612 10.16227 10.30406-13.37039   0.353
 3.82-1.00 -0.703 -0.703 -0.703 -0.703 -0.702 10.58365 10.85297-12.82131   0.573
 3.82-0.50 -0.835 -0.835 -0.835 -0.835 -0.835 10.95168 11.41027-12.26416   0.875
 3.82 0.00 -0.982 -0.982 -0.982 -0.982 -0.982 11.27416 11.95818-11.71625   1.269
 3.82 0.50 -1.113 -1.113 -1.113 -1.113 -1.113 11.56620 12.49108-11.18330   1.776
 3.82 1.00 -1.201 -1.201 -1.201 -1.201 -1.201 11.84023 13.01157-10.66274   2.435
 3.82 1.25 -1.222 -1.222 -1.222 -1.222 -1.221 11.97297 13.26838-10.40594   2.837
 3.82 1.50 -1.223 -1.223 -1.223 -1.223 -1.223 12.10380 13.52362-10.15070   3.298
 3.82 1.75 -1.206 -1.206 -1.206 -1.206 -1.206 12.23309 13.77757 -9.89666   3.828
 3.82 2.00 -1.170 -1.170 -1.170 -1.170 -1.170 12.36135 14.03060 -9.64359   4.437
 3.82 2.25 -1.119 -1.119 -1.119 -1.119 -1.118 12.48883 14.28290 -9.39140   5.139
 3.82 2.50 -1.054 -1.054 -1.054 -1.054 -1.054 12.61574 14.53466 -9.13972   5.947
 3.82 2.75 -0.979 -0.979 -0.979 -0.979 -0.979 12.74221 14.78602 -8.88836   6.879
 3.82 3.00 -0.897 -0.897 -0.897 -0.897 -0.896 12.86835 15.03703 -8.63733   7.954
 3.82 3.20 -0.827 -0.827 -0.827 -0.826 -0.826 12.96907 15.23756 -8.43677   8.931
 3.82 3.40 -0.754 -0.754 -0.754 -0.754 -0.753 13.06966 15.43801 -8.23632  10.028
 3.82 3.60 -0.679 -0.679 -0.679 -0.678 -0.678 13.17015 15.63839 -8.03598  11.258
 3.82 3.80 -0.602 -0.602 -0.602 -0.601 -0.601 13.27055 15.83874 -7.83569  12.637
 3.82 4.00 -0.523 -0.523 -0.523 -0.523 -0.523 13.37088 16.03902 -7.63545  14.185
 3.82 4.20 -0.443 -0.443 -0.443 -0.443 -0.443 13.47113 16.23914 -7.43526  15.921
 3.82 4.40 -0.361 -0.361 -0.361 -0.361 -0.361 13.57137 16.43927 -7.23509  17.869
 3.82 4.60 -0.278 -0.278 -0.278 -0.278 -0.278 13.67162 16.63943 -7.03494  20.056
 3.82 4.80 -0.194 -0.194 -0.193 -0.193 -0.193 13.77188 16.83962 -6.83481  22.510
 3.82 5.00 -0.107 -0.107 -0.107 -0.107 -0.107 13.87216 17.03981 -6.63470  25.264
 3.82 5.20 -0.019 -0.019 -0.019 -0.019 -0.019 13.97244 17.23982 -6.43464  28.354
 3.82 5.40  0.069  0.069  0.069  0.069  0.069 14.07273 17.43983 -6.23457  31.823
 3.82 5.60  0.160  0.160  0.160  0.160  0.160 14.17300 17.63987 -6.03449  35.716
 3.82 5.80  0.252  0.252  0.252  0.252  0.253 14.27325 17.84000 -5.83434  40.085
 3.82 6.00  0.346  0.346  0.346  0.346  0.346 14.37346 18.04021 -5.63414  44.989
 3.82 6.25  0.463  0.463  0.463  0.463  0.463 14.49867 18.29063 -5.38371  51.967
 3.82 6.50  0.582  0.582  0.582  0.582  0.582 14.62377 18.54133 -5.13300  60.021
 3.82 6.75  0.700  0.700  0.700  0.700  0.700 14.74868 18.79254 -4.88174  69.305
 3.82 7.00  0.817  0.817  0.817  0.817  0.817 14.87326 19.04454 -4.62967  79.992
 3.82 7.25  0.930  0.930  0.930  0.930  0.930 14.99689 19.29824 -4.37601  92.234
 3.82 7.50  1.037  1.037  1.037  1.037  1.037 15.11926 19.55413 -4.12022 106.200
 3.82 7.75  1.132  1.132  1.132  1.132  1.132 15.23894 19.81418 -3.86015 121.885
 3.82 8.00  1.213  1.213  1.213  1.213  1.213 15.35641 20.07773 -3.59654 139.518
 3.85-2.00 -0.541 -0.541 -0.541 -0.540 -0.540  9.68458  9.73199-13.94233   0.197
 3.85-1.50 -0.540 -0.540 -0.540 -0.540 -0.539 10.17696 10.23855-13.43581   0.347
 3.85-1.00 -0.543 -0.543 -0.543 -0.543 -0.543 10.65533 10.75656-12.91793   0.601
 3.85-0.50 -0.566 -0.566 -0.566 -0.566 -0.565 11.10209 11.29469-12.37976   1.006
 3.85 0.00 -0.621 -0.621 -0.620 -0.620 -0.620 11.49859 11.85003-11.82449   1.588
 3.85 0.50 -0.690 -0.690 -0.690 -0.690 -0.690 11.84354 12.40449-11.26995   2.362
 3.85 1.00 -0.744 -0.744 -0.744 -0.744 -0.744 12.15014 12.94542-10.72886   3.361
 3.85 1.25 -0.757 -0.757 -0.757 -0.757 -0.756 12.29353 13.21015-10.46414   3.964
 3.85 1.50 -0.757 -0.757 -0.757 -0.757 -0.757 12.43249 13.47188-10.20246   4.652
 3.85 1.75 -0.744 -0.744 -0.744 -0.744 -0.744 12.56795 13.73099 -9.94339   5.437
 3.85 2.00 -0.718 -0.718 -0.718 -0.718 -0.718 12.70088 13.98807 -9.68634   6.337
 3.85 2.25 -0.679 -0.679 -0.679 -0.679 -0.679 12.83183 14.24339 -9.43101   7.368
 3.85 2.50 -0.629 -0.629 -0.629 -0.629 -0.629 12.96133 14.49748 -9.17692   8.553
 3.85 2.75 -0.569 -0.569 -0.569 -0.569 -0.569 13.08965 14.75065 -8.92378   9.915
 3.85 3.00 -0.501 -0.501 -0.501 -0.501 -0.501 13.21722 15.00303 -8.67142  11.484
 3.85 3.20 -0.442 -0.442 -0.442 -0.442 -0.441 13.31889 15.20440 -8.47003  12.909
 3.85 3.40 -0.379 -0.379 -0.379 -0.379 -0.379 13.42027 15.40550 -8.26891  14.507
 3.85 3.60 -0.313 -0.313 -0.313 -0.313 -0.313 13.52135 15.60640 -8.06804  16.297
 3.85 3.80 -0.245 -0.245 -0.245 -0.245 -0.244 13.62223 15.80715 -7.86733  18.304
 3.85 4.00 -0.174 -0.174 -0.174 -0.174 -0.174 13.72296 16.00775 -7.66675  20.555
 3.85 4.20 -0.102 -0.102 -0.102 -0.102 -0.102 13.82360 16.20819 -7.46627  23.080
 3.85 4.40 -0.028 -0.028 -0.028 -0.028 -0.028 13.92416 16.40854 -7.26587  25.913
 3.85 4.60  0.047  0.047  0.047  0.047  0.047 14.02467 16.60874 -7.06557  29.091
 3.85 4.80  0.124  0.124  0.124  0.125  0.125 14.12514 16.80888 -6.86533  32.658
 3.85 5.00  0.204  0.204  0.204  0.204  0.204 14.22557 17.00903 -6.66514  36.661
 3.85 5.20  0.285  0.285  0.285  0.286  0.286 14.32596 17.20926 -6.46501  41.153
 3.85 5.40  0.369  0.369  0.369  0.369  0.369 14.42635 17.40949 -6.26488  46.196
 3.85 5.60  0.454  0.454  0.454  0.454  0.455 14.52676 17.60966 -6.06472  51.857
 3.85 5.80  0.542  0.542  0.542  0.542  0.542 14.62719 17.80977 -5.86453  58.213
 3.85 6.00  0.631  0.631  0.631  0.631  0.631 14.72762 18.00988 -5.66434  65.348
 3.85 6.25  0.744  0.744  0.744  0.744  0.744 14.85314 18.26015 -5.41410  75.509
 3.85 6.50  0.860  0.860  0.860  0.860  0.860 14.97864 18.51055 -5.16387  87.248
 3.85 6.75  0.976  0.976  0.976  0.976  0.976 15.10408 18.76111 -4.91322 100.805
 3.85 7.00  1.094  1.094  1.094  1.094  1.094 15.22943 19.01199 -4.66214 116.452
 3.85 7.25  1.210  1.210  1.210  1.210  1.210 15.35431 19.26385 -4.41035 134.459
 3.85 7.50  1.324  1.324  1.324  1.324  1.324 15.47857 19.51693 -4.15745 155.137
 3.85 7.75  1.431  1.431  1.431  1.431  1.432 15.60108 19.77252 -3.90188 178.639
 3.85 8.00  1.531  1.531  1.531  1.531  1.531 15.72222 20.03020 -3.64417 205.378
 3.88-2.00 -0.538 -0.538 -0.538 -0.538 -0.537  9.65744  9.69932-13.97511   0.184
 3.88-1.50 -0.530 -0.530 -0.530 -0.530 -0.530 10.15594 10.20058-13.47379   0.327
 3.88-1.00 -0.510 -0.510 -0.510 -0.510 -0.510 10.65138 10.70475-12.96940   0.578
 3.88-0.50 -0.472 -0.472 -0.471 -0.471 -0.471 11.13767 11.21643-12.45780   1.012
 3.88 0.00 -0.420 -0.420 -0.420 -0.420 -0.419 11.60097 11.74492-11.92959   1.725
 3.88 0.50 -0.376 -0.376 -0.376 -0.376 -0.376 12.02119 12.29425-11.38018   2.799
 3.88 1.00 -0.347 -0.347 -0.347 -0.347 -0.347 12.38810 12.85150-10.82275   4.270
 3.88 1.25 -0.333 -0.333 -0.333 -0.333 -0.333 12.55346 13.12671-10.54754   5.165
 3.88 1.50 -0.316 -0.316 -0.316 -0.316 -0.316 12.70978 13.39898-10.27532   6.184
 3.88 1.75 -0.294 -0.294 -0.294 -0.294 -0.294 12.85831 13.66702-10.00738   7.339
 3.88 2.00 -0.267 -0.267 -0.267 -0.266 -0.266 13.00130 13.93166 -9.74280   8.653
 3.88 2.25 -0.233 -0.233 -0.233 -0.233 -0.233 13.13995 14.19295 -9.48142  10.148
 3.88 2.50 -0.192 -0.192 -0.192 -0.192 -0.192 13.27531 14.45179 -9.22250  11.858
 3.88 2.75 -0.144 -0.144 -0.144 -0.144 -0.144 13.40800 14.70863 -8.96565  13.816
 3.88 3.00 -0.090 -0.090 -0.090 -0.090 -0.090 13.53883 14.96388 -8.71041  16.063
 3.88 3.20 -0.042 -0.042 -0.042 -0.042 -0.042 13.64242 15.16705 -8.50726  18.098
 3.88 3.40  0.008  0.008  0.008  0.008  0.009 13.74535 15.36963 -8.30470  20.375
 3.88 3.60  0.063  0.063  0.063  0.063  0.063 13.84766 15.57169 -8.10266  22.923
 3.88 3.80  0.121  0.121  0.121  0.121  0.121 13.94958 15.77339 -7.90096  25.778
 3.88 4.00  0.181  0.181  0.181  0.181  0.182 14.05115 15.97474 -7.69962  28.976
 3.88 4.20  0.244  0.244  0.244  0.244  0.245 14.15244 16.17579 -7.49860  32.560
 3.88 4.40  0.309  0.309  0.309  0.309  0.310 14.25356 16.37663 -7.29777  36.580
 3.88 4.60  0.376  0.376  0.376  0.377  0.377 14.35453 16.57729 -7.09713  41.088
 3.88 4.80  0.446  0.446  0.446  0.446  0.446 14.45540 16.77784 -6.89659  46.146
 3.88 5.00  0.517  0.517  0.517  0.517  0.517 14.55618 16.97827 -6.69616  51.822
 3.88 5.20  0.591  0.591  0.591  0.591  0.591 14.65686 17.17861 -6.49581  58.190
 3.88 5.40  0.667  0.667  0.667  0.667  0.667 14.75754 17.37888 -6.29551  65.341
 3.88 5.60  0.745  0.745  0.745  0.745  0.745 14.85821 17.57910 -6.09526  73.369
 3.88 5.80  0.825  0.825  0.825  0.826  0.826 14.95889 17.77929 -5.89505  82.384
 3.88 6.00  0.908  0.908  0.908  0.909  0.909 15.05956 17.97946 -5.69486  92.507
 3.88 6.25  1.015  1.015  1.015  1.015  1.015 15.18544 18.22966 -5.44468 106.931
 3.88 6.50  1.125  1.125  1.125  1.125  1.125 15.31133 18.47986 -5.19450 123.606
 3.88 6.75  1.238  1.238  1.238  1.238  1.238 15.43723 18.73020 -4.94413 142.887
 3.88 7.00  1.352  1.352  1.352  1.352  1.352 15.56312 18.98069 -4.69358 165.176
 3.88 7.25  1.468  1.468  1.468  1.468  1.468 15.68880 19.23147 -4.44279 190.898
 3.88 7.50  1.584  1.584  1.584  1.584  1.584 15.81418 19.48273 -4.19159 220.555
 3.88 7.75  1.698  1.698  1.698  1.698  1.698 15.93857 19.73532 -3.93898 254.523
 3.88 8.00  1.809  1.809  1.809  1.809  1.809 16.06221 19.98896 -3.68529 293.462
 3.91-2.00 -0.539 -0.539 -0.539 -0.539 -0.538  9.62808  9.66876-14.00555   0.172
 3.91-1.50 -0.532 -0.532 -0.532 -0.532 -0.532 10.12775 10.16909-13.50529   0.306
 3.91-1.00 -0.514 -0.514 -0.514 -0.513 -0.513 10.62675 10.66997-13.00436   0.543
 3.91-0.50 -0.468 -0.468 -0.468 -0.468 -0.467 11.12353 11.17290-12.50155   0.962
 3.91 0.00 -0.378 -0.378 -0.378 -0.377 -0.377 11.61426 11.68106-11.99353   1.693
 3.91 0.50 -0.242 -0.242 -0.242 -0.242 -0.242 12.08778 12.20249-11.47198   2.920
 3.91 1.00 -0.091 -0.091 -0.091 -0.091 -0.091 12.52556 12.74484-10.92959   4.833
 3.91 1.25 -0.022 -0.022 -0.022 -0.022 -0.022 12.72476 13.02315-10.65122   6.079
 3.91 1.50  0.040  0.040  0.040  0.040  0.040 12.91126 13.30146-10.37284   7.535
 3.91 1.75  0.094  0.094  0.094  0.094  0.094 13.08455 13.57849-10.09580   9.198
 3.91 2.00  0.143  0.143  0.143  0.143  0.143 13.24748 13.85388 -9.82045  11.095
 3.91 2.25  0.188  0.188  0.188  0.188  0.188 13.40115 14.12452 -9.54980  13.243
 3.91 2.50  0.232  0.232  0.232  0.232  0.232 13.54814 14.39164 -9.28266  15.686
 3.91 2.75  0.277  0.277  0.277  0.277  0.277 13.68977 14.65518 -9.01914  18.464
 3.91 3.00  0.324  0.324  0.324  0.324  0.324 13.82743 14.91587 -8.75845  21.634
 3.91 3.20  0.363  0.363  0.363  0.363  0.363 13.93518 15.12250 -8.55180  24.492
 3.91 3.40  0.405  0.405  0.405  0.405  0.405 14.04150 15.32795 -8.34633  27.681
 3.91 3.60  0.450  0.450  0.450  0.450  0.450 14.14649 15.53231 -8.14202  31.237
 3.91 3.80  0.497  0.497  0.497  0.497  0.497 14.25061 15.73590 -7.93848  35.214
 3.91 4.00  0.547  0.547  0.547  0.547  0.548 14.35392 15.93877 -7.73565  39.661
 3.91 4.20  0.600  0.600  0.600  0.600  0.600 14.45654 16.14101 -7.53339  44.637
 3.91 4.40  0.655  0.655  0.655  0.655  0.655 14.55875 16.34282 -7.33154  50.213
 3.91 4.60  0.712  0.712  0.712  0.712  0.713 14.66058 16.54425 -7.13007  56.459
 3.91 4.80  0.772  0.772  0.772  0.772  0.773 14.76220 16.74543 -6.92886  63.465
 3.91 5.00  0.834  0.834  0.834  0.834  0.835 14.86362 16.94636 -6.72793  71.323
 3.91 5.20  0.899  0.899  0.899  0.899  0.899 14.96490 17.14709 -6.52727  80.135
 3.91 5.40  0.966  0.966  0.966  0.966  0.967 15.06607 17.34769 -6.32673  90.029
 3.91 5.60  1.036  1.036  1.036  1.036  1.036 15.16709 17.54815 -6.12630 101.136
 3.91 5.80  1.109  1.109  1.109  1.109  1.109 15.26806 17.74851 -5.92592 113.610
 3.91 6.00  1.184  1.184  1.184  1.184  1.184 15.36903 17.94880 -5.72561 127.622
 3.91 6.25  1.282  1.282  1.282  1.282  1.282 15.49529 18.19907 -5.47533 147.593
 3.91 6.50  1.384  1.384  1.384  1.384  1.384 15.62159 18.44933 -5.22505 170.690
 3.91 6.75  1.490  1.490  1.490  1.490  1.490 15.74798 18.69959 -4.97476 197.430
 3.91 7.00  1.599  1.599  1.599  1.599  1.599 15.87437 18.94988 -4.72446 228.359
 3.91 7.25  1.711  1.711  1.711  1.711  1.711 16.00074 19.20024 -4.47411 264.125
 3.91 7.50  1.826  1.826  1.826  1.826  1.826 16.12710 19.45071 -4.22366 305.475
 3.91 7.75  1.941  1.941  1.941  1.941  1.941 16.25286 19.70167 -3.97274 353.059
 3.91 8.00  2.056  2.056  2.056  2.056  2.056 16.37822 19.95299 -3.72147 407.862
 3.94-2.00 -0.539 -0.539 -0.539 -0.539 -0.539  9.59835  9.63839-14.03593   0.161
 3.94-1.50 -0.535 -0.535 -0.535 -0.535 -0.535 10.09795 10.13862-13.53581   0.285
 3.94-1.00 -0.522 -0.521 -0.521 -0.521 -0.521 10.59781 10.63889-13.03546   0.507
 3.94-0.50 -0.485 -0.485 -0.485 -0.485 -0.484 11.09691 11.13956-12.53477   0.901
 3.94 0.00 -0.400 -0.400 -0.400 -0.400 -0.400 11.59484 11.64167-12.03269   1.599
 3.94 0.50 -0.245 -0.245 -0.245 -0.245 -0.245 12.08778 12.14768-11.52666   2.820
 3.94 1.00 -0.020 -0.019 -0.019 -0.019 -0.019 12.56785 12.66455-11.00979   4.901
 3.94 1.25  0.107  0.107  0.107  0.107  0.107 12.79733 12.93034-10.74394   6.384
 3.94 1.50  0.233  0.233  0.233  0.233  0.233 13.01745 13.20085-10.47340   8.226
 3.94 1.75  0.348  0.348  0.348  0.348  0.348 13.22426 13.47809-10.19640  10.437
 3.94 2.00  0.448  0.448  0.448  0.448  0.448 13.41847 13.75549 -9.91901  13.051
 3.94 2.25  0.531  0.531  0.531  0.531  0.531 13.59844 14.03299 -9.64141  16.056
 3.94 2.50  0.601  0.601  0.601  0.601  0.601 13.76716 14.31048 -9.36381  19.498
 3.94 2.75  0.660  0.660  0.660  0.660  0.660 13.92551 14.58328 -9.09098  23.400
 3.94 3.00  0.714  0.714  0.714  0.714  0.714 14.07628 14.85266 -8.82160  27.837
 3.94 3.20  0.753  0.753  0.753  0.753  0.753 14.19228 15.06517 -8.60913  31.811
 3.94 3.40  0.793  0.793  0.793  0.793  0.793 14.30535 15.27570 -8.39864  36.231
 3.94 3.60  0.832  0.832  0.832  0.832  0.832 14.41560 15.48424 -8.19008  41.132
 3.94 3.80  0.872  0.872  0.872  0.872  0.873 14.52396 15.69129 -7.98300  46.597
 3.94 4.00  0.914  0.914  0.914  0.914  0.915 14.63063 15.89697 -7.77728  52.687
 3.94 4.20  0.958  0.958  0.958  0.958  0.958 14.73597 16.10148 -7.57279  59.481
 3.94 4.40  1.004  1.004  1.004  1.004  1.004 14.84039 16.30517 -7.36913  67.081
 3.94 4.60  1.052  1.052  1.052  1.052  1.053 14.94396 16.50810 -7.16623  75.577
 3.94 4.80  1.103  1.103  1.103  1.103  1.103 15.04698 16.71052 -6.96385  85.096
 3.94 5.00  1.156  1.156  1.156  1.156  1.156 15.14953 16.91243 -6.76196  95.760
 3.94 5.20  1.211  1.211  1.211  1.211  1.211 15.25168 17.11393 -6.56047 107.711
 3.94 5.40  1.269  1.269  1.269  1.269  1.269 15.35361 17.31514 -6.35927 121.122
 3.94 5.60  1.330  1.330  1.330  1.330  1.330 15.45532 17.51610 -6.15833 136.170
 3.94 5.80  1.393  1.393  1.393  1.393  1.394 15.55693 17.71689 -5.95757 153.070
 3.94 6.00  1.460  1.460  1.460  1.460  1.460 15.65849 17.91751 -5.75696 172.055
 3.94 6.25  1.547  1.547  1.547  1.547  1.548 15.78538 18.16804 -5.50634 199.115
 3.94 6.50  1.640  1.640  1.640  1.640  1.640 15.91228 18.41847 -5.25586 230.431
 3.94 6.75  1.737  1.737  1.737  1.737  1.737 16.03935 18.66886 -5.00553 266.705
 3.94 7.00  1.839  1.839  1.839  1.839  1.839 16.16643 18.91918 -4.75523 308.711
 3.94 7.25  1.945  1.945  1.945  1.945  1.945 16.29352 19.16940 -4.50496 357.369
 3.94 7.50  2.055  2.055  2.055  2.055  2.055 16.42062 19.41963 -4.25469 413.697
 3.94 7.75  2.168  2.168  2.168  2.168  2.168 16.54745 19.66997 -4.00436 478.762
 3.94 8.00  2.282  2.282  2.282  2.282  2.283 16.67413 19.92039 -3.75399 553.953
 3.97-2.00 -0.535 -0.535 -0.535 -0.535 -0.535  9.57019  9.60681-14.06758   0.150
 3.97-1.50 -0.536 -0.536 -0.536 -0.536 -0.535 10.06893 10.10789-13.56639   0.267
 3.97-1.00 -0.528 -0.528 -0.528 -0.527 -0.527 10.56820 10.60863-13.06575   0.474
 3.97-0.50 -0.502 -0.502 -0.502 -0.501 -0.501 11.06781 11.10890-12.56543   0.842
 3.97 0.00 -0.435 -0.435 -0.435 -0.435 -0.435 11.56714 11.60959-12.06474   1.496
 3.97 0.50 -0.296 -0.296 -0.296 -0.296 -0.295 12.06521 12.11126-11.56304   2.654
 3.97 1.00 -0.064 -0.064 -0.064 -0.064 -0.063 12.55955 12.61637-11.05799   4.690
 3.97 1.25  0.085  0.085  0.085  0.085  0.085 12.80318 12.87187-10.80253   6.209
 3.97 1.50  0.249  0.249  0.249  0.249  0.249 13.04297 13.13033-10.54409   8.183
 3.97 1.75  0.418  0.418  0.418  0.418  0.418 13.27594 13.39390-10.28048  10.700
 3.97 2.00  0.581  0.581  0.581  0.581  0.581 13.50065 13.66219-10.01216  13.858
 3.97 2.25  0.726  0.726  0.726  0.726  0.726 13.71264 13.93721 -9.73722  17.689
 3.97 2.50  0.851  0.851  0.851  0.851  0.851 13.91233 14.21405 -9.46042  22.263
 3.97 2.75  0.951  0.951  0.951  0.951  0.951 14.09762 14.49219 -9.18228  27.558
 3.97 3.00  1.034  1.034  1.034  1.034  1.034 14.27114 14.77034 -8.90413  33.652
 3.97 3.20  1.089  1.089  1.089  1.089  1.089 14.40169 14.98987 -8.68456  39.108
 3.97 3.40  1.138  1.138  1.138  1.138  1.138 14.52689 15.20736 -8.46702  45.171
 3.97 3.60  1.182  1.182  1.182  1.182  1.182 14.64689 15.42243 -8.25195  51.862
 3.97 3.80  1.224  1.224  1.224  1.224  1.224 14.76325 15.63506 -8.03936  59.295
 3.97 4.00  1.264  1.264  1.264  1.264  1.264 14.87633 15.84559 -7.82886  67.540
 3.97 4.20  1.304  1.304  1.304  1.304  1.304 14.98674 16.05413 -7.62032  76.699
 3.97 4.40  1.344  1.344  1.344  1.344  1.345 15.09531 16.26120 -7.41324  86.914
 3.97 4.60  1.386  1.386  1.386  1.386  1.386 15.20216 16.46684 -7.20755  98.291
 3.97 4.80  1.429  1.429  1.429  1.429  1.430 15.30790 16.67147 -7.00288 111.013
 3.97 5.00  1.474  1.474  1.474  1.474  1.475 15.41263 16.87518 -6.79915 125.235
 3.97 5.20  1.522  1.522  1.522  1.522  1.522 15.51654 17.07810 -6.59628 141.148
 3.97 5.40  1.571  1.571  1.571  1.571  1.572 15.61994 17.28049 -6.39392 158.990
 3.97 5.60  1.623  1.623  1.623  1.624  1.624 15.72283 17.48236 -6.19201 178.987
 3.97 5.80  1.678  1.678  1.678  1.678  1.679 15.82545 17.68391 -5.99041 201.437
 3.97 6.00  1.736  1.736  1.736  1.736  1.736 15.92789 17.88514 -5.78915 226.647
 3.97 6.25  1.813  1.813  1.813  1.813  1.813 16.05576 18.13632 -5.53810 262.563
 3.97 6.50  1.895  1.895  1.895  1.895  1.895 16.18356 18.38721 -5.28727 304.171
 3.97 6.75  1.982  1.982  1.982  1.982  1.982 16.31129 18.63786 -5.03653 352.381
 3.97 7.00  2.075  2.075  2.075  2.075  2.076 16.43902 18.88835 -4.78595 408.247
 3.97 7.25  2.173  2.173  2.174  2.174  2.174 16.56700 19.13870 -4.53561 473.069
 3.97 7.50  2.277  2.277  2.277  2.277  2.277 16.69504 19.38899 -4.28533 548.212
 3.97 7.75  2.384  2.384  2.384  2.384  2.384 16.82312 19.63925 -4.03509 635.305
 3.97 8.00  2.495  2.495  2.495  2.495  2.495 16.95124 19.88947 -3.78489 736.259
 4.00-2.00 -0.519 -0.519 -0.519 -0.519 -0.519  9.54937  9.56820-14.10613   0.142
 4.00-1.50 -0.527 -0.527 -0.527 -0.527 -0.527 10.04376 10.07335-13.60085   0.250
 4.00-1.00 -0.528 -0.528 -0.528 -0.528 -0.528 10.54033 10.57680-13.09762   0.443
 4.00-0.50 -0.513 -0.513 -0.513 -0.513 -0.513 11.03862 11.07809-12.59619   0.787
 4.00 0.00 -0.465 -0.465 -0.465 -0.465 -0.465 11.53795 11.57887-12.09550   1.398
 4.00 0.50 -0.353 -0.353 -0.353 -0.353 -0.353 12.03703 12.07954-11.59482   2.483
 4.00 1.00 -0.145 -0.145 -0.145 -0.145 -0.145 12.53555 12.58115-11.09323   4.407
 4.00 1.25 -0.001 -0.001 -0.001 -0.001 -0.001 12.78371 12.83287-10.84157   5.864
 4.00 1.50  0.166  0.166  0.166  0.166  0.167 13.03060 13.08565-10.58889   7.792
 4.00 1.75  0.353  0.353  0.353  0.353  0.354 13.27506 13.34046-10.33405  10.325
 4.00 2.00  0.551  0.551  0.551  0.551  0.551 13.51614 13.59791-10.07650  13.630
 4.00 2.25  0.746  0.746  0.746  0.746  0.746 13.75095 13.86003 -9.81427  17.861
 4.00 2.50  0.930  0.930  0.930  0.930  0.930 13.97814 14.12678 -9.54745  23.200
 4.00 2.75  1.092  1.092  1.092  1.092  1.092 14.19340 14.40044 -9.27399  29.726
 4.00 3.00  1.231  1.231  1.231  1.231  1.231 14.39672 14.67669 -8.99783  37.568
 4.00 3.20  1.321  1.321  1.321  1.321  1.321 14.54875 14.89942 -8.77507  44.753
 4.00 3.40  1.398  1.398  1.398  1.398  1.398 14.69305 15.12214 -8.55231  52.839
 4.00 3.60  1.463  1.463  1.463  1.463  1.463 14.82937 15.34385 -8.33055  61.816
 4.00 3.80  1.518  1.518  1.518  1.518  1.518 14.95927 15.56311 -8.11123  71.787
 4.00 4.00  1.568  1.568  1.568  1.568  1.568 15.08350 15.78046 -7.89381  82.826
 4.00 4.20  1.611  1.611  1.611  1.611  1.611 15.20281 15.99483 -7.67945  95.026
 4.00 4.40  1.652  1.652  1.652  1.652  1.652 15.31867 16.20707 -7.46722 108.588
 4.00 4.60  1.692  1.692  1.692  1.692  1.692 15.43124 16.41716 -7.25713 123.611
 4.00 4.80  1.731  1.731  1.731  1.731  1.731 15.54163 16.62552 -7.04875 140.356
 4.00 5.00  1.771  1.771  1.771  1.771  1.771 15.65002 16.83232 -6.84194 159.005
 4.00 5.20  1.812  1.812  1.812  1.812  1.812 15.75676 17.03772 -6.63657 179.801
 4.00 5.40  1.854  1.854  1.854  1.854  1.854 15.86244 17.24215 -6.43216 203.067
 4.00 5.60  1.899  1.899  1.899  1.899  1.899 15.96709 17.44568 -6.22861 229.074
 4.00 5.80  1.946  1.946  1.946  1.946  1.946 16.07113 17.64859 -6.02567 258.227
 4.00 6.00  1.996  1.996  1.996  1.996  1.996 16.17464 17.85089 -5.82333 290.911
 4.00 6.25  2.063  2.063  2.063  2.063  2.063 16.30347 18.10303 -5.57120 337.410
 4.00 6.50  2.135  2.135  2.135  2.135  2.135 16.43201 18.35468 -5.31957 391.215
 4.00 6.75  2.212  2.212  2.212  2.212  2.212 16.56030 18.60601 -5.06828 453.486
 4.00 7.00  2.296  2.296  2.296  2.296  2.296 16.68860 18.85703 -4.81730 525.669
 4.00 7.25  2.386  2.386  2.386  2.386  2.386 16.81701 19.10777 -4.56666 609.422
 4.00 7.50  2.481  2.481  2.481  2.481  2.482 16.94557 19.35832 -4.31614 706.642
 4.00 7.75  2.583  2.583  2.583  2.583  2.583 17.07465 19.60874 -4.06569 819.816
 4.00 8.00  2.689  2.689  2.689  2.689  2.689 17.20412 19.85902 -3.81531 951.513
 4.05-2.00 -0.501 -0.501 -0.501 -0.501 -0.501  9.50826  9.50961-14.16482   0.128
 4.05-1.50 -0.503 -0.503 -0.503 -0.503 -0.502 10.00732 10.01072-13.66374   0.226
 4.05-1.00 -0.505 -0.505 -0.505 -0.505 -0.505 10.50420 10.51362-13.16077   0.401
 4.05-0.50 -0.506 -0.506 -0.506 -0.506 -0.506 10.99900 11.01870-12.65580   0.709
 4.05 0.00 -0.491 -0.491 -0.491 -0.491 -0.491 11.49346 11.52388-12.15052   1.254
 4.05 0.50 -0.431 -0.431 -0.431 -0.431 -0.431 11.98994 12.02694-11.64724   2.220
 4.05 1.00 -0.288 -0.288 -0.288 -0.288 -0.288 12.48827 12.52866-11.14569   3.941
 4.05 1.25 -0.175 -0.175 -0.175 -0.174 -0.174 12.73761 12.77923-10.89512   5.251
 4.05 1.50 -0.031 -0.031 -0.031 -0.031 -0.031 12.98695 13.02979-10.64455   6.997
 4.05 1.75  0.140  0.140  0.140  0.140  0.140 13.23598 13.28068-10.39366   9.320
 4.05 2.00  0.336  0.336  0.336  0.336  0.337 13.48458 13.53199-10.14237  12.408
 4.05 2.25  0.550  0.550  0.550  0.550  0.550 13.73202 13.78424 -9.89014  16.498
 4.05 2.50  0.772  0.772  0.772  0.772  0.772 13.97786 14.03783 -9.63658  21.895
 4.05 2.75  0.997  0.997  0.997  0.997  0.997 14.22059 14.29411 -9.38026  28.954
 4.05 3.00  1.216  1.216  1.216  1.216  1.216 14.45909 14.55364 -9.12068  38.102
 4.05 3.20  1.381  1.381  1.381  1.381  1.381 14.64444 14.76519 -8.90913  47.166
 4.05 3.40  1.534  1.534  1.534  1.534  1.534 14.82410 14.97974 -8.69459  58.005
 4.05 3.60  1.670  1.670  1.670  1.670  1.670 14.99684 15.19853 -8.47583  70.770
 4.05 3.80  1.788  1.788  1.788  1.788  1.788 15.16099 15.41972 -8.25466  85.493
 4.05 4.00  1.890  1.890  1.890  1.890  1.890 15.31723 15.64147 -8.03292 102.343
 4.05 4.20  1.974  1.974  1.974  1.974  1.974 15.46410 15.86358 -7.81083 121.193
 4.05 4.40  2.045  2.045  2.045  2.045  2.045 15.60371 16.08568 -7.58873 142.323
 4.05 4.60  2.106  2.106  2.106  2.106  2.106 15.73596 16.30640 -7.36805 165.728
 4.05 4.80  2.159  2.159  2.159  2.159  2.159 15.86253 16.52413 -7.15036 191.730
 4.05 5.00  2.207  2.207  2.207  2.207  2.207 15.98412 16.73973 -6.93479 220.542
 4.05 5.20  2.250  2.250  2.250  2.250  2.250 16.10153 16.95257 -6.72184 252.452
 4.05 5.40  2.292  2.292  2.292  2.292  2.292 16.21597 17.16343 -6.51088 287.997
 4.05 5.60  2.334  2.334  2.334  2.334  2.334 16.32755 17.37232 -6.30198 327.478
 4.05 5.80  2.376  2.376  2.376  2.376  2.376 16.43730 17.57970 -6.09466 371.589
 4.05 6.00  2.419  2.419  2.419  2.419  2.419 16.54543 17.78569 -5.88874 420.857
 4.05 6.25  2.476  2.476  2.476  2.476  2.476 16.67886 18.04153 -5.63289 490.731
 4.05 6.50  2.536  2.536  2.536  2.536  2.536 16.81104 18.29601 -5.37841 571.409
 4.05 6.75  2.600  2.600  2.600  2.600  2.600 16.94212 18.54938 -5.12511 664.609
 4.05 7.00  2.670  2.670  2.670  2.670  2.670 17.07298 18.80195 -4.87257 772.689
 4.05 7.25  2.746  2.746  2.746  2.746  2.746 17.20372 19.05389 -4.62059 898.062
 4.05 7.50  2.829  2.829  2.829  2.829  2.829 17.33445 19.30535 -4.369061043.776
 4.05 7.75  2.917  2.917  2.917  2.917  2.917 17.46548 19.55649 -4.117891213.740
 4.05 8.00  3.013  3.013  3.013  3.013  3.013 17.59671 19.80726 -3.867101411.850
 4.10-2.00 -0.500 -0.500 -0.500 -0.500 -0.500  9.45894  9.45894-14.21538   0.114
 4.10-1.50 -0.499 -0.499 -0.499 -0.499 -0.499  9.95876  9.95904-13.71534   0.202
 4.10-1.00 -0.497 -0.497 -0.497 -0.497 -0.497 10.45864 10.45924-13.21510   0.360
 4.10-0.50 -0.494 -0.494 -0.494 -0.494 -0.493 10.95794 10.95985-12.71444   0.639
 4.10 0.00 -0.482 -0.482 -0.482 -0.482 -0.482 11.45637 11.46150-12.21282   1.134
 4.10 0.50 -0.450 -0.450 -0.450 -0.450 -0.450 11.95250 11.96520-11.70908   2.008
 4.10 1.00 -0.369 -0.369 -0.369 -0.369 -0.369 12.44685 12.47071-11.20363   3.547
 4.10 1.25 -0.298 -0.298 -0.297 -0.297 -0.297 12.69414 12.72322-10.95117   4.715
 4.10 1.50 -0.199 -0.199 -0.199 -0.199 -0.198 12.94161 12.97548-10.69897   6.270
 4.10 1.75 -0.070 -0.070 -0.070 -0.070 -0.069 13.18993 13.22701-10.44733   8.345
 4.10 2.00  0.089  0.089  0.089  0.089  0.089 13.43854 13.47828-10.19600  11.110
 4.10 2.25  0.276  0.276  0.276  0.276  0.277 13.68743 13.72932 -9.94500  14.796
 4.10 2.50  0.487  0.487  0.487  0.487  0.487 13.93631 13.98037 -9.69401  19.705
 4.10 2.75  0.716  0.716  0.716  0.716  0.716 14.18467 14.23184 -9.44253  26.228
 4.10 3.00  0.954  0.954  0.954  0.954  0.954 14.43233 14.48387 -9.19044  34.883
 4.10 3.20  1.146  1.146  1.146  1.146  1.146 14.62926 14.68658 -8.98773  43.760
 4.10 3.40  1.338  1.338  1.338  1.338  1.338 14.82466 14.89057 -8.78377  54.799
 4.10 3.60  1.525  1.525  1.525  1.525  1.525 15.01806 15.09628 -8.57808  68.464
 4.10 3.80  1.706  1.706  1.706  1.706  1.706 15.20772 15.30471 -8.36967  85.169
 4.10 4.00  1.878  1.878  1.878  1.878  1.878 15.39357 15.51574 -8.15864 105.487
 4.10 4.20  2.033  2.033  2.033  2.033  2.033 15.57276 15.73105 -7.94328 129.655
 4.10 4.40  2.173  2.173  2.173  2.173  2.173 15.74511 15.94892 -7.72537 158.114
 4.10 4.60  2.295  2.295  2.295  2.295  2.295 15.90946 16.17005 -7.50424 191.058
 4.10 4.80  2.398  2.398  2.398  2.398  2.398 16.06502 16.39252 -7.28179 228.547
 4.10 5.00  2.487  2.487  2.487  2.487  2.487 16.21272 16.61500 -7.05933 270.921
 4.10 5.20  2.560  2.560  2.560  2.560  2.560 16.35208 16.83627 -6.83808 318.040
 4.10 5.40  2.624  2.624  2.624  2.624  2.624 16.48517 17.05629 -6.61805 370.676
 4.10 5.60  2.680  2.680  2.680  2.680  2.680 16.61200 17.27430 -6.40007 428.948
 4.10 5.80  2.732  2.732  2.732  2.732  2.732 16.73431 17.48955 -6.18486 493.825
 4.10 6.00  2.781  2.781  2.781  2.781  2.781 16.85266 17.70260 -5.97184 565.936
 4.10 6.25  2.839  2.839  2.839  2.839  2.839 16.99623 17.96556 -5.70876 667.634
 4.10 6.50  2.898  2.898  2.898  2.898  2.898 17.13640 18.22583 -5.44843 784.540
 4.10 6.75  2.959  2.959  2.959  2.959  2.959 17.27387 18.48387 -5.19055 919.066
 4.10 7.00  3.023  3.023  3.023  3.023  3.023 17.40977 18.74013 -4.934421074.712
 4.10 7.25  3.091  3.091  3.091  3.091  3.091 17.54429 18.99486 -4.679641254.722
 4.10 7.50  3.164  3.164  3.164  3.164  3.164 17.67861 19.24846 -4.425971464.564
 4.10 7.75  3.243  3.243  3.243  3.243  3.243 17.81286 19.50128 -4.173121709.382
 4.10 8.00  3.329  3.329  3.329  3.329  3.329 17.94699 19.75320 -3.921181994.888
 4.15-2.00 -0.500 -0.500 -0.500 -0.500 -0.500  9.40892  9.40892-14.26544   0.101
 4.15-1.50 -0.499 -0.499 -0.499 -0.498 -0.498  9.90886  9.90891-13.76548   0.180
 4.15-1.00 -0.496 -0.496 -0.496 -0.496 -0.496 10.40892 10.40909-13.26536   0.321
 4.15-0.50 -0.493 -0.493 -0.493 -0.493 -0.492 10.90875 10.90902-12.76523   0.570
 4.15 0.00 -0.485 -0.485 -0.485 -0.485 -0.485 11.40858 11.40926-12.26512   1.013
 4.15 0.50 -0.464 -0.464 -0.464 -0.464 -0.464 11.90816 11.90961-11.76472   1.801
 4.15 1.00 -0.409 -0.409 -0.409 -0.409 -0.408 12.40705 12.41078-11.26352   3.198
 4.15 1.25 -0.359 -0.359 -0.359 -0.359 -0.358 12.65584 12.66197-11.01235   4.259
 4.15 1.50 -0.289 -0.289 -0.289 -0.289 -0.288 12.90412 12.91366-10.76070   5.669
 4.15 1.75 -0.196 -0.196 -0.196 -0.196 -0.196 13.15159 13.16614-10.50820   7.538
 4.15 2.00 -0.080 -0.080 -0.080 -0.080 -0.080 13.39881 13.41880-10.25555  10.020
 4.15 2.25  0.061  0.061  0.061  0.061  0.062 13.64584 13.67157-10.00281  13.316
 4.15 2.50  0.230  0.230  0.230  0.230  0.230 13.89287 13.92433 -9.75007  17.696
 4.15 2.75  0.426  0.426  0.426  0.426  0.426 14.14069 14.17652 -9.49790  23.537
 4.15 3.00  0.644  0.644  0.644  0.644  0.645 14.38863 14.42846 -9.24596  31.312
 4.15 3.20  0.833  0.833  0.833  0.833  0.833 14.58705 14.62980 -9.04460  39.349
 4.15 3.40  1.029  1.029  1.029  1.029  1.029 14.78547 14.83114 -8.84324  49.450
 4.15 3.60  1.229  1.229  1.229  1.229  1.229 14.98365 15.03273 -8.64164  62.125
 4.15 3.80  1.432  1.432  1.432  1.432  1.432 15.18097 15.23511 -8.43925  77.971
 4.15 4.00  1.632  1.632  1.632  1.632  1.632 15.37749 15.43823 -8.23612  97.767
 4.15 4.20  1.828  1.828  1.828  1.828  1.828 15.57195 15.64300 -8.03136 122.297
 4.15 4.40  2.020  2.020  2.020  2.020  2.020 15.76382 15.84972 -7.82465 152.525
 4.15 4.60  2.202  2.202  2.202  2.202  2.202 15.95232 16.05911 -7.61525 189.487
 4.15 4.80  2.371  2.371  2.371  2.371  2.371 16.13530 16.27188 -7.40245 233.918
 4.15 5.00  2.527  2.527  2.527  2.527  2.527 16.31281 16.48756 -7.18675 286.957
 4.15 5.20  2.662  2.662  2.662  2.662  2.662 16.48190 16.70770 -6.96659 348.618
 4.15 5.40  2.781  2.781  2.781  2.781  2.781 16.64332 16.92864 -6.74565 419.817
 4.15 5.60  2.882  2.882  2.882  2.882  2.882 16.79625 17.15037 -6.52396 500.674
 4.15 5.80  2.968  2.968  2.968  2.968  2.968 16.94121 17.37227 -6.30210 591.665
 4.15 6.00  3.044  3.044  3.044  3.044  3.044 17.07918 17.59417 -6.08024 693.577
 4.15 6.25  3.124  3.124  3.124  3.124  3.124 17.24260 17.86721 -5.80718 837.114
 4.15 6.50  3.199  3.199  3.199  3.199  3.199 17.39863 18.13704 -5.537301001.789
 4.15 6.75  3.267  3.267  3.267  3.267  3.267 17.54847 18.40304 -5.271311190.343
 4.15 7.00  3.336  3.336  3.336  3.336  3.336 17.69417 18.66596 -5.008421407.705
 4.15 7.25  3.404  3.404  3.404  3.404  3.404 17.83645 18.92600 -4.748461658.301
 4.15 7.50  3.476  3.476  3.476  3.476  3.476 17.97708 19.18384 -4.490661949.731
 4.15 7.75  3.551  3.551  3.551  3.551  3.551 18.11686 19.44005 -4.234472290.052
 4.15 8.00  3.631  3.631  3.631  3.631  3.631 18.25551 19.69443 -3.980052686.224
 4.20-2.00 -0.501 -0.501 -0.501 -0.501 -0.501  9.35889  9.35889-14.31542   0.090
 4.20-1.50 -0.499 -0.499 -0.499 -0.499 -0.499  9.85884  9.85890-13.81531   0.161
 4.20-1.00 -0.496 -0.496 -0.496 -0.496 -0.496 10.35889 10.35889-13.31542   0.286
 4.20-0.50 -0.491 -0.491 -0.491 -0.491 -0.491 10.85878 10.85896-12.81531   0.508
 4.20 0.00 -0.485 -0.485 -0.485 -0.485 -0.485 11.35870 11.35908-12.31533   0.903
 4.20 0.50 -0.472 -0.472 -0.472 -0.472 -0.471 11.85866 11.85908-11.81531   1.606
 4.20 1.00 -0.439 -0.439 -0.439 -0.439 -0.439 12.35851 12.35927-11.31507   2.856
 4.20 1.25 -0.408 -0.408 -0.408 -0.408 -0.407 12.60836 12.60943-11.06492   3.807
 4.20 1.50 -0.361 -0.361 -0.361 -0.361 -0.360 12.85812 12.85968-10.81474   5.075
 4.20 1.75 -0.294 -0.294 -0.294 -0.294 -0.293 13.10767 13.11012-10.56431   6.764
 4.20 2.00 -0.204 -0.204 -0.204 -0.204 -0.203 13.35698 13.36078-10.31363   9.015
 4.20 2.25 -0.088 -0.088 -0.088 -0.088 -0.088 13.60594 13.61183-10.06258  12.007
 4.20 2.50  0.052  0.052  0.052  0.052  0.052 13.85443 13.86332 -9.81107  15.982
 4.20 2.75  0.217  0.217  0.217  0.217  0.218 14.10206 14.11562 -9.55878  21.255
 4.20 3.00  0.405  0.405  0.405  0.405  0.405 14.34928 14.36829 -9.30610  28.254
 4.20 3.20  0.569  0.569  0.569  0.569  0.569 14.54674 14.57070 -9.10365  35.465
 4.20 3.40  0.745  0.745  0.745  0.745  0.746 14.74419 14.77310 -8.90120  44.515
 4.20 3.60  0.932  0.932  0.932  0.932  0.932 14.94179 14.97534 -8.69894  55.886
 4.20 3.80  1.127  1.127  1.127  1.127  1.127 15.13953 15.17742 -8.49688  70.174
 4.20 4.00  1.329  1.329  1.329  1.329  1.329 15.33726 15.37949 -8.29482  88.115
 4.20 4.20  1.535  1.535  1.535  1.535  1.535 15.53479 15.58171 -8.09261 110.617
 4.20 4.40  1.743  1.743  1.743  1.743  1.743 15.73202 15.78416 -7.89018 138.817
 4.20 4.60  1.950  1.950  1.950  1.950  1.950 15.92858 15.98722 -7.68714 174.067
 4.20 4.80  2.152  2.152  2.152  2.152  2.152 16.12336 16.19179 -7.48259 217.814
 4.20 5.00  2.351  2.351  2.351  2.351  2.351 16.31639 16.39777 -7.27663 271.999
 4.20 5.20  2.540  2.540  2.540  2.540  2.540 16.50553 16.60659 -7.06784 338.183
 4.20 5.40  2.718  2.718  2.718  2.718  2.718 16.69026 16.81812 -6.85634 418.353
 4.20 5.60  2.881  2.881  2.881  2.881  2.881 16.86952 17.03331 -6.64113 514.277
 4.20 5.80  3.026  3.026  3.026  3.026  3.026 17.04140 17.25152 -6.42285 626.811
 4.20 6.00  3.156  3.156  3.156  3.156  3.156 17.20629 17.47159 -6.20273 757.839
 4.20 6.25  3.290  3.290  3.290  3.290  3.290 17.39997 17.74906 -5.92528 947.157
 4.20 6.50  3.406  3.406  3.406  3.406  3.406 17.58241 18.02653 -5.647821168.530
 4.20 6.75  3.502  3.502  3.502  3.502  3.502 17.75381 18.30122 -5.373131423.384
 4.20 7.00  3.590  3.590  3.590  3.590  3.590 17.91709 18.57334 -5.101001717.741
 4.20 7.25  3.671  3.671  3.671  3.671  3.671 18.07325 18.84136 -4.832982056.270
 4.20 7.50  3.750  3.750  3.750  3.750  3.750 18.22505 19.10619 -4.568152449.083
 4.20 7.75  3.828  3.828  3.828  3.828  3.828 18.37419 19.36820 -4.306142907.769
 4.20 8.00  3.909  3.909  3.909  3.909  3.909 18.52009 19.62726 -4.047063439.314
 4.25-2.00 -0.501 -0.501 -0.501 -0.501 -0.501  9.30899  9.30899-14.36542   0.081
 4.25-1.50 -0.500 -0.500 -0.500 -0.500 -0.500  9.80889  9.80889-13.86550   0.143
 4.25-1.00 -0.498 -0.498 -0.498 -0.498 -0.498 10.30878 10.30899-13.36542   0.255
 4.25-0.50 -0.493 -0.493 -0.493 -0.493 -0.493 10.80882 10.80895-12.86550   0.453
 4.25 0.00 -0.484 -0.484 -0.484 -0.484 -0.484 11.30878 11.30899-12.36532   0.805
 4.25 0.50 -0.472 -0.471 -0.471 -0.471 -0.471 11.80875 11.80902-11.86519   1.431
 4.25 1.00 -0.450 -0.450 -0.450 -0.450 -0.450 12.30878 12.30921-11.36522   2.545
 4.25 1.25 -0.430 -0.430 -0.430 -0.430 -0.430 12.55866 12.55921-11.11522   3.394
 4.25 1.50 -0.401 -0.401 -0.401 -0.401 -0.401 12.80855 12.80922-10.86519   4.526
 4.25 1.75 -0.357 -0.357 -0.357 -0.357 -0.357 13.05845 13.05929-10.61507   6.035
 4.25 2.00 -0.295 -0.295 -0.295 -0.295 -0.295 13.30835 13.30942-10.36492   8.046
 4.25 2.25 -0.211 -0.211 -0.211 -0.211 -0.211 13.55816 13.55961-10.11476  10.727
 4.25 2.50 -0.102 -0.102 -0.102 -0.102 -0.101 13.80787 13.80990 -9.86455  14.300
 4.25 2.75  0.034  0.034  0.034  0.035  0.035 14.05738 14.06038 -9.61403  19.059
 4.25 3.00  0.200  0.200  0.200  0.200  0.200 14.30664 14.31112 -9.36321  25.396
 4.25 3.20  0.352  0.352  0.352  0.352  0.352 14.50575 14.51200 -9.16232  31.938
 4.25 3.40  0.518  0.518  0.518  0.518  0.518 14.70453 14.71320 -8.96114  40.150
 4.25 3.60  0.696  0.696  0.696  0.696  0.696 14.90284 14.91486 -8.75951  50.448
 4.25 3.80  0.881  0.881  0.881  0.881  0.881 15.10068 15.11695 -8.55743  63.355
 4.25 4.00  1.073  1.073  1.073  1.073  1.073 15.29820 15.31931 -8.35507  79.535
 4.25 4.20  1.269  1.269  1.269  1.269  1.269 15.49547 15.52190 -8.15245  99.807
 4.25 4.40  1.470  1.470  1.470  1.470  1.470 15.69257 15.72461 -7.94973 125.225
 4.25 4.60  1.675  1.675  1.675  1.675  1.675 15.88958 15.92738 -7.74695 157.104
 4.25 4.80  1.884  1.884  1.884  1.884  1.884 16.08644 16.13024 -7.54410 197.077
 4.25 5.00  2.095  2.095  2.095  2.095  2.095 16.28308 16.33325 -7.34113 247.170
 4.25 5.20  2.306  2.306  2.306  2.306  2.306 16.47881 16.53699 -7.13741 309.645
 4.25 5.40  2.512  2.512  2.512  2.512  2.512 16.67332 16.74170 -6.93273 387.350
 4.25 5.60  2.714  2.714  2.714  2.714  2.714 16.86596 16.94795 -6.72648 483.516
 4.25 5.80  2.907  2.907  2.907  2.907  2.907 17.05494 17.15683 -6.51758 601.049
 4.25 6.00  3.091  3.091  3.091  3.091  3.091 17.24030 17.36810 -6.30627 744.056
 4.25 6.25  3.294  3.294  3.294  3.294  3.294 17.46316 17.63751 -6.03686 961.648
 4.25 6.50  3.476  3.476  3.476  3.476  3.476 17.67615 17.91041 -5.763971228.833
 4.25 6.75  3.626  3.626  3.626  3.626  3.626 17.87631 18.18715 -5.487231547.457
 4.25 7.00  3.758  3.758  3.758  3.758  3.758 18.06558 18.46390 -5.210491924.366
 4.25 7.25  3.869  3.869  3.869  3.869  3.869 18.24382 18.73906 -4.935402362.407
 4.25 7.50  3.970  3.970  3.970  3.970  3.970 18.41397 19.01241 -4.662142873.342
 4.25 7.75  4.063  4.063  4.063  4.063  4.063 18.57816 19.28169 -4.392803471.177
 4.25 8.00  4.154  4.154  4.154  4.154  4.154 18.73568 19.54765 -4.126684161.591
 4.30-2.00 -0.499 -0.499 -0.499 -0.499 -0.498  9.26007  9.25768-14.41669   0.072
 4.30-1.50 -0.500 -0.500 -0.500 -0.500 -0.499  9.75929  9.75846-13.91578   0.128
 4.30-1.00 -0.499 -0.499 -0.499 -0.499 -0.499 10.25912 10.25888-13.41556   0.227
 4.30-0.50 -0.496 -0.496 -0.496 -0.496 -0.495 10.75884 10.75891-12.91542   0.404
 4.30 0.00 -0.488 -0.488 -0.488 -0.488 -0.487 11.25888 11.25888-12.41533   0.718
 4.30 0.50 -0.473 -0.473 -0.473 -0.473 -0.472 11.75876 11.75899-11.91542   1.276
 4.30 1.00 -0.451 -0.451 -0.451 -0.451 -0.451 12.25864 12.25912-11.41522   2.269
 4.30 1.25 -0.436 -0.436 -0.436 -0.436 -0.436 12.50861 12.50913-11.16513   3.025
 4.30 1.50 -0.415 -0.415 -0.415 -0.415 -0.415 12.75861 12.75914-10.91507   4.034
 4.30 1.75 -0.386 -0.386 -0.386 -0.386 -0.386 13.00862 13.00925-10.66509   5.379
 4.30 2.00 -0.344 -0.344 -0.344 -0.344 -0.343 13.25864 13.25935-10.41510   7.173
 4.30 2.25 -0.284 -0.284 -0.284 -0.284 -0.284 13.50851 13.50940-10.16510   9.564
 4.30 2.50 -0.204 -0.204 -0.204 -0.204 -0.204 13.75838 13.75944 -9.91507  12.752
 4.30 2.75 -0.100 -0.100 -0.100 -0.099 -0.099 14.00827 14.00961 -9.66490  17.003
 4.30 3.00  0.032  0.032  0.032  0.032  0.032 14.25816 14.25983 -9.41465  22.670
 4.30 3.20  0.160  0.160  0.160  0.160  0.160 14.45790 14.46003 -9.21444  28.533
 4.30 3.40  0.306  0.306  0.306  0.307  0.307 14.65754 14.66028 -9.01416  35.908
 4.30 3.60  0.470  0.470  0.470  0.470  0.471 14.85709 14.86063 -8.81376  45.184
 4.30 3.80  0.649  0.649  0.649  0.649  0.649 15.05651 15.06120 -8.61313  56.845
 4.30 4.00  0.839  0.839  0.839  0.839  0.839 15.25576 15.26198 -8.41229  71.499
 4.30 4.20  1.036  1.036  1.036  1.036  1.036 15.45455 15.46317 -8.21112  89.887
 4.30 4.40  1.238  1.238  1.238  1.238  1.238 15.65293 15.66474 -8.00959 112.951
 4.30 4.60  1.443  1.443  1.443  1.443  1.443 15.85085 15.86676 -7.80757 141.855
 4.30 4.80  1.650  1.650  1.650  1.650  1.650 16.04828 16.06922 -7.60507 178.052
 4.30 5.00  1.858  1.858  1.858  1.858  1.858 16.24527 16.27207 -7.40220 223.374
 4.30 5.20  2.067  2.067  2.067  2.067  2.067 16.44192 16.47519 -7.19914 280.134
 4.30 5.40  2.279  2.279  2.279  2.279  2.279 16.63805 16.67874 -6.99569 351.112
 4.30 5.60  2.492  2.492  2.492  2.492  2.492 16.83374 16.88267 -6.79183 439.842
 4.30 5.80  2.705  2.705  2.705  2.705  2.705 17.02861 17.08728 -6.58722 550.448
 4.30 6.00  2.914  2.914  2.914  2.914  2.914 17.22246 17.29270 -6.38174 688.035
 4.30 6.25  3.165  3.165  3.165  3.165  3.165 17.46094 17.55219 -6.12223 905.439
 4.30 6.50  3.403  3.403  3.403  3.403  3.403 17.69452 17.81491 -5.859491184.864
 4.30 6.75  3.615  3.615  3.615  3.615  3.615 17.91976 18.08306 -5.591361535.559
 4.30 7.00  3.807  3.807  3.807  3.807  3.807 18.13609 18.35468 -5.319761969.734
 4.30 7.25  3.968  3.968  3.968  3.968  3.968 18.34049 18.63032 -5.044142492.564
 4.30 7.50  4.112  4.112  4.112  4.112  4.112 18.53479 18.90596 -4.768533117.686
 4.30 7.75  4.235  4.235  4.235  4.235  4.235 18.71980 19.18042 -4.494053857.796
 4.30 8.00  4.350  4.350  4.350  4.350  4.350 18.89526 19.45408 -4.220334721.092
 4.35-2.00 -0.474 -0.474 -0.474 -0.474 -0.473  9.22246  9.19507-14.47939   0.067
 4.35-1.50 -0.483 -0.483 -0.483 -0.483 -0.483  9.71767  9.69992-13.97429   0.117
 4.35-1.00 -0.491 -0.491 -0.491 -0.491 -0.491 10.21299 10.20466-13.46967   0.205
 4.35-0.50 -0.494 -0.494 -0.494 -0.494 -0.494 10.71037 10.70731-12.96698   0.362
 4.35 0.00 -0.491 -0.491 -0.491 -0.491 -0.491 11.20925 11.20844-12.46585   0.641
 4.35 0.50 -0.479 -0.479 -0.479 -0.479 -0.479 11.70893 11.70885-11.96537   1.138
 4.35 1.00 -0.455 -0.455 -0.455 -0.455 -0.455 12.20871 12.20898-11.46534   2.022
 4.35 1.25 -0.439 -0.439 -0.439 -0.439 -0.439 12.45868 12.45904-11.21536   2.696
 4.35 1.50 -0.419 -0.419 -0.419 -0.419 -0.419 12.70868 12.70910-10.96537   3.596
 4.35 1.75 -0.395 -0.395 -0.395 -0.395 -0.395 12.95869 12.95917-10.71523   4.795
 4.35 2.00 -0.363 -0.363 -0.363 -0.363 -0.363 13.20871 13.20925-10.46509   6.393
 4.35 2.25 -0.320 -0.320 -0.320 -0.320 -0.320 13.45861 13.45926-10.21503   8.525
 4.35 2.50 -0.261 -0.261 -0.261 -0.261 -0.261 13.70851 13.70927 -9.96497  11.367
 4.35 2.75 -0.182 -0.182 -0.182 -0.182 -0.182 13.95847 13.95939 -9.71491  15.157
 4.35 3.00 -0.078 -0.078 -0.078 -0.078 -0.078 14.20844 14.20951 -9.46483  20.211
 4.35 3.20  0.024  0.024  0.024  0.024  0.024 14.40826 14.40962 -9.26475  25.441
 4.35 3.40  0.147  0.147  0.147  0.147  0.147 14.60809 14.60972 -9.06464  32.024
 4.35 3.60  0.289  0.289  0.289  0.289  0.289 14.80792 14.80986 -8.86450  40.308
 4.35 3.80  0.449  0.449  0.449  0.449  0.449 15.00778 15.01006 -8.66431  50.735
 4.35 4.00  0.625  0.625  0.625  0.625  0.625 15.20763 15.21032 -8.46407  63.855
 4.35 4.20  0.814  0.814  0.814  0.814  0.814 15.40726 15.41065 -8.26374  80.356
 4.35 4.40  1.012  1.012  1.012  1.012  1.012 15.60671 15.61111 -8.06326 101.106
 4.35 4.60  1.218  1.218  1.218  1.218  1.218 15.80602 15.81176 -7.86262 127.188
 4.35 4.80  1.428  1.428  1.428  1.428  1.428 16.00508 16.01275 -7.66167 159.946
 4.35 5.00  1.641  1.641  1.641  1.641  1.641 16.20385 16.21405 -7.46042 201.070
 4.35 5.20  1.855  1.855  1.855  1.855  1.855 16.40204 16.41577 -7.25866 252.599
 4.35 5.40  2.070  2.070  2.070  2.070  2.070 16.59967 16.61797 -7.05639 317.131
 4.35 5.60  2.285  2.285  2.285  2.285  2.285 16.79672 16.82071 -6.85359 397.893
 4.35 5.80  2.500  2.500  2.500  2.500  2.500 16.99305 17.02410 -6.65016 498.824
 4.35 6.00  2.717  2.717  2.717  2.717  2.717 17.18865 17.22814 -6.44612 624.828
 4.35 6.25  2.986  2.986  2.986  2.986  2.986 17.43211 17.48405 -6.19026 826.958
 4.35 6.50  3.251  3.251  3.251  3.251  3.251 17.67367 17.74147 -5.932931092.034
 4.35 6.75  3.503  3.503  3.503  3.503  3.503 17.91184 18.00143 -5.672981436.462
 4.35 7.00  3.743  3.743  3.743  3.743  3.743 18.14551 18.26435 -5.410051879.760
 4.35 7.25  3.957  3.957  3.957  3.958  3.958 18.37130 18.53197 -5.142422437.914
 4.35 7.50  4.154  4.154  4.154  4.154  4.154 18.58894 18.80277 -4.871603132.394
 4.35 7.75  4.322  4.322  4.322  4.322  4.322 18.79634 19.07603 -4.598343977.283
 4.35 8.00  4.475  4.475  4.475  4.475  4.475 18.99419 19.35199 -4.322394994.742
 4.40-2.00 -0.465 -0.465 -0.465 -0.465 -0.464  9.17696  9.14019-14.53417   0.060
 4.40-1.50 -0.465 -0.465 -0.465 -0.465 -0.465  9.67633  9.64068-14.03367   0.107
 4.40-1.00 -0.467 -0.467 -0.467 -0.467 -0.467 10.17522 10.14208-13.53224   0.190
 4.40-0.50 -0.472 -0.472 -0.472 -0.472 -0.472 10.67201 10.64532-13.02905   0.335
 4.40 0.00 -0.479 -0.479 -0.479 -0.478 -0.478 11.16732 11.15045-12.52389   0.586
 4.40 0.50 -0.478 -0.478 -0.478 -0.478 -0.478 11.66266 11.65504-12.01931   1.027
 4.40 1.00 -0.463 -0.463 -0.463 -0.463 -0.462 12.16017 12.15776-11.51670   1.811
 4.40 1.25 -0.448 -0.448 -0.448 -0.448 -0.447 12.40957 12.40826-11.26616   2.409
 4.40 1.50 -0.428 -0.428 -0.428 -0.427 -0.427 12.65916 12.65858-11.01579   3.208
 4.40 1.75 -0.402 -0.402 -0.402 -0.402 -0.402 12.90885 12.90881-10.76548   4.275
 4.40 2.00 -0.372 -0.372 -0.372 -0.372 -0.371 13.15866 13.15897-10.51527   5.699
 4.40 2.25 -0.335 -0.335 -0.335 -0.334 -0.334 13.40862 13.40907-10.26522   7.599
 4.40 2.50 -0.287 -0.287 -0.287 -0.287 -0.287 13.65858 13.65915-10.01516  10.132
 4.40 2.75 -0.225 -0.225 -0.225 -0.225 -0.225 13.90847 13.90921 -9.76508  13.510
 4.40 3.00 -0.144 -0.144 -0.144 -0.144 -0.144 14.15836 14.15927 -9.51499  18.015
 4.40 3.20 -0.061 -0.061 -0.061 -0.061 -0.061 14.35830 14.35936 -9.31492  22.677
 4.40 3.40  0.038  0.038  0.038  0.038  0.039 14.55823 14.55948 -9.11484  28.546
 4.40 3.60  0.158  0.158  0.159  0.159  0.159 14.75817 14.75960 -8.91472  35.933
 4.40 3.80  0.299  0.299  0.299  0.299  0.299 14.95812 14.95973 -8.71457  45.232
 4.40 4.00  0.457  0.457  0.457  0.457  0.458 15.15806 15.15987 -8.51442  56.937
 4.40 4.20  0.632  0.632  0.632  0.632  0.632 15.35785 15.36002 -8.31427  71.665
 4.40 4.40  0.820  0.820  0.820  0.820  0.820 15.55759 15.56020 -8.11411  90.198
 4.40 4.60  1.018  1.018  1.018  1.018  1.018 15.75730 15.76045 -7.91391 113.519
 4.40 4.80  1.223  1.223  1.223  1.223  1.223 15.95696 15.96085 -7.71358 142.857
 4.40 5.00  1.434  1.434  1.434  1.434  1.434 16.15655 16.16137 -7.51314 179.758
 4.40 5.20  1.649  1.649  1.649  1.649  1.649 16.35591 16.36199 -7.31251 226.134
 4.40 5.40  1.867  1.867  1.867  1.867  1.867 16.55501 16.56283 -7.11162 284.389
 4.40 5.60  2.087  2.087  2.087  2.087  2.087 16.75381 16.76398 -6.91043 357.523
 4.40 5.80  2.308  2.308  2.308  2.308  2.308 16.95209 16.96569 -6.70873 449.201
 4.40 6.00  2.530  2.530  2.530  2.530  2.530 17.14983 17.16791 -6.50654 564.040
 4.40 6.25  2.806  2.806  2.806  2.806  2.806 17.39582 17.42168 -6.25281 748.696
 4.40 6.50  3.083  3.083  3.083  3.083  3.083 17.64038 17.67669 -5.99784 992.182
 4.40 6.75  3.356  3.356  3.356  3.356  3.356 17.88329 17.93316 -5.741381312.386
 4.40 7.00  3.621  3.621  3.621  3.621  3.621 18.12385 18.19145 -5.483071731.282
 4.40 7.25  3.870  3.870  3.870  3.870  3.870 18.36099 18.45210 -5.222262274.696
 4.40 7.50  4.108  4.108  4.108  4.108  4.108 18.59362 18.71559 -4.958612973.127
 4.40 7.75  4.320  4.320  4.320  4.320  4.320 18.81862 18.98303 -4.691243852.369
 4.40 8.00  4.517  4.517  4.517  4.517  4.517 19.03703 19.25406 -4.420454954.153
 4.45-2.00 -0.464 -0.464 -0.464 -0.464 -0.464  9.12710  9.08991-14.58436   0.054
 4.45-1.50 -0.464 -0.464 -0.464 -0.464 -0.464  9.62696  9.58995-14.08439   0.096
 4.45-1.00 -0.464 -0.464 -0.464 -0.464 -0.464 10.12678 10.09026-13.58419   0.171
 4.45-0.50 -0.464 -0.464 -0.464 -0.464 -0.463 10.62665 10.59028-13.08402   0.303
 4.45 0.00 -0.463 -0.463 -0.463 -0.463 -0.463 11.12613 11.09096-12.58319   0.538
 4.45 0.50 -0.461 -0.461 -0.461 -0.461 -0.461 11.62418 11.59306-12.08129   0.951
 4.45 1.00 -0.454 -0.454 -0.454 -0.454 -0.454 12.12024 12.09726-11.57708   1.669
 4.45 1.25 -0.445 -0.445 -0.445 -0.445 -0.445 12.36773 12.34988-11.32447   2.207
 4.45 1.50 -0.431 -0.431 -0.431 -0.430 -0.430 12.61521 12.60249-11.07186   2.919
 4.45 1.75 -0.409 -0.409 -0.409 -0.409 -0.409 12.86306 12.85471-10.81973   3.865
 4.45 2.00 -0.381 -0.381 -0.381 -0.381 -0.380 13.11126 13.10653-10.56799   5.124
 4.45 2.25 -0.344 -0.344 -0.344 -0.344 -0.344 13.36018 13.35754-10.31688   6.807
 4.45 2.50 -0.300 -0.300 -0.300 -0.300 -0.299 13.60949 13.60821-10.06611   9.054
 4.45 2.75 -0.246 -0.246 -0.246 -0.246 -0.245 13.85917 13.85860 -9.81560  12.056
 4.45 3.00 -0.178 -0.178 -0.178 -0.178 -0.177 14.10890 14.10890 -9.56527  16.063
 4.45 3.20 -0.110 -0.110 -0.110 -0.110 -0.110 14.30869 14.30912 -9.36516  20.217
 4.45 3.40 -0.027 -0.027 -0.027 -0.027 -0.027 14.50850 14.50931 -9.16505  25.447
 4.45 3.60  0.073  0.073  0.073  0.073  0.073 14.70838 14.70942 -8.96492  32.032
 4.45 3.80  0.193  0.193  0.193  0.193  0.193 14.90830 14.90950 -8.76478  40.321
 4.45 4.00  0.333  0.333  0.333  0.333  0.333 15.10823 15.10958 -8.56463  50.756
 4.45 4.20  0.492  0.492  0.492  0.492  0.492 15.30807 15.30974 -8.36452  63.888
 4.45 4.40  0.667  0.667  0.667  0.667  0.667 15.50788 15.50992 -8.16440  80.416
 4.45 4.60  0.855  0.855  0.855  0.855  0.855 15.70768 15.71012 -7.96426 101.218
 4.45 4.80  1.052  1.052  1.052  1.053  1.053 15.90746 15.91034 -7.76407 127.399
 4.45 5.00  1.258  1.258  1.258  1.258  1.258 16.10721 16.11059 -7.56384 160.347
 4.45 5.20  1.469  1.469  1.469  1.469  1.469 16.30693 16.31087 -7.36355 201.794
 4.45 5.40  1.684  1.684  1.684  1.684  1.684 16.50658 16.51121 -7.16316 253.924
 4.45 5.60  1.902  1.902  1.902  1.902  1.903 16.70612 16.71166 -6.96266 319.483
 4.45 5.80  2.124  2.124  2.124  2.124  2.124 16.90543 16.91235 -6.76193 401.882
 4.45 6.00  2.347  2.347  2.347  2.347  2.347 17.10449 17.11328 -6.56098 505.406
 4.45 6.25  2.629  2.629  2.629  2.629  2.629 17.35271 17.36501 -6.30929 672.591
 4.45 6.50  2.912  2.912  2.912  2.912  2.912 17.60010 17.61753 -6.05685 894.222
 4.45 6.75  3.195  3.195  3.195  3.195  3.195 17.84615 17.87129 -5.803091187.140
 4.45 7.00  3.477  3.477  3.477  3.477  3.477 18.09061 18.12646 -5.547911573.141
 4.45 7.25  3.751  3.751  3.751  3.751  3.751 18.33299 18.38336 -5.291012079.404
 4.45 7.50  4.013  4.013  4.013  4.013  4.013 18.57264 18.64237 -5.032032739.893
 4.45 7.75  4.256  4.256  4.256  4.256  4.256 18.80793 18.90426 -4.770183592.609
 4.45 8.00  4.487  4.487  4.487  4.487  4.487 19.03941 19.16879 -4.505714690.461
 4.50-2.00 -0.464 -0.464 -0.464 -0.464 -0.464  9.07700  9.03981-14.63433   0.048
 4.50-1.50 -0.464 -0.464 -0.464 -0.464 -0.464  9.57703  9.53995-14.13442   0.086
 4.50-1.00 -0.464 -0.464 -0.464 -0.464 -0.464 10.07700 10.04021-13.63433   0.152
 4.50-0.50 -0.464 -0.464 -0.463 -0.463 -0.463 10.57692 10.53995-13.13436   0.270
 4.50 0.00 -0.463 -0.463 -0.463 -0.462 -0.462 11.07700 11.04021-12.63433   0.481
 4.50 0.50 -0.460 -0.460 -0.460 -0.460 -0.460 11.57669 11.54033-12.13407   0.854
 4.50 1.00 -0.453 -0.453 -0.453 -0.453 -0.452 12.07628 12.04100-11.63358   1.517
 4.50 1.25 -0.445 -0.445 -0.445 -0.445 -0.445 12.32577 12.29149-11.38301   2.020
 4.50 1.50 -0.433 -0.433 -0.433 -0.433 -0.432 12.57496 12.54220-11.13212   2.686
 4.50 1.75 -0.414 -0.414 -0.414 -0.414 -0.413 12.82365 12.79373-10.88066   3.567
 4.50 2.00 -0.386 -0.386 -0.386 -0.386 -0.385 13.07188 13.04571-10.62875   4.729
 4.50 2.25 -0.349 -0.349 -0.349 -0.349 -0.348 13.31940 13.29822-10.37621   6.255
 4.50 2.50 -0.304 -0.304 -0.304 -0.303 -0.303 13.56691 13.55072-10.12367   8.273
 4.50 2.75 -0.251 -0.251 -0.251 -0.251 -0.250 13.81450 13.80312 -9.87121  10.946
 4.50 3.00 -0.188 -0.188 -0.188 -0.188 -0.188 14.06221 14.05538 -9.61889  14.489
 4.50 3.20 -0.129 -0.129 -0.129 -0.129 -0.128 14.26103 14.25662 -9.41768  18.164
 4.50 3.40 -0.058 -0.058 -0.058 -0.058 -0.058 14.46013 14.45760 -9.21675  22.792
 4.50 3.60  0.026  0.026  0.026  0.026  0.026 14.65955 14.65830 -9.01611  28.629
 4.50 3.80  0.128  0.128  0.128  0.128  0.128 14.85914 14.85882 -8.81564  35.988
 4.50 4.00  0.249  0.249  0.249  0.249  0.249 15.05881 15.05918 -8.61529  45.265
 4.50 4.20  0.390  0.390  0.390  0.390  0.390 15.25849 15.25938 -8.41503  56.966
 4.50 4.40  0.550  0.550  0.550  0.550  0.550 15.45823 15.45957 -8.21480  71.697
 4.50 4.60  0.725  0.725  0.725  0.725  0.725 15.65802 15.65980 -8.01460  90.242
 4.50 4.80  0.914  0.914  0.914  0.914  0.914 15.85784 15.86006 -7.81441 113.585
 4.50 5.00  1.112  1.112  1.112  1.112  1.112 16.05767 16.06032 -7.61421 142.966
 4.50 5.20  1.317  1.317  1.317  1.317  1.317 16.25744 16.26049 -7.41400 179.937
 4.50 5.40  1.528  1.528  1.528  1.528  1.528 16.45717 16.46066 -7.21376 226.457
 4.50 5.60  1.743  1.743  1.743  1.743  1.743 16.65688 16.66090 -7.01347 284.992
 4.50 5.80  1.961  1.961  1.961  1.961  1.961 16.85655 16.86131 -6.81309 358.631
 4.50 6.00  2.182  2.182  2.182  2.182  2.183 17.05614 17.06183 -6.61261 451.255
 4.50 6.25  2.462  2.462  2.462  2.462  2.462 17.30527 17.31262 -6.36177 601.174
 4.50 6.50  2.744  2.744  2.744  2.744  2.744 17.55400 17.56372 -6.11059 800.557
 4.50 6.75  3.030  3.030  3.030  3.030  3.030 17.80221 17.81554 -5.858811065.335
 4.50 7.00  3.319  3.319  3.319  3.319  3.319 18.04961 18.06819 -5.606251416.326
 4.50 7.25  3.604  3.604  3.604  3.604  3.604 18.29544 18.32203 -5.352381879.799
 4.50 7.50  3.886  3.886  3.886  3.886  3.886 18.53945 18.57738 -5.096962489.846
 4.50 7.75  4.155  4.155  4.155  4.155  4.155 18.78071 18.83507 -4.839213287.114
 4.50 8.00  4.408  4.408  4.408  4.408  4.408 19.01953 19.09482 -4.579384327.292
 4.55-2.00 -0.464 -0.464 -0.464 -0.464 -0.464  9.02694  8.98998-14.68445   0.043
 4.55-1.50 -0.464 -0.464 -0.464 -0.464 -0.464  9.52699  9.48996-14.18442   0.076
 4.55-1.00 -0.464 -0.464 -0.464 -0.464 -0.464 10.02694  9.98998-13.68445   0.136
 4.55-0.50 -0.464 -0.464 -0.464 -0.464 -0.463 10.52699 10.48996-13.18436   0.241
 4.55 0.00 -0.463 -0.463 -0.463 -0.463 -0.463 11.02694 10.99003-12.68424   0.429
 4.55 0.50 -0.462 -0.462 -0.462 -0.462 -0.461 11.52699 11.49010-12.18429   0.762
 4.55 1.00 -0.457 -0.457 -0.457 -0.457 -0.457 12.02694 11.99016-11.68424   1.355
 4.55 1.25 -0.453 -0.453 -0.453 -0.453 -0.453 12.27686 12.24020-11.43418   1.806
 4.55 1.50 -0.446 -0.446 -0.446 -0.446 -0.445 12.52673 12.49024-11.18409   2.408
 4.55 1.75 -0.433 -0.433 -0.433 -0.433 -0.433 12.77648 12.74046-10.93391   3.209
 4.55 2.00 -0.414 -0.414 -0.414 -0.414 -0.413 13.02612 12.99083-10.68361   4.276
 4.55 2.25 -0.384 -0.384 -0.384 -0.384 -0.383 13.27568 13.24133-10.43310   5.693
 4.55 2.50 -0.341 -0.341 -0.341 -0.341 -0.340 13.52505 13.49206-10.18230   7.574
 4.55 2.75 -0.282 -0.282 -0.282 -0.281 -0.281 13.77397 13.74337 -9.93100  10.061
 4.55 3.00 -0.207 -0.207 -0.207 -0.207 -0.207 14.02243 13.99515 -9.67923  13.346
 4.55 3.20 -0.139 -0.139 -0.139 -0.139 -0.138 14.22044 14.19710 -9.47721  16.696
 4.55 3.40 -0.064 -0.064 -0.064 -0.063 -0.063 14.41845 14.39909 -9.27519  20.886
 4.55 3.60  0.018  0.018  0.018  0.018  0.018 14.61649 14.60112 -9.07318  26.125
 4.55 3.80  0.110  0.110  0.110  0.110  0.110 14.81462 14.80315 -8.87117  32.677
 4.55 4.00  0.215  0.215  0.215  0.215  0.215 15.01284 15.00518 -8.66918  40.873
 4.55 4.20  0.337  0.337  0.337  0.337  0.337 15.21142 15.20658 -8.46780  51.211
 4.55 4.40  0.477  0.477  0.477  0.477  0.477 15.41024 15.40768 -8.26672  64.230
 4.55 4.60  0.634  0.634  0.634  0.634  0.634 15.60934 15.60845 -8.06596  80.661
 4.55 4.80  0.808  0.808  0.808  0.808  0.808 15.80867 15.80901 -7.86539 101.391
 4.55 5.00  0.994  0.994  0.994  0.994  0.994 16.00817 16.00945 -7.66494 127.523
 4.55 5.20  1.191  1.191  1.191  1.191  1.191 16.20785 16.20978 -7.46459 160.475
 4.55 5.40  1.395  1.395  1.395  1.395  1.395 16.40757 16.41011 -7.26423 201.948
 4.55 5.60  1.605  1.605  1.605  1.605  1.605 16.60734 16.61045 -7.06388 254.146
 4.55 5.80  1.819  1.819  1.819  1.819  1.819 16.80712 16.81079 -6.86351 319.838
 4.55 6.00  2.036  2.036  2.036  2.036  2.036 17.00690 17.01115 -6.66314 402.510
 4.55 6.25  2.311  2.311  2.311  2.311  2.311 17.25627 17.26166 -6.41265 536.421
 4.55 6.50  2.589  2.589  2.589  2.589  2.589 17.50542 17.51229 -6.16210 714.746
 4.55 6.75  2.869  2.869  2.869  2.869  2.869 17.75440 17.76321 -5.91114 952.081
 4.55 7.00  3.156  3.156  3.156  3.156  3.156 18.00303 18.01452 -5.659751267.669
 4.55 7.25  3.443  3.443  3.443  3.443  3.443 18.25099 18.26653 -5.407761686.427
 4.55 7.50  3.731  3.731  3.731  3.731  3.731 18.49804 18.51944 -5.154902241.035
 4.55 7.75  4.012  4.012  4.012  4.012  4.012 18.74324 18.77393 -4.900412971.954
 4.55 8.00  4.285  4.285  4.285  4.285  4.285 18.98691 19.02979 -4.644553934.445
 4.60-2.00 -0.464 -0.464 -0.464 -0.464 -0.464  8.97708  8.93997-14.73448   0.038
 4.60-1.50 -0.464 -0.464 -0.464 -0.464 -0.464  9.47698  9.43996-14.23441   0.068
 4.60-1.00 -0.464 -0.464 -0.464 -0.464 -0.464  9.97704  9.93997-13.73448   0.121
 4.60-0.50 -0.464 -0.464 -0.464 -0.464 -0.464 10.47698 10.43996-13.23441   0.215
 4.60 0.00 -0.464 -0.464 -0.464 -0.463 -0.463 10.97704 10.94002-12.73424   0.382
 4.60 0.50 -0.463 -0.463 -0.463 -0.463 -0.462 11.47698 11.43996-12.23433   0.679
 4.60 1.00 -0.460 -0.460 -0.460 -0.460 -0.460 11.97699 11.94007-11.73424   1.208
 4.60 1.25 -0.458 -0.458 -0.458 -0.458 -0.458 12.22691 12.19009-11.48425   1.610
 4.60 1.50 -0.454 -0.454 -0.454 -0.454 -0.454 12.47683 12.44012-11.23426   2.147
 4.60 1.75 -0.447 -0.447 -0.447 -0.447 -0.447 12.72684 12.69016-10.98426   2.863
 4.60 2.00 -0.436 -0.436 -0.436 -0.436 -0.436 12.97685 12.94022-10.73424   3.817
 4.60 2.25 -0.418 -0.418 -0.418 -0.418 -0.418 13.22671 13.19031-10.48414   5.089
 4.60 2.50 -0.390 -0.390 -0.390 -0.389 -0.389 13.47654 13.44044-10.23396   6.783
 4.60 2.75 -0.347 -0.347 -0.347 -0.347 -0.347 13.72637 13.69065 -9.98369   9.040
 4.60 3.00 -0.287 -0.287 -0.287 -0.287 -0.287 13.97617 13.94097 -9.73330  12.044
 4.60 3.20 -0.225 -0.225 -0.225 -0.225 -0.224 14.17577 14.14137 -9.53290  15.143
 4.60 3.40 -0.147 -0.147 -0.147 -0.147 -0.147 14.37517 14.34196 -9.33236  19.029
 4.60 3.60 -0.054 -0.054 -0.054 -0.054 -0.054 14.57435 14.54283 -9.13150  23.893
 4.60 3.80  0.052  0.052  0.052  0.052  0.053 14.77323 14.74407 -8.93021  29.969
 4.60 4.00  0.173  0.173  0.173  0.173  0.173 14.97183 14.94562 -8.72862  37.555
 4.60 4.20  0.303  0.303  0.303  0.303  0.304 15.16985 15.14772 -8.52662  46.970
 4.60 4.40  0.443  0.443  0.443  0.443  0.443 15.36786 15.34982 -8.32460  58.745
 4.60 4.60  0.591  0.591  0.591  0.591  0.591 15.56588 15.55189 -8.12257  73.473
 4.60 4.80  0.749  0.749  0.749  0.749  0.750 15.76394 15.75389 -7.92054  91.898
 4.60 5.00  0.918  0.918  0.918  0.918  0.918 15.96204 15.95578 -7.71851 114.952
 4.60 5.20  1.098  1.098  1.098  1.098  1.098 16.16067 16.15711 -7.51719 144.013
 4.60 5.40  1.287  1.287  1.287  1.287  1.287 16.35955 16.35819 -7.31611 180.621
 4.60 5.60  1.485  1.485  1.485  1.485  1.485 16.55874 16.55902 -7.11527 226.930
 4.60 5.80  1.690  1.690  1.690  1.690  1.690 16.75811 16.75970 -6.91456 285.424
 4.60 6.00  1.900  1.900  1.900  1.900  1.900 16.95756 16.96028 -6.71399 359.076
 4.60 6.25  2.167  2.167  2.167  2.167  2.168 17.20696 17.21089 -6.46348 478.499
 4.60 6.50  2.440  2.440  2.440  2.440  2.440 17.45637 17.46150 -6.21297 637.640
 4.60 6.75  2.709  2.709  2.709  2.709  2.709 17.70566 17.71219 -5.96223 849.626
 4.60 7.00  2.989  2.989  2.989  2.989  2.989 17.95482 17.96299 -5.711301131.930
 4.60 7.25  3.270  3.270  3.270  3.270  3.270 18.20362 18.21411 -5.460151507.356
 4.60 7.50  3.554  3.554  3.554  3.554  3.554 18.45194 18.46568 -5.208592006.180
 4.60 7.75  3.835  3.835  3.835  3.835  3.835 18.69930 18.71824 -4.956032667.181
 4.60 8.00  4.113  4.113  4.113  4.113  4.113 18.94586 18.97160 -4.702683542.748
 4.65-2.00 -0.464 -0.464 -0.464 -0.464 -0.464  8.92706  8.88997-14.78436   0.034
 4.65-1.50 -0.464 -0.464 -0.464 -0.464 -0.464  9.42700  9.38987-14.28441   0.061
 4.65-1.00 -0.464 -0.464 -0.464 -0.464 -0.464  9.92706  9.88997-13.78436   0.108
 4.65-0.50 -0.464 -0.464 -0.464 -0.464 -0.464 10.42700 10.39005-13.28442   0.191
 4.65 0.00 -0.464 -0.464 -0.464 -0.464 -0.463 10.92706 10.89003-12.78436   0.340
 4.65 0.50 -0.463 -0.463 -0.463 -0.463 -0.463 11.42700 11.39005-12.28433   0.605
 4.65 1.00 -0.462 -0.462 -0.462 -0.462 -0.461 11.92701 11.89009-11.78436   1.076
 4.65 1.25 -0.460 -0.460 -0.460 -0.460 -0.460 12.17701 12.14007-11.53436   1.435
 4.65 1.50 -0.458 -0.458 -0.458 -0.458 -0.458 12.42700 12.39005-11.28433   1.914
 4.65 1.75 -0.455 -0.455 -0.455 -0.455 -0.454 12.67695 12.64010-11.03421   2.552
 4.65 2.00 -0.449 -0.449 -0.449 -0.448 -0.448 12.92691 12.89014-10.78410   3.403
 4.65 2.25 -0.438 -0.438 -0.438 -0.438 -0.438 13.17687 13.14019-10.53413   4.537
 4.65 2.50 -0.422 -0.422 -0.422 -0.422 -0.421 13.42684 13.39023-10.28416   6.049
 4.65 2.75 -0.395 -0.395 -0.395 -0.395 -0.395 13.67678 13.64029-10.03415   8.065
 4.65 3.00 -0.356 -0.356 -0.356 -0.355 -0.355 13.92670 13.89037 -9.78410  10.754
 4.65 3.20 -0.311 -0.311 -0.311 -0.311 -0.311 14.12659 14.09044 -9.58400  13.535
 4.65 3.40 -0.253 -0.253 -0.253 -0.253 -0.253 14.32644 14.29053 -9.38384  17.032
 4.65 3.60 -0.181 -0.181 -0.181 -0.180 -0.180 14.52626 14.49069 -9.18365  21.430
 4.65 3.80 -0.091 -0.091 -0.091 -0.091 -0.090 14.72605 14.69100 -8.98339  26.958
 4.65 4.00  0.016  0.016  0.016  0.017  0.017 14.92578 14.89143 -8.78304  33.902
 4.65 4.20  0.144  0.144  0.144  0.144  0.145 15.12526 15.09199 -8.58247  42.609
 4.65 4.40  0.291  0.291  0.292  0.292  0.292 15.32452 15.29276 -8.38166  53.514
 4.65 4.60  0.455  0.455  0.456  0.456  0.456 15.52348 15.49385 -8.18053  67.146
 4.65 4.80  0.632  0.632  0.632  0.632  0.632 15.72210 15.69532 -7.97905  84.154
 4.65 5.00  0.815  0.815  0.815  0.815  0.816 15.92044 15.89708 -7.77728 105.369
 4.65 5.20  1.002  1.002  1.002  1.002  1.002 16.11832 16.09929 -7.57509 131.723
 4.65 5.40  1.190  1.190  1.190  1.190  1.190 16.31620 16.30150 -7.37290 164.668
 4.65 5.60  1.379  1.379  1.380  1.380  1.380 16.51414 16.50363 -7.17077 205.885
 4.65 5.80  1.572  1.572  1.572  1.572  1.572 16.71228 16.70554 -6.96880 257.563
 4.65 6.00  1.769  1.769  1.769  1.769  1.769 16.91057 16.90725 -6.76700 322.386
 4.65 6.25  2.022  2.022  2.022  2.022  2.022 17.15898 17.15874 -6.51558 428.066
 4.65 6.50  2.282  2.282  2.282  2.282  2.282 17.40773 17.40993 -6.26440 569.277
 4.65 6.75  2.541  2.541  2.541  2.541  2.541 17.65687 17.66087 -6.01343 758.359
 4.65 7.00  2.806  2.806  2.806  2.806  2.806 17.90601 17.91180 -5.762461010.243
 4.65 7.25  3.078  3.078  3.078  3.078  3.078 18.15500 18.16277 -5.511481345.637
 4.65 7.50  3.352  3.352  3.352  3.352  3.352 18.40381 18.41380 -5.260511792.101
 4.65 7.75  3.625  3.625  3.625  3.625  3.625 18.65220 18.66542 -5.008932385.329
 4.65 8.00  3.898  3.898  3.898  3.898  3.898 18.90026 18.91745 -4.756963173.551
 4.70-2.00 -0.464 -0.464 -0.464 -0.464 -0.464  8.87708  8.83998-14.83446   0.030
 4.70-1.50 -0.464 -0.464 -0.464 -0.464 -0.464  9.37694  9.33985-14.33442   0.054
 4.70-1.00 -0.464 -0.464 -0.464 -0.464 -0.464  9.87708  9.83998-13.83446   0.096
 4.70-0.50 -0.464 -0.464 -0.464 -0.464 -0.464 10.37694 10.34005-13.33442   0.171
 4.70 0.00 -0.464 -0.464 -0.464 -0.464 -0.464 10.87703 10.83998-12.83446   0.303
 4.70 0.50 -0.463 -0.463 -0.463 -0.463 -0.463 11.37694 11.34005-12.33442   0.539
 4.70 1.00 -0.462 -0.462 -0.462 -0.462 -0.462 11.87703 11.84004-11.83446   0.959
 4.70 1.25 -0.461 -0.461 -0.461 -0.461 -0.461 12.12698 12.09004-11.58440   1.279
 4.70 1.50 -0.460 -0.460 -0.460 -0.460 -0.460 12.37694 12.34005-11.33432   1.706
 4.70 1.75 -0.458 -0.458 -0.458 -0.458 -0.457 12.62696 12.59008-11.08424   2.275
 4.70 2.00 -0.454 -0.454 -0.454 -0.454 -0.454 12.87697 12.84011-10.83416   3.033
 4.70 2.25 -0.449 -0.449 -0.449 -0.449 -0.449 13.12696 13.09008-10.58420   4.044
 4.70 2.50 -0.440 -0.440 -0.440 -0.440 -0.439 13.37694 13.34005-10.33423   5.392
 4.70 2.75 -0.425 -0.425 -0.425 -0.425 -0.424 13.62688 13.59014-10.08421   7.190
 4.70 3.00 -0.400 -0.400 -0.400 -0.400 -0.400 13.87680 13.84023 -9.83416   9.587
 4.70 3.20 -0.372 -0.372 -0.372 -0.372 -0.372 14.07671 14.04024 -9.63412  12.068
 4.70 3.40 -0.333 -0.333 -0.333 -0.333 -0.333 14.27662 14.24024 -9.43407  15.190
 4.70 3.60 -0.282 -0.282 -0.282 -0.282 -0.281 14.47656 14.44031 -9.23402  19.120
 4.70 3.80 -0.216 -0.216 -0.216 -0.216 -0.215 14.67653 14.64045 -9.03395  24.064
 4.70 4.00 -0.133 -0.133 -0.133 -0.133 -0.133 14.87651 14.84061 -8.83387  30.286
 4.70 4.20 -0.033 -0.033 -0.033 -0.033 -0.033 15.07637 15.04076 -8.63370  38.111
 4.70 4.40  0.085  0.085  0.085  0.085  0.086 15.27616 15.24094 -8.43345  47.950
 4.70 4.60  0.224  0.224  0.224  0.224  0.224 15.47589 15.44120 -8.23312  60.315
 4.70 4.80  0.382  0.382  0.382  0.382  0.382 15.67551 15.64164 -8.03268  75.839
 4.70 5.00  0.557  0.557  0.557  0.557  0.557 15.87500 15.84223 -7.83209  95.316
 4.70 5.20  0.747  0.747  0.747  0.747  0.747 16.07423 16.04305 -7.63129 119.691
 4.70 5.40  0.948  0.948  0.949  0.949  0.949 16.27317 16.24414 -7.43021 150.165
 4.70 5.60  1.157  1.157  1.157  1.157  1.157 16.47172 16.44570 -7.22871 188.158
 4.70 5.80  1.367  1.367  1.367  1.367  1.368 16.66993 16.64764 -7.02684 235.500
 4.70 6.00  1.577  1.577  1.577  1.577  1.577 16.86794 16.84973 -6.82478 294.541
 4.70 6.25  1.836  1.836  1.836  1.836  1.836 17.11521 17.10249 -6.57195 389.195
 4.70 6.50  2.093  2.093  2.093  2.093  2.093 17.36248 17.35526 -6.31912 514.267
 4.70 6.75  2.349  2.349  2.349  2.349  2.349 17.61028 17.60753 -6.06690 680.811
 4.70 7.00  2.589  2.589  2.589  2.589  2.589 17.85842 17.85944 -5.81503 902.865
 4.70 7.25  2.850  2.850  2.850  2.850  2.850 18.10703 18.11077 -5.563611202.050
 4.70 7.50  3.113  3.113  3.113  3.113  3.113 18.35564 18.36211 -5.312201600.377
 4.70 7.75  3.376  3.376  3.376  3.376  3.376 18.60423 18.61352 -5.060802130.658
 4.70 8.00  3.640  3.640  3.640  3.640  3.640 18.85279 18.86498 -4.809392836.613
 4.75-2.00 -0.464 -0.464 -0.464 -0.464 -0.464  8.82705  8.79000-14.88439   0.027
 4.75-1.50 -0.464 -0.464 -0.464 -0.464 -0.464  9.32695  9.29004-14.38447   0.048
 4.75-1.00 -0.464 -0.464 -0.464 -0.464 -0.464  9.82705  9.79000-13.88439   0.086
 4.75-0.50 -0.464 -0.464 -0.464 -0.464 -0.464 10.32695 10.29003-13.38437   0.152
 4.75 0.00 -0.464 -0.464 -0.464 -0.464 -0.464 10.82705 10.79000-12.88439   0.270
 4.75 0.50 -0.464 -0.464 -0.464 -0.464 -0.463 11.32695 11.29004-12.38437   0.481
 4.75 1.00 -0.463 -0.463 -0.463 -0.463 -0.462 11.82705 11.79007-11.88439   0.855
 4.75 1.25 -0.462 -0.462 -0.462 -0.462 -0.461 12.07700 12.04006-11.63438   1.140
 4.75 1.50 -0.460 -0.460 -0.460 -0.460 -0.460 12.32695 12.29004-11.38437   1.520
 4.75 1.75 -0.459 -0.459 -0.459 -0.459 -0.458 12.57697 12.54006-11.13438   2.027
 4.75 2.00 -0.456 -0.456 -0.456 -0.456 -0.456 12.82698 12.79007-10.88439   2.703
 4.75 2.25 -0.453 -0.453 -0.453 -0.453 -0.453 13.07697 13.04005-10.63434   3.604
 4.75 2.50 -0.447 -0.447 -0.447 -0.447 -0.447 13.32695 13.29003-10.38426   4.806
 4.75 2.75 -0.439 -0.439 -0.439 -0.439 -0.439 13.57690 13.54012-10.13416   6.409
 4.75 3.00 -0.425 -0.425 -0.425 -0.425 -0.425 13.82685 13.79022 -9.88406   8.546
 4.75 3.20 -0.408 -0.408 -0.408 -0.408 -0.408 14.02681 13.99023 -9.68405  10.757
 4.75 3.40 -0.384 -0.384 -0.384 -0.384 -0.384 14.22677 14.19025 -9.48405  13.541
 4.75 3.60 -0.351 -0.351 -0.351 -0.351 -0.350 14.42673 14.39028 -9.28405  17.045
 4.75 3.80 -0.306 -0.306 -0.306 -0.306 -0.305 14.62669 14.59035 -9.08405  21.455
 4.75 4.00 -0.247 -0.247 -0.247 -0.247 -0.247 14.82666 14.79043 -8.88406  27.007
 4.75 4.20 -0.173 -0.173 -0.173 -0.173 -0.173 15.02653 14.99053 -8.68393  33.992
 4.75 4.40 -0.082 -0.082 -0.082 -0.082 -0.082 15.22640 15.19065 -8.48380  42.781
 4.75 4.60  0.025  0.025  0.025  0.025  0.026 15.42630 15.39076 -8.28367  53.840
 4.75 4.80  0.153  0.153  0.153  0.153  0.153 15.62622 15.59087 -8.08353  67.753
 4.75 5.00  0.298  0.298  0.298  0.298  0.298 15.82614 15.79099 -7.88339  85.254
 4.75 5.20  0.460  0.460  0.460  0.460  0.460 16.02590 15.99123 -7.68315 107.246
 4.75 5.40  0.637  0.637  0.637  0.637  0.637 16.22554 16.19159 -7.48280 134.867
 4.75 5.60  0.827  0.827  0.827  0.827  0.827 16.42506 16.39209 -7.28227 169.538
 4.75 5.80  1.029  1.029  1.029  1.029  1.029 16.62440 16.59282 -7.08146 212.981
 4.75 6.00  1.240  1.240  1.240  1.240  1.240 16.82354 16.79379 -6.88041 267.370
 4.75 6.25  1.511  1.511  1.511  1.512  1.512 17.07187 17.04554 -6.62875 354.640
 4.75 6.50  1.788  1.788  1.788  1.788  1.788 17.31973 17.29776 -6.37665 469.653
 4.75 6.75  2.063  2.063  2.063  2.063  2.063 17.56699 17.55064 -6.12380 620.559
 4.75 7.00  2.319  2.319  2.319  2.319  2.319 17.81425 17.80353 -5.87096 819.952
 4.75 7.25  2.583  2.583  2.583  2.583  2.583 18.06157 18.05625 -5.618221083.603
 4.75 7.50  2.844  2.844  2.844  2.844  2.844 18.30899 18.30878 -5.365621432.482
 4.75 7.75  3.102  3.102  3.102  3.102  3.102 18.55692 18.56086 -5.113491902.624
 4.75 8.00  3.358  3.358  3.358  3.358  3.358 18.80523 18.81258 -4.861702535.275
 4.80-2.00 -0.464 -0.464 -0.464 -0.464 -0.464  8.77706  8.73997-14.93442   0.024
 4.80-1.50 -0.464 -0.464 -0.464 -0.464 -0.464  9.27692  9.24005-14.43439   0.043
 4.80-1.00 -0.464 -0.464 -0.464 -0.464 -0.464  9.77706  9.73997-13.93442   0.076
 4.80-0.50 -0.464 -0.464 -0.464 -0.464 -0.464 10.27692 10.24005-13.43439   0.136
 4.80 0.00 -0.464 -0.464 -0.464 -0.464 -0.464 10.77706 10.73997-12.93442   0.241
 4.80 0.50 -0.464 -0.464 -0.464 -0.464 -0.464 11.27692 11.24005-12.43439   0.429
 4.80 1.00 -0.463 -0.463 -0.463 -0.463 -0.463 11.77699 11.74005-11.93442   0.762
 4.80 1.25 -0.463 -0.463 -0.463 -0.463 -0.463 12.02696 11.99005-11.68440   1.016
 4.80 1.50 -0.462 -0.462 -0.462 -0.462 -0.461 12.27692 12.24005-11.43439   1.355
 4.80 1.75 -0.460 -0.460 -0.460 -0.460 -0.460 12.52696 12.49005-11.18440   1.807
 4.80 2.00 -0.458 -0.458 -0.458 -0.458 -0.458 12.77699 12.74005-10.93442   2.409
 4.80 2.25 -0.455 -0.455 -0.455 -0.455 -0.455 13.02696 12.99005-10.68436   3.212
 4.80 2.50 -0.450 -0.450 -0.450 -0.450 -0.450 13.27692 13.24005-10.43427   4.284
 4.80 2.75 -0.444 -0.444 -0.444 -0.444 -0.444 13.52692 13.49013-10.18416   5.712
 4.80 3.00 -0.436 -0.436 -0.436 -0.436 -0.436 13.77692 13.74020 -9.93405   7.617
 4.80 3.20 -0.425 -0.425 -0.425 -0.425 -0.425 13.97683 13.94025 -9.73409   9.588
 4.80 3.40 -0.411 -0.411 -0.411 -0.411 -0.411 14.17674 14.14028 -9.53413  12.070
 4.80 3.60 -0.390 -0.390 -0.390 -0.390 -0.390 14.37669 14.34031 -9.33414  15.194
 4.80 3.80 -0.362 -0.362 -0.362 -0.362 -0.361 14.57670 14.54034 -9.13410  19.125
 4.80 4.00 -0.323 -0.323 -0.323 -0.323 -0.323 14.77670 14.74037 -8.93405  24.074
 4.80 4.20 -0.271 -0.271 -0.271 -0.271 -0.271 14.97661 14.94043 -8.73400  30.302
 4.80 4.40 -0.206 -0.206 -0.206 -0.206 -0.206 15.17651 15.14051 -8.53395  38.141
 4.80 4.60 -0.125 -0.125 -0.125 -0.125 -0.125 15.37645 15.34059 -8.33388  48.007
 4.80 4.80 -0.026 -0.026 -0.026 -0.026 -0.026 15.57643 15.54067 -8.13379  60.424
 4.80 5.00  0.089  0.089  0.089  0.089  0.089 15.77641 15.74076 -7.93368  76.048
 4.80 5.20  0.222  0.222  0.222  0.222  0.222 15.97628 15.94086 -7.73356  95.704
 4.80 5.40  0.373  0.373  0.373  0.373  0.373 16.17611 16.14098 -7.53341 120.429
 4.80 5.60  0.539  0.539  0.539  0.539  0.539 16.37591 16.34115 -7.33322 151.524
 4.80 5.80  0.718  0.718  0.718  0.718  0.718 16.57568 16.54142 -7.13293 190.609
 4.80 6.00  0.909  0.909  0.909  0.909  0.909 16.77539 16.74178 -6.93256 239.718
 4.80 6.25  1.159  1.159  1.159  1.159  1.159 17.02480 16.99240 -6.68190 319.047
 4.80 6.50  1.420  1.420  1.420  1.420  1.421 17.27393 17.24329 -6.43098 424.243
 4.80 6.75  1.692  1.692  1.692  1.693  1.693 17.52256 17.49478 -6.17961 563.278
 4.80 7.00  1.968  1.968  1.968  1.968  1.968 17.77071 17.74679 -5.92775 746.703
 4.80 7.25  2.241  2.241  2.241  2.241  2.241 18.01808 17.99950 -5.67495 987.438
 4.80 7.50  2.517  2.517  2.517  2.518  2.518 18.26529 18.25237 -5.422051304.616
 4.80 7.75  2.786  2.786  2.786  2.786  2.786 18.51245 18.50529 -5.169121722.921
 4.80 8.00  3.048  3.048  3.048  3.048  3.048 18.75952 18.75831 -4.916142274.005
 4.85-2.00 -0.464 -0.464 -0.464 -0.464 -0.464  8.72705  8.68993-14.98422   0.021
 4.85-1.50 -0.464 -0.464 -0.464 -0.464 -0.464  9.22712  9.19005-14.48439   0.038
 4.85-1.00 -0.464 -0.464 -0.464 -0.464 -0.464  9.72705  9.69002-13.98422   0.068
 4.85-0.50 -0.464 -0.464 -0.464 -0.464 -0.464 10.22712 10.19005-13.48439   0.121
 4.85 0.00 -0.464 -0.464 -0.464 -0.464 -0.464 10.72705 10.69002-12.98422   0.215
 4.85 0.50 -0.464 -0.464 -0.464 -0.464 -0.464 11.22711 11.19005-12.48439   0.382
 4.85 1.00 -0.464 -0.464 -0.464 -0.464 -0.464 11.72705 11.69002-11.98422   0.679
 4.85 1.25 -0.463 -0.463 -0.463 -0.463 -0.463 11.97696 11.94003-11.73431   0.906
 4.85 1.50 -0.463 -0.463 -0.463 -0.463 -0.463 12.22686 12.19005-11.48439   1.208
 4.85 1.75 -0.462 -0.462 -0.462 -0.462 -0.462 12.47691 12.44008-11.23431   1.610
 4.85 2.00 -0.460 -0.460 -0.460 -0.460 -0.460 12.72697 12.69011-10.98422   2.147
 4.85 2.25 -0.458 -0.458 -0.458 -0.458 -0.458 12.97692 12.94008-10.73424   2.863
 4.85 2.50 -0.454 -0.454 -0.454 -0.454 -0.454 13.22686 13.19005-10.48426   3.818
 4.85 2.75 -0.449 -0.449 -0.449 -0.449 -0.449 13.47687 13.44012-10.23425   5.091
 4.85 3.00 -0.441 -0.441 -0.441 -0.441 -0.441 13.72689 13.69020 -9.98422   6.789
 4.85 3.20 -0.433 -0.433 -0.433 -0.433 -0.433 13.92689 13.89014 -9.78418   8.546
 4.85 3.40 -0.423 -0.423 -0.423 -0.423 -0.423 14.12687 14.09008 -9.58415  10.758
 4.85 3.60 -0.409 -0.409 -0.409 -0.409 -0.409 14.32683 14.29010 -9.38415  13.542
 4.85 3.80 -0.391 -0.391 -0.391 -0.390 -0.390 14.52678 14.49019 -9.18418  17.047
 4.85 4.00 -0.365 -0.365 -0.365 -0.365 -0.365 14.72673 14.69028 -8.98422  21.459
 4.85 4.20 -0.331 -0.331 -0.331 -0.331 -0.331 14.92668 14.89030 -8.78413  27.012
 4.85 4.40 -0.286 -0.286 -0.286 -0.286 -0.285 15.12663 15.09032 -8.58404  34.000
 4.85 4.60 -0.227 -0.227 -0.227 -0.227 -0.227 15.32658 15.29039 -8.38396  42.797
 4.85 4.80 -0.155 -0.155 -0.155 -0.155 -0.154 15.52653 15.49052 -8.18388  53.869
 4.85 5.00 -0.066 -0.066 -0.066 -0.066 -0.066 15.72648 15.69064 -7.98380  67.803
 4.85 5.20  0.039  0.039  0.039  0.040  0.040 15.92643 15.89074 -7.78372  85.337
 4.85 5.40  0.163  0.163  0.163  0.163  0.163 16.12637 16.09084 -7.58364 107.400
 4.85 5.60  0.304  0.304  0.304  0.305  0.305 16.32627 16.29095 -7.38347 135.162
 4.85 5.80  0.462  0.462  0.462  0.462  0.462 16.52611 16.49109 -7.18322 170.087
 4.85 6.00  0.634  0.634  0.634  0.634  0.634 16.72591 16.69126 -6.98297 214.020
 4.85 6.25  0.864  0.864  0.864  0.864  0.864 16.97565 16.94157 -6.73275 285.146
 4.85 6.50  1.106  1.106  1.106  1.106  1.106 17.22531 17.19201 -6.48254 379.774
 4.85 6.75  1.359  1.359  1.359  1.359  1.359 17.47476 17.44258 -6.23187 505.534
 4.85 7.00  1.622  1.622  1.622  1.622  1.622 17.72395 17.69337 -5.98089 672.422
 4.85 7.25  1.886  1.886  1.886  1.886  1.886 17.97264 17.94467 -5.72962 893.140
 4.85 7.50  2.159  2.159  2.159  2.159  2.159 18.22089 18.19645 -5.477951184.508
 4.85 7.75  2.432  2.432  2.432  2.432  2.432 18.46865 18.44885 -5.225591567.717
 4.85 8.00  2.705  2.705  2.705  2.705  2.705 18.71592 18.70183 -4.972652071.026
 4.90-2.00 -0.464 -0.464 -0.464 -0.464 -0.464  8.67706  8.63998-15.03438   0.019
 4.90-1.50 -0.464 -0.464 -0.464 -0.464 -0.464  9.17696  9.13988-14.53447   0.034
 4.90-1.00 -0.464 -0.464 -0.464 -0.464 -0.464  9.67706  9.63998-14.03438   0.061
 4.90-0.50 -0.464 -0.464 -0.464 -0.464 -0.464 10.17696 10.13988-13.53447   0.108
 4.90 0.00 -0.464 -0.464 -0.464 -0.464 -0.464 10.67706 10.63999-13.03438   0.191
 4.90 0.50 -0.464 -0.464 -0.464 -0.464 -0.464 11.17696 11.13988-12.53447   0.340
 4.90 1.00 -0.464 -0.464 -0.464 -0.464 -0.464 11.67706 11.63998-12.03433   0.605
 4.90 1.25 -0.464 -0.464 -0.464 -0.464 -0.464 11.92701 11.88993-11.78432   0.807
 4.90 1.50 -0.463 -0.463 -0.463 -0.463 -0.463 12.17696 12.13988-11.53432   1.076
 4.90 1.75 -0.463 -0.463 -0.463 -0.463 -0.463 12.42696 12.38998-11.28432   1.435
 4.90 2.00 -0.462 -0.462 -0.462 -0.462 -0.462 12.67697 12.64008-11.03433   1.914
 4.90 2.25 -0.461 -0.461 -0.461 -0.461 -0.460 12.92696 12.89015-10.78433   2.552
 4.90 2.50 -0.458 -0.458 -0.458 -0.458 -0.458 13.17696 13.14019-10.53432   3.403
 4.90 2.75 -0.454 -0.454 -0.454 -0.454 -0.454 13.42696 13.39019-10.28428   4.538
 4.90 3.00 -0.448 -0.448 -0.448 -0.448 -0.448 13.67697 13.64018-10.03423   6.051
 4.90 3.20 -0.441 -0.441 -0.441 -0.441 -0.441 13.87697 13.84018 -9.83421   7.617
 4.90 3.40 -0.432 -0.432 -0.432 -0.432 -0.432 14.07696 14.04019 -9.63418   9.589
 4.90 3.60 -0.421 -0.421 -0.421 -0.421 -0.421 14.27692 14.24021 -9.43416  12.070
 4.90 3.80 -0.406 -0.406 -0.406 -0.406 -0.406 14.47686 14.44025 -9.23413  15.195
 4.90 4.00 -0.387 -0.387 -0.387 -0.387 -0.387 14.67679 14.64028 -9.03409  19.128
 4.90 4.20 -0.363 -0.363 -0.363 -0.363 -0.362 14.87673 14.84025 -8.83407  24.077
 4.90 4.40 -0.331 -0.331 -0.331 -0.331 -0.331 15.07669 15.04021 -8.63404  30.307
 4.90 4.60 -0.289 -0.289 -0.289 -0.289 -0.289 15.27666 15.24024 -8.43399  38.149
 4.90 4.80 -0.236 -0.236 -0.236 -0.236 -0.236 15.47663 15.44036 -8.23392  48.020
 4.90 5.00 -0.170 -0.170 -0.170 -0.170 -0.170 15.67660 15.64048 -8.03386  60.444
 4.90 5.20 -0.089 -0.089 -0.089 -0.088 -0.088 15.87652 15.84062 -7.83381  76.077
 4.90 5.40  0.009  0.009  0.009  0.009  0.009 16.07643 16.04075 -7.63375  95.751
 4.90 5.60  0.125  0.125  0.125  0.125  0.125 16.27634 16.24085 -7.43367 120.511
 4.90 5.80  0.259  0.259  0.259  0.259  0.259 16.47624 16.44092 -7.23354 151.670
 4.90 6.00  0.410  0.410  0.410  0.410  0.410 16.67615 16.64098 -7.03339 190.878
 4.90 6.25  0.620  0.620  0.620  0.620  0.620 16.92599 16.89118 -6.78320 254.394
 4.90 6.50  0.848  0.848  0.848  0.848  0.848 17.17580 17.14145 -6.53298 338.988
 4.90 6.75  1.081  1.081  1.081  1.081  1.081 17.42548 17.39176 -6.28266 451.625
 4.90 7.00  1.333  1.333  1.333  1.333  1.333 17.67505 17.64217 -6.03222 601.498
 4.90 7.25  1.588  1.588  1.588  1.588  1.588 17.92451 17.89278 -5.78161 800.622
 4.90 7.50  1.849  1.849  1.849  1.849  1.849 18.17377 18.14364 -5.530771064.839
 4.90 7.75  2.112  2.112  2.112  2.112  2.112 18.42250 18.39497 -5.279441414.278
 4.90 8.00  2.380  2.380  2.380  2.380  2.380 18.67080 18.64670 -5.027711876.160
 4.95-2.00 -0.464 -0.464 -0.464 -0.464 -0.464  8.62706  8.58995-15.08439   0.017
 4.95-1.50 -0.464 -0.464 -0.464 -0.464 -0.464  9.12710  9.08991-14.58436   0.030
 4.95-1.00 -0.464 -0.464 -0.464 -0.464 -0.464  9.62706  9.58995-14.08439   0.054
 4.95-0.50 -0.464 -0.464 -0.464 -0.464 -0.464 10.12711 10.08990-13.58436   0.096
 4.95 0.00 -0.464 -0.464 -0.464 -0.464 -0.464 10.62706 10.58995-13.08439   0.171
 4.95 0.50 -0.464 -0.464 -0.464 -0.464 -0.464 11.12710 11.08991-12.58436   0.303
 4.95 1.00 -0.464 -0.464 -0.464 -0.464 -0.464 11.62706 11.59006-12.08434   0.540
 4.95 1.25 -0.464 -0.464 -0.464 -0.464 -0.464 11.87708 11.83998-11.83435   0.720
 4.95 1.50 -0.464 -0.464 -0.464 -0.464 -0.464 12.12710 12.08991-11.58436   0.959
 4.95 1.75 -0.464 -0.464 -0.464 -0.463 -0.463 12.37708 12.33998-11.33435   1.279
 4.95 2.00 -0.463 -0.463 -0.463 -0.463 -0.463 12.62706 12.59006-11.08434   1.706
 4.95 2.25 -0.462 -0.462 -0.462 -0.462 -0.462 12.87708 12.83998-10.83435   2.275
 4.95 2.50 -0.461 -0.461 -0.461 -0.461 -0.461 13.12711 13.08991-10.58436   3.033
 4.95 2.75 -0.459 -0.459 -0.459 -0.459 -0.459 13.37704 13.33997-10.33430   4.044
 4.95 3.00 -0.455 -0.455 -0.455 -0.455 -0.455 13.62696 13.59006-10.08423   5.393
 4.95 3.20 -0.450 -0.450 -0.450 -0.450 -0.450 13.82689 13.79014 -9.88422   6.789
 4.95 3.40 -0.444 -0.444 -0.444 -0.444 -0.444 14.02682 13.99022 -9.68420   8.546
 4.95 3.60 -0.435 -0.435 -0.435 -0.435 -0.434 14.22680 14.19027 -9.48418  10.759
 4.95 3.80 -0.422 -0.422 -0.422 -0.422 -0.422 14.42682 14.39028 -9.28416  13.544
 4.95 4.00 -0.406 -0.406 -0.406 -0.406 -0.406 14.62685 14.59028 -9.08413  17.050
 4.95 4.20 -0.385 -0.385 -0.385 -0.385 -0.385 14.82683 14.79027 -8.88409  21.462
 4.95 4.40 -0.359 -0.359 -0.359 -0.359 -0.359 15.02680 14.99026 -8.68405  27.015
 4.95 4.60 -0.327 -0.327 -0.327 -0.327 -0.327 15.22676 15.19031 -8.48400  34.005
 4.95 4.80 -0.286 -0.286 -0.286 -0.286 -0.286 15.42671 15.39041 -8.28396  42.805
 4.95 5.00 -0.235 -0.235 -0.235 -0.235 -0.235 15.62665 15.59051 -8.08392  53.881
 4.95 5.20 -0.173 -0.173 -0.173 -0.173 -0.173 15.82658 15.79055 -7.88389  67.819
 4.95 5.40 -0.096 -0.096 -0.096 -0.096 -0.095 16.02650 15.99059 -7.68387  85.360
 4.95 5.60 -0.002 -0.002 -0.002 -0.002 -0.002 16.22642 16.19066 -7.48379 107.437
 4.95 5.80  0.108  0.108  0.108  0.108  0.108 16.42633 16.39075 -7.28364 135.221
 4.95 6.00  0.237  0.237  0.237  0.237  0.237 16.62624 16.59084 -7.08349 170.186
 4.95 6.25  0.423  0.423  0.423  0.423  0.423 16.87602 16.84090 -6.83334 226.847
 4.95 6.50  0.632  0.632  0.632  0.632  0.632 17.12581 17.09096 -6.58319 302.342
 4.95 6.75  0.848  0.848  0.848  0.848  0.848 17.37566 17.34127 -6.33298 402.923
 4.95 7.00  1.089  1.089  1.089  1.089  1.089 17.62552 17.59162 -6.08271 536.879
 4.95 7.25  1.338  1.338  1.338  1.338  1.338 17.87524 17.84198 -5.83235 715.155
 4.95 7.50  1.592  1.592  1.592  1.592  1.592 18.12483 18.09237 -5.58187 952.273
 4.95 7.75  1.847  1.847  1.847  1.847  1.847 18.37415 18.34314 -5.331151267.181
 4.95 8.00  2.106  2.106  2.106  2.106  2.106 18.62325 18.59417 -5.080241685.278
 5.00-2.00 -0.464 -0.464 -0.464 -0.464 -0.464  8.57703  8.53995-15.13442   0.015
 5.00-1.50 -0.464 -0.464 -0.464 -0.464 -0.464  9.07700  9.03981-14.63451   0.027
 5.00-1.00 -0.464 -0.464 -0.464 -0.464 -0.464  9.57703  9.53995-14.13436   0.048
 5.00-0.50 -0.464 -0.464 -0.464 -0.464 -0.464 10.07700 10.03981-13.63451   0.086
 5.00 0.00 -0.464 -0.464 -0.464 -0.464 -0.464 10.57703 10.53995-13.13436   0.152
 5.00 0.50 -0.464 -0.464 -0.464 -0.464 -0.464 11.07700 11.03981-12.63433   0.270
 5.00 1.00 -0.464 -0.464 -0.464 -0.464 -0.464 11.57703 11.53995-12.13436   0.481
 5.00 1.25 -0.464 -0.464 -0.464 -0.464 -0.464 11.82702 11.78988-11.88434   0.641
 5.00 1.50 -0.464 -0.464 -0.464 -0.464 -0.464 12.07700 12.03981-11.63433   0.855
 5.00 1.75 -0.464 -0.464 -0.464 -0.464 -0.464 12.32702 12.28995-11.38431   1.140
 5.00 2.00 -0.464 -0.464 -0.464 -0.464 -0.463 12.57703 12.54008-11.13430   1.520
 5.00 2.25 -0.463 -0.463 -0.463 -0.463 -0.463 12.82703 12.79017-10.88431   2.027
 5.00 2.50 -0.462 -0.462 -0.462 -0.462 -0.462 13.07701 13.04021-10.63433   2.703
 5.00 2.75 -0.461 -0.461 -0.461 -0.461 -0.461 13.32696 13.29014-10.38428   3.605
 5.00 3.00 -0.459 -0.459 -0.459 -0.459 -0.459 13.57692 13.54008-10.13424   4.807
 5.00 3.20 -0.457 -0.457 -0.457 -0.457 -0.456 13.77695 13.74013 -9.93428   6.051
 5.00 3.40 -0.453 -0.453 -0.453 -0.453 -0.453 13.97699 13.94018 -9.73431   7.618
 5.00 3.60 -0.447 -0.447 -0.447 -0.447 -0.447 14.17700 14.14021 -9.53429   9.590
 5.00 3.80 -0.438 -0.438 -0.438 -0.438 -0.438 14.37697 14.34021 -9.33421  12.072
 5.00 4.00 -0.426 -0.426 -0.426 -0.426 -0.426 14.57692 14.54020 -9.13413  15.197
 5.00 4.20 -0.410 -0.410 -0.410 -0.410 -0.410 14.77681 14.74020 -8.93413  19.129
 5.00 4.40 -0.388 -0.388 -0.388 -0.388 -0.388 14.97670 14.94021 -8.73414  24.080
 5.00 4.60 -0.360 -0.360 -0.360 -0.360 -0.360 15.17665 15.14026 -8.53410  30.311
 5.00 4.80 -0.325 -0.325 -0.325 -0.325 -0.325 15.37667 15.34036 -8.33402  38.155
 5.00 5.00 -0.283 -0.283 -0.283 -0.283 -0.282 15.57669 15.54045 -8.13395  48.029
 5.00 5.20 -0.231 -0.231 -0.231 -0.231 -0.231 15.77668 15.74052 -7.93387  60.454
 5.00 5.40 -0.168 -0.168 -0.168 -0.168 -0.168 15.97666 15.94058 -7.73380  76.092
 5.00 5.60 -0.092 -0.092 -0.092 -0.092 -0.092 16.17659 16.14062 -7.53373  95.775
 5.00 5.80  0.000  0.000  0.000  0.000  0.000 16.37648 16.34066 -7.33366 120.548
 5.00 6.00  0.108  0.108  0.108  0.108  0.108 16.57634 16.54070 -7.13359 151.726
 5.00 6.25  0.269  0.269  0.269  0.269  0.269 16.82613 16.79083 -6.88350 202.253
 5.00 6.50  0.457  0.457  0.457  0.457  0.457 17.07591 17.04100 -6.63339 269.588
 5.00 6.75  0.665  0.665  0.665  0.665  0.665 17.32584 17.29123 -6.38318 359.321
 5.00 7.00  0.883  0.883  0.883  0.883  0.883 17.57577 17.54145 -6.13295 478.873
 5.00 7.25  1.123  1.123  1.123  1.123  1.123 17.82552 17.79162 -5.88271 638.082
 5.00 7.50  1.372  1.372  1.372  1.372  1.372 18.07518 18.04179 -5.63246 850.039
 5.00 7.75  1.622  1.622  1.622  1.622  1.622 18.32477 18.29226 -5.381981132.049
 5.00 8.00  1.877  1.877  1.877  1.877  1.877 18.57426 18.54295 -5.131361507.195
 5.05-2.00 -0.464 -0.464 -0.464 -0.464 -0.464  8.52711  8.48996-15.18442   0.014
 5.05-1.50 -0.464 -0.464 -0.464 -0.464 -0.464  9.02694  8.98994-14.68445   0.024
 5.05-1.00 -0.464 -0.464 -0.464 -0.464 -0.464  9.52711  9.48996-14.18442   0.043
 5.05-0.50 -0.464 -0.464 -0.464 -0.464 -0.464 10.02694  9.98994-13.68445   0.076
 5.05 0.00 -0.464 -0.464 -0.464 -0.464 -0.464 10.52711 10.48996-13.18436   0.136
 5.05 0.50 -0.464 -0.464 -0.464 -0.464 -0.464 11.02694 10.98994-12.68445   0.241
 5.05 1.00 -0.464 -0.464 -0.464 -0.464 -0.464 11.52711 11.48996-12.18436   0.429
 5.05 1.25 -0.464 -0.464 -0.464 -0.464 -0.464 11.77703 11.73997-11.93440   0.572
 5.05 1.50 -0.464 -0.464 -0.464 -0.464 -0.464 12.02694 11.98998-11.68445   0.762
 5.05 1.75 -0.464 -0.464 -0.464 -0.464 -0.464 12.27696 12.24004-11.43440   1.016
 5.05 2.00 -0.464 -0.464 -0.464 -0.464 -0.464 12.52699 12.49010-11.18436   1.355
 5.05 2.25 -0.464 -0.464 -0.464 -0.464 -0.464 12.77696 12.74006-10.93440   1.807
 5.05 2.50 -0.463 -0.463 -0.463 -0.463 -0.463 13.02694 12.99003-10.68445   2.410
 5.05 2.75 -0.463 -0.463 -0.463 -0.463 -0.462 13.27696 13.24006-10.43437   3.214
 5.05 3.00 -0.462 -0.462 -0.461 -0.461 -0.461 13.52699 13.49010-10.18429   4.285
 5.05 3.20 -0.460 -0.460 -0.460 -0.460 -0.460 13.72698 13.69009 -9.98427   5.394
 5.05 3.40 -0.458 -0.458 -0.458 -0.458 -0.458 13.92696 13.89008 -9.78425   6.790
 5.05 3.60 -0.455 -0.455 -0.455 -0.455 -0.455 14.12692 14.09011 -9.58422   8.547
 5.05 3.80 -0.450 -0.450 -0.450 -0.450 -0.450 14.32689 14.29017 -9.38419  10.760
 5.05 4.00 -0.443 -0.443 -0.443 -0.443 -0.443 14.52686 14.49024 -9.18416  13.545
 5.05 4.20 -0.432 -0.432 -0.432 -0.432 -0.432 14.72689 14.69023 -8.98419  17.051
 5.05 4.40 -0.417 -0.417 -0.417 -0.417 -0.417 14.92692 14.89021 -8.78422  21.463
 5.05 4.60 -0.396 -0.396 -0.395 -0.395 -0.395 15.12690 15.09024 -8.58420  27.018
 5.05 4.80 -0.367 -0.367 -0.367 -0.367 -0.367 15.32681 15.29031 -8.38411  34.010
 5.05 5.00 -0.331 -0.331 -0.331 -0.331 -0.331 15.52673 15.49038 -8.18402  42.812
 5.05 5.20 -0.286 -0.286 -0.286 -0.286 -0.286 15.72665 15.69040 -7.98394  53.888
 5.05 5.40 -0.231 -0.231 -0.231 -0.231 -0.231 15.92657 15.89042 -7.78386  67.830
 5.05 5.60 -0.165 -0.165 -0.165 -0.165 -0.165 16.12652 16.09048 -7.58379  85.377
 5.05 5.80 -0.086 -0.086 -0.086 -0.086 -0.086 16.32650 16.29057 -7.38374 107.463
 5.05 6.00  0.007  0.007  0.007  0.007  0.007 16.52647 16.49066 -7.18369 135.261
 5.05 6.25  0.146  0.146  0.146  0.146  0.147 16.77630 16.74077 -6.93365 180.314
 5.05 6.50  0.314  0.314  0.314  0.314  0.314 17.02612 16.99087 -6.68361 240.359
 5.05 6.75  0.507  0.507  0.507  0.507  0.507 17.27604 17.24104 -6.43339 320.388
 5.05 7.00  0.706  0.706  0.706  0.706  0.706 17.52595 17.49122 -6.18316 427.031
 5.05 7.25  0.936  0.936  0.936  0.936  0.936 17.77563 17.74141 -5.93297 569.089
 5.05 7.50  1.178  1.178  1.178  1.178  1.178 18.02530 17.99162 -5.68277 758.295
 5.05 7.75  1.425  1.425  1.425  1.425  1.425 18.27503 18.24195 -5.432421010.232
 5.05 8.00  1.676  1.676  1.676  1.676  1.676 18.52479 18.49234 -5.181971345.652
 5.10-2.00 -0.464 -0.464 -0.464 -0.464 -0.464  8.47712  8.43996-15.23441   0.012
 5.10-1.50 -0.464 -0.464 -0.464 -0.464 -0.464  8.97704  8.93992-14.73448   0.021
 5.10-1.00 -0.464 -0.464 -0.464 -0.464 -0.464  9.47712  9.43996-14.23441   0.038
 5.10-0.50 -0.464 -0.464 -0.464 -0.464 -0.464  9.97704  9.93992-13.73448   0.068
 5.10 0.00 -0.464 -0.464 -0.464 -0.464 -0.464 10.47712 10.43996-13.23441   0.121
 5.10 0.50 -0.464 -0.464 -0.464 -0.464 -0.464 10.97704 10.93997-12.73448   0.215
 5.10 1.00 -0.464 -0.464 -0.464 -0.464 -0.464 11.47712 11.43996-12.23441   0.382
 5.10 1.25 -0.464 -0.464 -0.464 -0.464 -0.464 11.72706 11.68997-11.98444   0.509
 5.10 1.50 -0.464 -0.464 -0.464 -0.464 -0.464 11.97699 11.93997-11.73448   0.679
 5.10 1.75 -0.464 -0.464 -0.464 -0.464 -0.464 12.22698 12.18997-11.48440   0.906
 5.10 2.00 -0.464 -0.464 -0.464 -0.464 -0.464 12.47698 12.43996-11.23433   1.208
 5.10 2.25 -0.464 -0.464 -0.464 -0.464 -0.464 12.72698 12.68998-10.98440   1.611
 5.10 2.50 -0.464 -0.464 -0.464 -0.464 -0.463 12.97699 12.94002-10.73448   2.148
 5.10 2.75 -0.463 -0.463 -0.463 -0.463 -0.463 13.22699 13.19007-10.48437   2.864
 5.10 3.00 -0.463 -0.463 -0.463 -0.463 -0.463 13.47698 13.44012-10.23426   3.819
 5.10 3.20 -0.462 -0.462 -0.462 -0.462 -0.462 13.67695 13.64010-10.03425   4.807
 5.10 3.40 -0.461 -0.461 -0.461 -0.461 -0.461 13.87692 13.84008 -9.83424   6.052
 5.10 3.60 -0.459 -0.459 -0.459 -0.459 -0.459 14.07692 14.04008 -9.63423   7.618
 5.10 3.80 -0.457 -0.457 -0.457 -0.457 -0.456 14.27695 14.24010 -9.43421   9.590
 5.10 4.00 -0.453 -0.453 -0.453 -0.453 -0.452 14.47698 14.44012 -9.23418  12.073
 5.10 4.20 -0.447 -0.447 -0.447 -0.447 -0.446 14.67691 14.64014 -9.03421  15.198
 5.10 4.40 -0.438 -0.438 -0.437 -0.437 -0.437 14.87684 14.84016 -8.83423  19.131
 5.10 4.60 -0.424 -0.424 -0.424 -0.424 -0.424 15.07681 15.04019 -8.63420  24.082
 5.10 4.80 -0.405 -0.405 -0.405 -0.405 -0.405 15.27682 15.24024 -8.43412  30.315
 5.10 5.00 -0.379 -0.379 -0.379 -0.379 -0.378 15.47683 15.44028 -8.23403  38.161
 5.10 5.20 -0.343 -0.343 -0.343 -0.343 -0.343 15.67675 15.64031 -8.03402  48.035
 5.10 5.40 -0.297 -0.297 -0.297 -0.297 -0.297 15.87667 15.84035 -7.83401  60.463
 5.10 5.60 -0.241 -0.241 -0.241 -0.241 -0.240 16.07661 16.04041 -7.63397  76.106
 5.10 5.80 -0.171 -0.171 -0.171 -0.171 -0.171 16.27658 16.24050 -7.43390  95.796
 5.10 6.00 -0.089 -0.089 -0.089 -0.089 -0.088 16.47654 16.44059 -7.23381 120.579
 5.10 6.25  0.035  0.035  0.035  0.035  0.035 16.72642 16.69068 -6.98367 160.744
 5.10 6.50  0.185  0.185  0.185  0.185  0.185 16.97631 16.94077 -6.73353 214.281
 5.10 6.75  0.362  0.362  0.362  0.362  0.362 17.22621 17.19091 -6.48341 285.644
 5.10 7.00  0.553  0.553  0.553  0.554  0.554 17.47611 17.44107 -6.23329 380.758
 5.10 7.25  0.769  0.769  0.769  0.769  0.769 17.72589 17.69123 -5.98307 507.470
 5.10 7.50  1.004  1.004  1.004  1.004  1.004 17.97566 17.94141 -5.73283 676.276
 5.10 7.75  1.246  1.246  1.246  1.246  1.246 18.22545 18.19168 -5.48258 901.136
 5.10 8.00  1.495  1.495  1.495  1.495  1.495 18.47524 18.44201 -5.232331200.631
 5.15-2.00 -0.464 -0.464 -0.464 -0.464 -0.464  8.42716  8.39005-15.28441   0.011
 5.15-1.50 -0.464 -0.464 -0.464 -0.464 -0.464  8.92706  8.88992-14.78436   0.019
 5.15-1.00 -0.464 -0.464 -0.464 -0.464 -0.464  9.42700  9.39005-14.28441   0.034
 5.15-0.50 -0.464 -0.464 -0.464 -0.464 -0.464  9.92706  9.88992-13.78436   0.061
 5.15 0.00 -0.464 -0.464 -0.464 -0.464 -0.464 10.42700 10.39005-13.28442   0.108
 5.15 0.50 -0.464 -0.464 -0.464 -0.464 -0.464 10.92701 10.88992-12.78436   0.191
 5.15 1.00 -0.464 -0.464 -0.464 -0.464 -0.464 11.42700 11.39005-12.28433   0.340
 5.15 1.25 -0.464 -0.464 -0.464 -0.464 -0.464 11.67701 11.64001-12.03435   0.454
 5.15 1.50 -0.464 -0.464 -0.464 -0.464 -0.464 11.92701 11.88997-11.78436   0.605
 5.15 1.75 -0.464 -0.464 -0.464 -0.464 -0.464 12.17701 12.14001-11.53435   0.807
 5.15 2.00 -0.464 -0.464 -0.464 -0.464 -0.464 12.42700 12.39005-11.28433   1.076
 5.15 2.25 -0.464 -0.464 -0.464 -0.464 -0.464 12.67698 12.64001-11.03435   1.435
 5.15 2.50 -0.464 -0.464 -0.464 -0.464 -0.464 12.92696 12.88997-10.78436   1.914
 5.15 2.75 -0.464 -0.464 -0.464 -0.464 -0.463 13.17698 13.14001-10.53435   2.553
 5.15 3.00 -0.463 -0.463 -0.463 -0.463 -0.463 13.42700 13.39005-10.28433   3.404
 5.15 3.20 -0.463 -0.463 -0.463 -0.463 -0.463 13.62696 13.59004-10.08434   4.285
 5.15 3.40 -0.462 -0.462 -0.462 -0.462 -0.462 13.82693 13.79003 -9.88436   5.394
 5.15 3.60 -0.461 -0.461 -0.461 -0.461 -0.461 14.02693 13.99003 -9.68434   6.790
 5.15 3.80 -0.460 -0.460 -0.460 -0.460 -0.460 14.22696 14.19004 -9.48430   8.548
 5.15 4.00 -0.458 -0.458 -0.458 -0.458 -0.458 14.42700 14.39005 -9.28425  10.761
 5.15 4.20 -0.455 -0.455 -0.455 -0.455 -0.455 14.62694 14.59009 -9.08419  13.546
 5.15 4.40 -0.450 -0.450 -0.450 -0.450 -0.450 14.82689 14.79012 -8.88413  17.051
 5.15 4.60 -0.442 -0.442 -0.442 -0.442 -0.442 15.02685 14.99016 -8.68409  21.465
 5.15 4.80 -0.431 -0.431 -0.431 -0.431 -0.431 15.22684 15.19019 -8.48408  27.021
 5.15 5.00 -0.415 -0.415 -0.415 -0.415 -0.415 15.42684 15.39023 -8.28408  34.015
 5.15 5.20 -0.392 -0.392 -0.392 -0.391 -0.391 15.62676 15.59026 -8.08409  42.816
 5.15 5.40 -0.359 -0.359 -0.359 -0.359 -0.359 15.82669 15.79029 -7.88409  53.895
 5.15 5.60 -0.316 -0.316 -0.316 -0.316 -0.316 16.02662 15.99037 -7.68404  67.840
 5.15 5.80 -0.261 -0.261 -0.261 -0.260 -0.260 16.22656 16.19047 -7.48394  85.394
 5.15 6.00 -0.191 -0.191 -0.191 -0.191 -0.191 16.42651 16.39058 -7.28383 107.488
 5.15 6.25 -0.083 -0.083 -0.083 -0.083 -0.083 16.67645 16.64062 -7.03370 143.297
 5.15 6.50  0.049  0.049  0.049  0.049  0.049 16.92639 16.89065 -6.78357 191.030
 5.15 6.75  0.209  0.209  0.209  0.209  0.209 17.17631 17.14079 -6.53349 254.662
 5.15 7.00  0.394  0.394  0.394  0.394  0.394 17.42619 17.39094 -6.28341 339.478
 5.15 7.25  0.588  0.588  0.588  0.588  0.588 17.67602 17.64109 -6.03325 452.483
 5.15 7.50  0.815  0.815  0.815  0.815  0.815 17.92583 17.89126 -5.78304 603.053
 5.15 7.75  1.053  1.053  1.053  1.053  1.053 18.17561 18.14151 -5.53282 803.665
 5.15 8.00  1.300  1.300  1.300  1.300  1.300 18.42537 18.39182 -5.282581070.927
 5.20-2.00 -0.464 -0.464 -0.464 -0.464 -0.464  8.37712  8.34005-15.33442   0.010
 5.20-1.50 -0.464 -0.464 -0.464 -0.464 -0.464  8.87703  8.83992-14.83446   0.017
 5.20-1.00 -0.464 -0.464 -0.464 -0.464 -0.464  9.37712  9.34005-14.33442   0.030
 5.20-0.50 -0.464 -0.464 -0.464 -0.464 -0.464  9.87703  9.83992-13.83446   0.054
 5.20 0.00 -0.464 -0.464 -0.464 -0.464 -0.464 10.37712 10.34005-13.33442   0.096
 5.20 0.50 -0.464 -0.464 -0.464 -0.464 -0.464 10.87703 10.83992-12.83446   0.171
 5.20 1.00 -0.464 -0.464 -0.464 -0.464 -0.464 11.37712 11.34005-12.33442   0.303
 5.20 1.25 -0.464 -0.464 -0.464 -0.464 -0.464 11.62708 11.59001-12.08444   0.404
 5.20 1.50 -0.464 -0.464 -0.464 -0.464 -0.464 11.87703 11.83998-11.83446   0.540
 5.20 1.75 -0.464 -0.464 -0.464 -0.464 -0.464 12.12708 12.09001-11.58439   0.720
 5.20 2.00 -0.464 -0.464 -0.464 -0.464 -0.464 12.37712 12.34005-11.33432   0.959
 5.20 2.25 -0.464 -0.464 -0.464 -0.464 -0.464 12.62705 12.59001-11.08439   1.279
 5.20 2.50 -0.464 -0.464 -0.464 -0.464 -0.464 12.87697 12.83998-10.83446   1.706
 5.20 2.75 -0.464 -0.464 -0.464 -0.464 -0.464 13.12695 13.09001-10.58439   2.275
 5.20 3.00 -0.464 -0.464 -0.463 -0.463 -0.463 13.37694 13.34005-10.33433   3.034
 5.20 3.20 -0.463 -0.463 -0.463 -0.463 -0.463 13.57695 13.54005-10.13438   3.819
 5.20 3.40 -0.463 -0.463 -0.463 -0.463 -0.463 13.77696 13.74004 -9.93443   4.808
 5.20 3.60 -0.463 -0.463 -0.463 -0.463 -0.462 13.97697 13.94004 -9.73441   6.052
 5.20 3.80 -0.462 -0.462 -0.462 -0.462 -0.462 14.17696 14.14005 -9.53432   7.619
 5.20 4.00 -0.461 -0.461 -0.461 -0.461 -0.461 14.37694 14.34005 -9.33423   9.591
 5.20 4.20 -0.459 -0.459 -0.459 -0.459 -0.459 14.57691 14.54006 -9.13420  12.073
 5.20 4.40 -0.456 -0.456 -0.456 -0.456 -0.456 14.77687 14.74009 -8.93417  15.198
 5.20 4.60 -0.452 -0.452 -0.452 -0.452 -0.452 14.97683 14.94014 -8.73415  19.132
 5.20 4.80 -0.446 -0.446 -0.446 -0.446 -0.446 15.17680 15.14019 -8.53414  24.085
 5.20 5.00 -0.437 -0.437 -0.437 -0.437 -0.437 15.37676 15.34025 -8.33414  30.319
 5.20 5.20 -0.424 -0.424 -0.424 -0.424 -0.423 15.57675 15.54027 -8.13415  38.164
 5.20 5.40 -0.404 -0.404 -0.404 -0.404 -0.404 15.77674 15.74028 -7.93416  48.040
 5.20 5.60 -0.376 -0.376 -0.376 -0.376 -0.376 15.97670 15.94032 -7.73412  60.471
 5.20 5.80 -0.337 -0.337 -0.337 -0.337 -0.337 16.17664 16.14038 -7.53404  76.119
 5.20 6.00 -0.286 -0.286 -0.286 -0.286 -0.286 16.37658 16.34044 -7.33395  95.816
 5.20 6.25 -0.202 -0.202 -0.202 -0.202 -0.202 16.62651 16.59052 -7.08391 127.741
 5.20 6.50 -0.092 -0.092 -0.092 -0.092 -0.092 16.87645 16.84061 -6.83387 170.297
 5.20 6.75  0.044  0.044  0.044  0.044  0.044 17.12633 17.09072 -6.58367 227.029
 5.20 7.00  0.208  0.208  0.208  0.208  0.208 17.37621 17.34084 -6.33348 302.651
 5.20 7.25  0.384  0.384  0.384  0.384  0.384 17.62610 17.59097 -6.08338 403.424
 5.20 7.50  0.598  0.598  0.598  0.598  0.598 17.87599 17.84111 -5.83327 537.714
 5.20 7.75  0.827  0.827  0.827  0.827  0.827 18.12584 18.09134 -5.58308 716.658
 5.20 8.00  1.069  1.069  1.069  1.069  1.069 18.37566 18.34163 -5.33283 955.086
 5.25-2.00 -0.464 -0.464 -0.464 -0.464 -0.464  8.32716  8.29004-15.38437   0.009
 5.25-1.50 -0.464 -0.464 -0.464 -0.464 -0.464  8.82705  8.78993-14.88439   0.015
 5.25-1.00 -0.464 -0.464 -0.464 -0.464 -0.464  9.32715  9.29004-14.38437   0.027
 5.25-0.50 -0.464 -0.464 -0.464 -0.464 -0.464  9.82705  9.78993-13.88439   0.048
 5.25 0.00 -0.464 -0.464 -0.464 -0.464 -0.464 10.32716 10.29003-13.38437   0.086
 5.25 0.50 -0.464 -0.464 -0.464 -0.464 -0.464 10.82705 10.78993-12.88439   0.152
 5.25 1.00 -0.464 -0.464 -0.464 -0.464 -0.464 11.32716 11.29004-12.38437   0.270
 5.25 1.25 -0.464 -0.464 -0.464 -0.464 -0.464 11.57710 11.53998-12.13438   0.360
 5.25 1.50 -0.464 -0.464 -0.464 -0.464 -0.464 11.82705 11.78993-11.88439   0.481
 5.25 1.75 -0.464 -0.464 -0.464 -0.464 -0.464 12.07700 12.03998-11.63438   0.641
 5.25 2.00 -0.464 -0.464 -0.464 -0.464 -0.464 12.32695 12.29004-11.38437   0.855
 5.25 2.25 -0.464 -0.464 -0.464 -0.464 -0.464 12.57697 12.54002-11.13438   1.140
 5.25 2.50 -0.464 -0.464 -0.464 -0.464 -0.464 12.82698 12.79000-10.88439   1.520
 5.25 2.75 -0.464 -0.464 -0.464 -0.464 -0.464 13.07697 13.04002-10.63438   2.027
 5.25 3.00 -0.464 -0.464 -0.464 -0.464 -0.464 13.32695 13.29003-10.38437   2.704
 5.25 3.20 -0.463 -0.463 -0.463 -0.463 -0.463 13.52696 13.49002-10.18438   3.404
 5.25 3.40 -0.463 -0.463 -0.463 -0.463 -0.463 13.72698 13.69001 -9.98439   4.285
 5.25 3.60 -0.463 -0.463 -0.463 -0.463 -0.463 13.92698 13.89001 -9.78436   5.394
 5.25 3.80 -0.463 -0.463 -0.463 -0.463 -0.463 14.12697 14.09002 -9.58431   6.790
 5.25 4.00 -0.462 -0.462 -0.462 -0.462 -0.462 14.32695 14.29004 -9.38426   8.548
 5.25 4.20 -0.461 -0.461 -0.461 -0.461 -0.461 14.52691 14.49005 -9.18431  10.761
 5.25 4.40 -0.460 -0.460 -0.460 -0.460 -0.460 14.72687 14.69007 -8.98436  13.546
 5.25 4.60 -0.458 -0.458 -0.458 -0.458 -0.458 14.92687 14.89011 -8.78434  17.053
 5.25 4.80 -0.455 -0.455 -0.455 -0.455 -0.454 15.12691 15.09018 -8.58425  21.467
 5.25 5.00 -0.450 -0.450 -0.450 -0.450 -0.450 15.32695 15.29026 -8.38416  27.024
 5.25 5.20 -0.442 -0.442 -0.442 -0.442 -0.442 15.52686 15.49027 -8.18412  34.018
 5.25 5.40 -0.431 -0.431 -0.431 -0.431 -0.431 15.72677 15.69028 -7.98408  42.821
 5.25 5.60 -0.414 -0.414 -0.414 -0.414 -0.414 15.92673 15.89032 -7.78404  53.902
 5.25 5.80 -0.391 -0.391 -0.391 -0.391 -0.391 16.12674 16.09040 -7.58399  67.851
 5.25 6.00 -0.358 -0.358 -0.358 -0.358 -0.358 16.32675 16.29048 -7.38395  85.409
 5.25 6.25 -0.299 -0.299 -0.299 -0.299 -0.299 16.57664 16.54049 -7.13383 113.869
 5.25 6.50 -0.219 -0.219 -0.219 -0.219 -0.219 16.82653 16.79050 -6.88372 151.809
 5.25 6.75 -0.112 -0.112 -0.112 -0.112 -0.112 17.07643 17.04059 -6.63368 202.389
 5.25 7.00  0.020  0.020  0.020  0.020  0.020 17.32634 17.29070 -6.38363 269.815
 5.25 7.25  0.178  0.178  0.178  0.178  0.178 17.57622 17.54083 -6.13353 359.672
 5.25 7.50  0.357  0.357  0.357  0.357  0.357 17.82607 17.79099 -5.88339 479.424
 5.25 7.75  0.567  0.567  0.567  0.567  0.567 18.07591 18.04117 -5.63322 639.015
 5.25 8.00  0.794  0.794  0.794  0.794  0.794 18.32572 18.29137 -5.38300 851.682
 5.30-2.00 -0.464 -0.464 -0.464 -0.464 -0.464  8.27715  8.24005-15.43439   0.008
 5.30-1.50 -0.464 -0.464 -0.464 -0.464 -0.464  8.77706  8.73997-14.93442   0.014
 5.30-1.00 -0.464 -0.464 -0.464 -0.464 -0.464  9.27715  9.24005-14.43439   0.024
 5.30-0.50 -0.464 -0.464 -0.464 -0.464 -0.464  9.77706  9.73997-13.93442   0.043
 5.30 0.00 -0.464 -0.464 -0.464 -0.464 -0.464 10.27715 10.24005-13.43439   0.076
 5.30 0.50 -0.464 -0.464 -0.464 -0.464 -0.464 10.77706 10.73997-12.93442   0.136
 5.30 1.00 -0.464 -0.464 -0.464 -0.464 -0.464 11.27715 11.24005-12.43439   0.241
 5.30 1.25 -0.464 -0.464 -0.464 -0.464 -0.464 11.52707 11.49001-12.18440   0.322
 5.30 1.50 -0.464 -0.464 -0.464 -0.464 -0.464 11.77699 11.73997-11.93442   0.429
 5.30 1.75 -0.464 -0.464 -0.464 -0.464 -0.464 12.02707 11.99001-11.68440   0.572
 5.30 2.00 -0.464 -0.464 -0.464 -0.464 -0.464 12.27715 12.24005-11.43439   0.762
 5.30 2.25 -0.464 -0.464 -0.464 -0.464 -0.464 12.52707 12.49001-11.18440   1.016
 5.30 2.50 -0.464 -0.464 -0.464 -0.464 -0.464 12.77699 12.73997-10.93442   1.355
 5.30 2.75 -0.464 -0.464 -0.464 -0.464 -0.464 13.02694 12.99001-10.68441   1.807
 5.30 3.00 -0.464 -0.464 -0.464 -0.464 -0.464 13.27692 13.24005-10.43439   2.410
 5.30 3.20 -0.464 -0.464 -0.464 -0.464 -0.463 13.47695 13.44005-10.23440   3.034
 5.30 3.40 -0.463 -0.463 -0.463 -0.463 -0.463 13.67698 13.64005-10.03441   3.819
 5.30 3.60 -0.463 -0.463 -0.463 -0.463 -0.463 13.87698 13.84005 -9.83439   4.808
 5.30 3.80 -0.463 -0.463 -0.463 -0.463 -0.463 14.07695 14.04005 -9.63433   6.052
 5.30 4.00 -0.463 -0.463 -0.463 -0.463 -0.463 14.27692 14.24005 -9.43427   7.619
 5.30 4.20 -0.462 -0.462 -0.462 -0.462 -0.462 14.47692 14.44007 -9.23433   9.591
 5.30 4.40 -0.462 -0.462 -0.462 -0.462 -0.462 14.67692 14.64011 -9.03439  12.074
 5.30 4.60 -0.461 -0.461 -0.461 -0.461 -0.461 14.87692 14.84016 -8.83437  15.200
 5.30 4.80 -0.459 -0.459 -0.459 -0.459 -0.459 15.07692 15.04023 -8.63426  19.134
 5.30 5.00 -0.456 -0.456 -0.456 -0.456 -0.456 15.27692 15.24030 -8.43415  24.087
 5.30 5.20 -0.452 -0.452 -0.452 -0.452 -0.452 15.47686 15.44026 -8.23410  30.321
 5.30 5.40 -0.446 -0.446 -0.446 -0.446 -0.446 15.67680 15.64022 -8.03406  38.168
 5.30 5.60 -0.437 -0.437 -0.437 -0.437 -0.437 15.87676 15.84022 -7.83404  48.046
 5.30 5.80 -0.423 -0.423 -0.423 -0.423 -0.423 16.07673 16.04025 -7.63403  60.480
 5.30 6.00 -0.404 -0.404 -0.404 -0.404 -0.404 16.27669 16.24030 -7.43403  76.132
 5.30 6.25 -0.367 -0.367 -0.367 -0.367 -0.367 16.52662 16.49037 -7.18404 101.503
 5.30 6.50 -0.314 -0.314 -0.314 -0.314 -0.314 16.77656 16.74044 -6.93405 135.326
 5.30 6.75 -0.239 -0.239 -0.239 -0.239 -0.239 17.02651 16.99050 -6.68386 180.419
 5.30 7.00 -0.140 -0.140 -0.140 -0.140 -0.140 17.27646 17.24055 -6.43368 240.534
 5.30 7.25 -0.014 -0.014 -0.014 -0.014 -0.014 17.52633 17.49067 -6.18368 320.645
 5.30 7.50  0.127  0.127  0.127  0.127  0.128 17.77619 17.74084 -5.93367 427.421
 5.30 7.75  0.305  0.305  0.305  0.305  0.305 18.02609 17.99105 -5.68350 569.738
 5.30 8.00  0.506  0.506  0.506  0.506  0.506 18.27600 18.24130 -5.43321 759.420
