
 ROSSELAND MASS ABSORPTION COEFFICENTS
 logT logP  0km/s  1km/s  2km/s  4km/s  8km/s  log Ne   log Na  log rho IPloCM-1
 3.32-2.00 -6.198 -6.192 -6.182 -6.162 -6.136  3.21139 10.54033-13.13395
 3.32-1.50 -6.240 -6.235 -6.225 -6.205 -6.179  3.56891 11.04139-12.63302
 3.32-1.00 -6.258 -6.253 -6.242 -6.223 -6.197  3.96858 11.54419-12.13018
 3.32-0.50 -6.247 -6.242 -6.231 -6.211 -6.184  4.41263 12.05231-11.62197
 3.32 0.00 -6.214 -6.207 -6.197 -6.175 -6.147  4.88360 12.57380-11.10056
 3.32 0.50 -6.170 -6.164 -6.153 -6.132 -6.104  5.35755 13.11494-10.55956
 3.32 1.00 -6.130 -6.125 -6.115 -6.095 -6.069  5.81671 13.66829-10.00599
 3.32 1.25 -6.110 -6.105 -6.096 -6.078 -6.053  6.03795 13.94330 -9.73093
 3.32 1.50 -6.091 -6.086 -6.077 -6.060 -6.038  6.25551 14.21643 -9.45780
 3.32 1.75 -6.070 -6.065 -6.057 -6.042 -6.021  6.46947 14.48542 -9.18895
 3.32 2.00 -6.047 -6.043 -6.036 -6.021 -6.002  6.68278 14.75113 -8.92336
 3.32 2.25 -6.022 -6.019 -6.011 -5.998 -5.981  6.89601 15.01336 -8.66105
 3.32 2.50 -5.995 -5.992 -5.986 -5.974 -5.957  7.10857 15.27300 -8.40132
 3.32 2.75 -5.967 -5.963 -5.958 -5.947 -5.931  7.31675 15.53044 -8.14383
 3.32 3.00 -5.936 -5.934 -5.929 -5.919 -5.905  7.51970 15.78618 -7.88807
 3.32 3.20 -5.910 -5.908 -5.903 -5.894 -5.882  7.67384 15.98972 -7.68454
 3.32 3.40 -5.882 -5.880 -5.876 -5.868 -5.856  7.82213 16.19260 -7.48168
 3.32 3.60 -5.853 -5.851 -5.848 -5.841 -5.829  7.96384 16.39489 -7.27943
 3.32 3.80 -5.822 -5.820 -5.817 -5.811 -5.801  8.10016 16.59677 -7.07760
 3.32 4.00 -5.787 -5.786 -5.783 -5.778 -5.769  8.23223 16.79824 -6.87615
 3.32 4.20 -5.754 -5.753 -5.751 -5.745 -5.736  8.35989 16.99933 -6.67499
 3.32 4.40 -5.718 -5.716 -5.714 -5.708 -5.699  8.48654 17.20022 -6.47405
 3.32 4.60 -5.677 -5.675 -5.673 -5.667 -5.658  8.61221 17.40096 -6.27331
 3.32 4.80 -5.631 -5.630 -5.628 -5.622 -5.613  8.73765 17.60159 -6.07271
 3.32 5.00 -5.580 -5.579 -5.577 -5.571 -5.562  8.86308 17.80209 -5.87225
 3.32 5.20 -5.524 -5.523 -5.520 -5.515 -5.506  8.99070 18.00238 -5.67192
 3.32 5.40 -5.460 -5.459 -5.457 -5.452 -5.443  9.11954 18.20264 -5.47163
 3.32 5.60 -5.388 -5.387 -5.385 -5.380 -5.371  9.25017 18.40289 -5.27138
 3.32 5.80 -5.305 -5.304 -5.302 -5.297 -5.288  9.38169 18.60312 -5.07115
 3.32 6.00 -5.206 -5.205 -5.203 -5.198 -5.190  9.51322 18.80332 -4.87096
 3.32 6.25 -5.053 -5.053 -5.051 -5.046 -5.039  9.67543 19.05350 -4.62087
 3.32 6.50 -4.854 -4.853 -4.851 -4.848 -4.842  9.83512 19.30363 -4.37080
 3.32 6.75 -4.589 -4.589 -4.587 -4.584 -4.580  9.98907 19.55368 -4.12071
 3.32 7.00 -4.402 -4.401 -4.400 -4.397 -4.393 10.13830 19.80373 -3.87063
 3.32 7.25 -4.288 -4.287 -4.286 -4.284 -4.281 10.28239 20.05379 -3.62060
 3.32 7.50 -4.172 -4.171 -4.170 -4.168 -4.164 10.42243 20.30384 -3.37059
 3.32 7.75 -4.053 -4.053 -4.052 -4.050 -4.047 10.55918 20.55387 -3.12060
 3.32 8.00 -3.933 -3.933 -3.932 -3.931 -3.928 10.69241 20.80387 -2.87063
 3.34-2.00 -6.036 -6.030 -6.019 -5.998 -5.971  3.49038 10.51996-13.15434
 3.34-1.50 -6.094 -6.088 -6.077 -6.056 -6.028  3.82066 11.02036-12.65404
 3.34-1.00 -6.137 -6.131 -6.120 -6.099 -6.071  4.15806 11.52114-12.15317
 3.34-0.50 -6.150 -6.144 -6.132 -6.111 -6.082  4.52388 12.02366-11.65053
 3.34 0.00 -6.121 -6.114 -6.102 -6.080 -6.050  4.93571 12.53199-11.14237
 3.34 0.50 -6.062 -6.056 -6.044 -6.022 -5.992  5.39182 13.05269-10.62160
 3.34 1.00 -6.001 -5.995 -5.985 -5.965 -5.939  5.86811 13.59329-10.08097
 3.34 1.25 -5.976 -5.970 -5.960 -5.942 -5.918  6.10303 13.87002 -9.80433
 3.34 1.50 -5.953 -5.949 -5.939 -5.922 -5.899  6.33445 14.14675 -9.52768
 3.34 1.75 -5.932 -5.928 -5.919 -5.903 -5.883  6.55852 14.42190 -9.25256
 3.34 2.00 -5.911 -5.907 -5.899 -5.884 -5.864  6.77743 14.69522 -8.97922
 3.34 2.25 -5.888 -5.884 -5.877 -5.862 -5.844  6.99073 14.96434 -8.71007
 3.34 2.50 -5.863 -5.859 -5.852 -5.839 -5.820  7.20194 15.23019 -8.44418
 3.34 2.75 -5.832 -5.829 -5.823 -5.810 -5.793  7.41237 15.49267 -8.18173
 3.34 3.00 -5.799 -5.796 -5.790 -5.779 -5.763  7.62107 15.75251 -7.92191
 3.34 3.20 -5.770 -5.767 -5.762 -5.751 -5.737  7.78663 15.95863 -7.71578
 3.34 3.40 -5.738 -5.736 -5.732 -5.722 -5.708  7.94986 16.16366 -7.51073
 3.34 3.60 -5.706 -5.704 -5.699 -5.691 -5.679  8.10910 16.36765 -7.30667
 3.34 3.80 -5.672 -5.670 -5.666 -5.659 -5.648  8.26216 16.57094 -7.10332
 3.34 4.00 -5.636 -5.635 -5.632 -5.626 -5.616  8.40993 16.77357 -6.90067
 3.34 4.20 -5.605 -5.604 -5.601 -5.595 -5.586  8.55059 16.97567 -6.69863
 3.34 4.40 -5.572 -5.571 -5.568 -5.563 -5.553  8.68666 17.17737 -6.49699
 3.34 4.60 -5.538 -5.537 -5.535 -5.528 -5.519  8.81776 17.37867 -6.29570
 3.34 4.80 -5.502 -5.501 -5.498 -5.493 -5.483  8.94594 17.57972 -6.09464
 3.34 5.00 -5.464 -5.463 -5.460 -5.454 -5.445  9.07225 17.78053 -5.89381
 3.34 5.20 -5.423 -5.422 -5.420 -5.414 -5.404  9.19688 17.98119 -5.69319
 3.34 5.40 -5.379 -5.378 -5.375 -5.370 -5.361  9.32150 18.18172 -5.49267
 3.34 5.60 -5.331 -5.330 -5.328 -5.322 -5.313  9.44660 18.38215 -5.29220
 3.34 5.80 -5.280 -5.279 -5.277 -5.271 -5.262  9.57277 18.58250 -5.09178
 3.34 6.00 -5.224 -5.223 -5.221 -5.216 -5.207  9.69975 18.78276 -4.89144
 3.34 6.25 -5.150 -5.149 -5.146 -5.141 -5.133  9.86068 19.03292 -4.64129
 3.34 6.50 -5.069 -5.068 -5.066 -5.062 -5.054 10.02160 19.28308 -4.39115
 3.34 6.75 -4.985 -4.984 -4.982 -4.978 -4.970 10.18092 19.53328 -4.14096
 3.34 7.00 -4.898 -4.897 -4.895 -4.891 -4.885 10.33826 19.78348 -3.89076
 3.34 7.25 -4.810 -4.809 -4.807 -4.803 -4.798 10.49052 20.03350 -3.64073
 3.34 7.50 -4.721 -4.721 -4.719 -4.716 -4.710 10.63849 20.28353 -3.39073
 3.34 7.75 -4.634 -4.633 -4.632 -4.629 -4.624 10.78187 20.53359 -3.14073
 3.34 8.00 -4.548 -4.547 -4.546 -4.542 -4.538 10.92075 20.78369 -2.89076
 3.36-2.00 -5.884 -5.877 -5.866 -5.845 -5.817  3.72965 10.49996-13.17444
 3.36-1.50 -5.937 -5.931 -5.919 -5.897 -5.869  4.08529 10.99996-12.67428
 3.36-1.00 -5.987 -5.981 -5.969 -5.947 -5.918  4.42062 11.50024-12.17406
 3.36-0.50 -6.019 -6.013 -6.000 -5.978 -5.948  4.75051 12.00130-11.67325
 3.36 0.00 -6.014 -6.007 -5.995 -5.971 -5.941  5.09447 12.50406-11.17031
 3.36 0.50 -5.968 -5.961 -5.949 -5.926 -5.896  5.47538 13.01242-10.66214
 3.36 1.00 -5.898 -5.893 -5.882 -5.862 -5.835  5.90741 13.53339-10.14086
 3.36 1.25 -5.864 -5.859 -5.849 -5.830 -5.806  6.14245 13.80201 -9.87234
 3.36 1.50 -5.832 -5.827 -5.818 -5.800 -5.777  6.37749 14.07445 -9.59998
 3.36 1.75 -5.803 -5.797 -5.789 -5.772 -5.751  6.61253 14.35116 -9.32323
 3.36 2.00 -5.775 -5.769 -5.762 -5.745 -5.725  6.84757 14.62788 -9.04648
 3.36 2.25 -5.746 -5.742 -5.734 -5.719 -5.698  7.07367 14.90292 -8.77137
 3.36 2.50 -5.717 -5.713 -5.705 -5.690 -5.670  7.29402 15.17609 -8.49812
 3.36 2.75 -5.684 -5.681 -5.674 -5.660 -5.641  7.50785 15.44513 -8.22909
 3.36 3.00 -5.649 -5.646 -5.639 -5.626 -5.609  7.71809 15.71088 -7.96337
 3.36 3.20 -5.617 -5.614 -5.608 -5.597 -5.580  7.88459 15.92086 -7.75341
 3.36 3.40 -5.583 -5.581 -5.576 -5.565 -5.550  8.04964 16.12919 -7.54508
 3.36 3.60 -5.547 -5.545 -5.540 -5.531 -5.517  8.21370 16.33597 -7.33829
 3.36 3.80 -5.509 -5.506 -5.502 -5.495 -5.482  8.37641 16.54158 -7.13265
 3.36 4.00 -5.468 -5.467 -5.464 -5.458 -5.447  8.53719 16.74609 -6.92812
 3.36 4.20 -5.433 -5.431 -5.428 -5.422 -5.411  8.69296 16.94956 -6.72467
 3.36 4.40 -5.396 -5.394 -5.392 -5.386 -5.375  8.84410 17.15240 -6.52185
 3.36 4.60 -5.358 -5.357 -5.355 -5.349 -5.339  8.98947 17.35467 -6.31957
 3.36 4.80 -5.321 -5.320 -5.317 -5.312 -5.301  9.12902 17.55657 -6.11766
 3.36 5.00 -5.282 -5.280 -5.278 -5.272 -5.262  9.26387 17.75808 -5.91614
 3.36 5.20 -5.240 -5.239 -5.237 -5.231 -5.222  9.39380 17.95923 -5.71504
 3.36 5.40 -5.197 -5.195 -5.193 -5.187 -5.178  9.52141 18.16016 -5.51413
 3.36 5.60 -5.149 -5.148 -5.146 -5.140 -5.131  9.64638 18.36091 -5.31337
 3.36 5.80 -5.098 -5.097 -5.094 -5.089 -5.081  9.77049 18.56153 -5.11272
 3.36 6.00 -5.042 -5.041 -5.039 -5.033 -5.025  9.89459 18.76200 -4.91222
 3.36 6.25 -4.966 -4.965 -4.963 -4.957 -4.950 10.05017 19.01237 -4.66189
 3.36 6.50 -4.882 -4.881 -4.879 -4.874 -4.868 10.20629 19.26269 -4.41162
 3.36 6.75 -4.792 -4.791 -4.789 -4.785 -4.779 10.36423 19.51300 -4.16137
 3.36 7.00 -4.698 -4.697 -4.696 -4.691 -4.685 10.52218 19.76328 -3.91116
 3.36 7.25 -4.601 -4.600 -4.598 -4.595 -4.590 10.67850 20.01334 -3.66097
 3.36 7.50 -4.504 -4.503 -4.502 -4.498 -4.494 10.83289 20.26340 -3.41083
 3.36 7.75 -4.409 -4.408 -4.407 -4.404 -4.400 10.98267 20.51351 -3.16078
 3.36 8.00 -4.316 -4.315 -4.313 -4.311 -4.307 11.12872 20.76365 -2.91080
 3.38-2.00 -5.759 -5.753 -5.742 -5.720 -5.692  3.88666 10.47986-13.19443
 3.38-1.50 -5.798 -5.792 -5.780 -5.758 -5.730  4.28937 10.97987-12.69443
 3.38-1.00 -5.841 -5.834 -5.822 -5.800 -5.770  4.66162 11.48001-12.19430
 3.38-0.50 -5.876 -5.869 -5.856 -5.833 -5.803  5.00732 11.98028-11.69400
 3.38 0.00 -5.885 -5.878 -5.865 -5.842 -5.812  5.33826 12.48130-11.19301
 3.38 0.50 -5.859 -5.853 -5.841 -5.818 -5.788  5.67117 12.98430-10.69016
 3.38 1.00 -5.803 -5.797 -5.786 -5.766 -5.739  6.02857 13.49318-10.18118
 3.38 1.25 -5.768 -5.762 -5.752 -5.733 -5.709  6.22528 13.75227 -9.92206
 3.38 1.50 -5.731 -5.725 -5.715 -5.698 -5.674  6.43425 14.01536 -9.65896
 3.38 1.75 -5.691 -5.686 -5.676 -5.659 -5.637  6.65941 14.28468 -9.38966
 3.38 2.00 -5.651 -5.646 -5.637 -5.620 -5.599  6.88975 14.55763 -9.11674
 3.38 2.25 -5.611 -5.606 -5.597 -5.581 -5.560  7.12403 14.83445 -8.83997
 3.38 2.50 -5.571 -5.566 -5.558 -5.542 -5.522  7.35832 15.11126 -8.56320
 3.38 2.75 -5.530 -5.526 -5.518 -5.503 -5.484  7.58515 15.38608 -8.28835
 3.38 3.00 -5.489 -5.485 -5.478 -5.465 -5.445  7.80645 15.65877 -8.01556
 3.38 3.20 -5.453 -5.450 -5.444 -5.432 -5.414  7.97823 15.87386 -7.80045
 3.38 3.40 -5.418 -5.415 -5.409 -5.398 -5.382  8.14710 16.08685 -7.58746
 3.38 3.60 -5.379 -5.377 -5.372 -5.362 -5.348  8.31321 16.29765 -7.37672
 3.38 3.80 -5.338 -5.336 -5.333 -5.324 -5.311  8.47742 16.50660 -7.16785
 3.38 4.00 -5.296 -5.295 -5.291 -5.284 -5.272  8.63988 16.71391 -6.96059
 3.38 4.20 -5.257 -5.255 -5.252 -5.245 -5.234  8.80165 16.91977 -6.75463
 3.38 4.40 -5.215 -5.213 -5.210 -5.204 -5.193  8.96144 17.12458 -6.54974
 3.38 4.60 -5.172 -5.170 -5.167 -5.161 -5.152  9.11859 17.32842 -6.34594
 3.38 4.80 -5.128 -5.127 -5.124 -5.118 -5.108  9.27148 17.53157 -6.14289
 3.38 5.00 -5.083 -5.082 -5.079 -5.073 -5.064  9.42029 17.73408 -5.94044
 3.38 5.20 -5.037 -5.036 -5.033 -5.028 -5.018  9.56258 17.93605 -5.73840
 3.38 5.40 -4.989 -4.988 -4.986 -4.980 -4.971  9.70023 18.13764 -5.53673
 3.38 5.60 -4.939 -4.938 -4.935 -4.930 -4.921  9.83278 18.33888 -5.33547
 3.38 5.80 -4.885 -4.884 -4.882 -4.877 -4.868  9.96177 18.53988 -5.13447
 3.38 6.00 -4.828 -4.827 -4.825 -4.819 -4.812 10.08814 18.74068 -4.93367
 3.38 6.25 -4.750 -4.749 -4.747 -4.743 -4.735 10.24278 18.99146 -4.68288
 3.38 6.50 -4.666 -4.665 -4.663 -4.659 -4.652 10.39707 19.24205 -4.43227
 3.38 6.75 -4.576 -4.575 -4.573 -4.569 -4.563 10.55117 19.49247 -4.18179
 3.38 7.00 -4.480 -4.479 -4.478 -4.474 -4.468 10.70527 19.74280 -3.93144
 3.38 7.25 -4.381 -4.380 -4.378 -4.375 -4.370 10.86031 19.99308 -3.68127
 3.38 7.50 -4.279 -4.279 -4.277 -4.274 -4.269 11.01536 20.24329 -3.43109
 3.38 7.75 -4.179 -4.179 -4.177 -4.174 -4.170 11.16818 20.49343 -3.18090
 3.38 8.00 -4.081 -4.080 -4.079 -4.077 -4.073 11.31952 20.74351 -2.93070
 3.40-2.00 -5.665 -5.658 -5.646 -5.625 -5.598  3.97021 10.45984-13.21446
 3.40-1.50 -5.688 -5.681 -5.670 -5.647 -5.619  4.41280 10.95985-12.71444
 3.40-1.00 -5.716 -5.709 -5.697 -5.674 -5.646  4.83085 11.46000-12.21439
 3.40-0.50 -5.742 -5.736 -5.723 -5.700 -5.671  5.21958 11.96000-11.71444
 3.40 0.00 -5.754 -5.747 -5.735 -5.711 -5.682  5.57864 12.46045-11.21396
 3.40 0.50 -5.739 -5.732 -5.720 -5.697 -5.669  5.91551 12.96147-10.71287
 3.40 1.00 -5.695 -5.689 -5.678 -5.657 -5.631  6.24502 13.46494-10.20943
 3.40 1.25 -5.664 -5.658 -5.647 -5.628 -5.603  6.41409 13.71868 -9.95563
 3.40 1.50 -5.628 -5.622 -5.611 -5.593 -5.569  6.58827 13.97460 -9.69962
 3.40 1.75 -5.586 -5.580 -5.570 -5.553 -5.529  6.77405 14.23463 -9.43964
 3.40 2.00 -5.540 -5.535 -5.525 -5.508 -5.486  6.97123 14.49886 -9.17549
 3.40 2.25 -5.491 -5.486 -5.476 -5.460 -5.437  7.18525 14.76929 -8.90502
 3.40 2.50 -5.439 -5.434 -5.426 -5.410 -5.388  7.40773 15.04297 -8.63134
 3.40 2.75 -5.386 -5.382 -5.374 -5.359 -5.338  7.63833 15.31984 -8.35452
 3.40 3.00 -5.332 -5.329 -5.322 -5.308 -5.289  7.86894 15.59671 -8.07769
 3.40 3.20 -5.289 -5.286 -5.280 -5.267 -5.249  8.04967 15.81640 -7.85800
 3.40 3.40 -5.246 -5.243 -5.238 -5.227 -5.211  8.22751 16.03453 -7.63985
 3.40 3.60 -5.202 -5.200 -5.196 -5.185 -5.171  8.40152 16.25051 -7.42388
 3.40 3.80 -5.158 -5.156 -5.152 -5.143 -5.130  8.57152 16.46395 -7.21048
 3.40 4.00 -5.112 -5.110 -5.107 -5.099 -5.088  8.73838 16.67532 -6.99913
 3.40 4.20 -5.068 -5.066 -5.063 -5.057 -5.046  8.90241 16.88462 -6.78981
 3.40 4.40 -5.022 -5.021 -5.017 -5.011 -5.001  9.06437 17.09235 -6.58204
 3.40 4.60 -4.975 -4.973 -4.970 -4.964 -4.954  9.22481 17.29854 -6.37578
 3.40 4.80 -4.925 -4.923 -4.921 -4.915 -4.906  9.38365 17.50360 -6.17066
 3.40 5.00 -4.873 -4.872 -4.869 -4.864 -4.854  9.54033 17.70766 -5.96658
 3.40 5.20 -4.820 -4.819 -4.816 -4.811 -4.802  9.69379 17.91086 -5.76342
 3.40 5.40 -4.765 -4.764 -4.761 -4.756 -4.748  9.84349 18.11349 -5.56085
 3.40 5.60 -4.708 -4.707 -4.704 -4.700 -4.691  9.98841 18.31558 -5.35885
 3.40 5.80 -4.649 -4.648 -4.646 -4.641 -4.634 10.12802 18.51730 -5.15719
 3.40 6.00 -4.588 -4.587 -4.585 -4.580 -4.573 10.26316 18.71867 -4.95585
 3.40 6.25 -4.508 -4.507 -4.505 -4.501 -4.494 10.42554 18.96994 -4.70448
 3.40 6.50 -4.423 -4.422 -4.420 -4.417 -4.411 10.58354 19.22089 -4.45346
 3.40 6.75 -4.334 -4.334 -4.332 -4.328 -4.322 10.73770 19.47159 -4.20284
 3.40 7.00 -4.241 -4.240 -4.239 -4.236 -4.230 10.89070 19.72214 -3.95234
 3.40 7.25 -4.144 -4.143 -4.142 -4.139 -4.134 11.04292 19.97262 -3.70187
 3.40 7.50 -4.044 -4.043 -4.042 -4.040 -4.036 11.19507 20.22298 -3.45149
 3.40 7.75 -3.944 -3.944 -3.943 -3.940 -3.936 11.34719 20.47320 -3.20126
 3.40 8.00 -3.845 -3.844 -3.843 -3.841 -3.837 11.49927 20.72329 -2.95117
 3.42-2.00 -5.597 -5.590 -5.579 -5.557 -5.530  3.99401 10.43996-13.23441
 3.42-1.50 -5.605 -5.598 -5.586 -5.564 -5.537  4.47159 10.93992-12.73448
 3.42-1.00 -5.618 -5.611 -5.599 -5.577 -5.549  4.92722 11.43996-12.23441
 3.42-0.50 -5.631 -5.625 -5.613 -5.590 -5.560  5.35774 11.93997-11.73448
 3.42 0.00 -5.636 -5.629 -5.616 -5.593 -5.564  5.76125 12.44012-11.23418
 3.42 0.50 -5.620 -5.613 -5.601 -5.579 -5.551  6.13386 12.94052-10.73377
 3.42 1.00 -5.578 -5.572 -5.561 -5.540 -5.514  6.47958 13.44185-10.23247
 3.42 1.25 -5.547 -5.541 -5.530 -5.511 -5.485  6.64521 13.69333 -9.98102
 3.42 1.50 -5.511 -5.505 -5.495 -5.475 -5.451  6.81084 13.94576 -9.72862
 3.42 1.75 -5.468 -5.462 -5.453 -5.434 -5.410  6.97788 14.20019 -9.47420
 3.42 2.00 -5.421 -5.416 -5.406 -5.388 -5.364  7.14706 14.45713 -9.21724
 3.42 2.25 -5.368 -5.363 -5.354 -5.337 -5.314  7.32582 14.71841 -8.95598
 3.42 2.50 -5.312 -5.307 -5.298 -5.282 -5.260  7.51415 14.98403 -8.69037
 3.42 2.75 -5.250 -5.246 -5.238 -5.223 -5.203  7.71805 15.25601 -8.41829
 3.42 3.00 -5.187 -5.183 -5.176 -5.163 -5.144  7.93161 15.53058 -8.14369
 3.42 3.20 -5.134 -5.131 -5.124 -5.112 -5.095  8.11112 15.75204 -7.92231
 3.42 3.40 -5.080 -5.078 -5.072 -5.061 -5.045  8.29064 15.97349 -7.70093
 3.42 3.60 -5.027 -5.024 -5.019 -5.010 -4.996  8.46953 16.19399 -7.48046
 3.42 3.80 -4.973 -4.970 -4.966 -4.958 -4.946  8.64647 16.41218 -7.26223
 3.42 4.00 -4.918 -4.916 -4.913 -4.906 -4.895  8.82164 16.62859 -7.04576
 3.42 4.20 -4.866 -4.865 -4.862 -4.855 -4.845  8.99207 16.84226 -6.83210
 3.42 4.40 -4.813 -4.812 -4.810 -4.803 -4.794  9.15948 17.05390 -6.62047
 3.42 4.60 -4.760 -4.759 -4.756 -4.750 -4.742  9.32382 17.26347 -6.41090
 3.42 4.80 -4.706 -4.705 -4.702 -4.696 -4.688  9.48563 17.47137 -6.20298
 3.42 5.00 -4.648 -4.647 -4.645 -4.640 -4.631  9.64513 17.67779 -5.99654
 3.42 5.20 -4.590 -4.589 -4.587 -4.582 -4.574  9.80319 17.88294 -5.79143
 3.42 5.40 -4.529 -4.528 -4.526 -4.522 -4.514  9.95888 18.08717 -5.58722
 3.42 5.60 -4.467 -4.466 -4.464 -4.459 -4.452 10.11204 18.29051 -5.38384
 3.42 5.80 -4.403 -4.402 -4.400 -4.395 -4.388 10.26177 18.49324 -5.18103
 3.42 6.00 -4.337 -4.336 -4.334 -4.329 -4.323 10.40790 18.69539 -4.97881
 3.42 6.25 -4.252 -4.251 -4.249 -4.246 -4.239 10.58308 18.94738 -4.72677
 3.42 6.50 -4.165 -4.164 -4.163 -4.160 -4.154 10.75159 19.19893 -4.47522
 3.42 6.75 -4.077 -4.076 -4.074 -4.071 -4.066 10.91304 19.45024 -4.22398
 3.42 7.00 -3.985 -3.984 -3.983 -3.980 -3.976 11.07004 19.70122 -3.97306
 3.42 7.25 -3.892 -3.891 -3.890 -3.887 -3.883 11.22324 19.95176 -3.72243
 3.42 7.50 -3.797 -3.796 -3.795 -3.793 -3.789 11.37475 20.20222 -3.47198
 3.42 7.75 -3.701 -3.700 -3.699 -3.696 -3.693 11.52541 20.45265 -3.22164
 3.42 8.00 -3.605 -3.604 -3.603 -3.600 -3.597 11.67495 20.70303 -2.97143
 3.44-2.00 -5.552 -5.546 -5.535 -5.514 -5.488  3.98958 10.41996-13.25438
 3.44-1.50 -5.547 -5.541 -5.529 -5.507 -5.479  4.48073 10.91991-12.75449
 3.44-1.00 -5.546 -5.539 -5.527 -5.504 -5.476  4.96530 11.41996-12.25438
 3.44-0.50 -5.545 -5.538 -5.526 -5.503 -5.475  5.43217 11.91991-11.75449
 3.44 0.00 -5.538 -5.531 -5.518 -5.496 -5.467  5.87431 12.41996-11.25430
 3.44 0.50 -5.513 -5.507 -5.495 -5.473 -5.445  6.29003 12.92012-10.75424
 3.44 1.00 -5.465 -5.459 -5.447 -5.426 -5.401  6.67559 13.42062-10.25368
 3.44 1.25 -5.430 -5.424 -5.413 -5.393 -5.367  6.85645 13.67120-10.00305
 3.44 1.50 -5.390 -5.384 -5.373 -5.353 -5.329  7.03141 13.92221 -9.75203
 3.44 1.75 -5.343 -5.337 -5.326 -5.308 -5.284  7.20002 14.17408 -9.50022
 3.44 2.00 -5.291 -5.285 -5.275 -5.257 -5.234  7.36773 14.42716 -9.24726
 3.44 2.25 -5.233 -5.228 -5.219 -5.202 -5.180  7.53491 14.68240 -8.99196
 3.44 2.50 -5.172 -5.167 -5.159 -5.143 -5.122  7.70209 14.94047 -8.73377
 3.44 2.75 -5.105 -5.102 -5.094 -5.080 -5.060  7.87706 15.20356 -8.47075
 3.44 3.00 -5.036 -5.032 -5.025 -5.012 -4.995  8.05956 15.47114 -8.20329
 3.44 3.20 -4.976 -4.973 -4.967 -4.956 -4.940  8.21530 15.69014 -7.98444
 3.44 3.40 -4.915 -4.912 -4.907 -4.897 -4.882  8.37704 15.91006 -7.76456
 3.44 3.60 -4.852 -4.850 -4.845 -4.836 -4.823  8.54688 16.13089 -7.54364
 3.44 3.80 -4.787 -4.785 -4.782 -4.774 -4.762  8.72035 16.35194 -7.32246
 3.44 4.00 -4.722 -4.720 -4.717 -4.711 -4.700  8.89382 16.57299 -7.10128
 3.44 4.20 -4.660 -4.658 -4.655 -4.649 -4.639  9.06708 16.79122 -6.88306
 3.44 4.40 -4.597 -4.596 -4.593 -4.587 -4.578  9.24001 17.00752 -6.66680
 3.44 4.60 -4.534 -4.533 -4.530 -4.525 -4.517  9.41083 17.22155 -6.45281
 3.44 4.80 -4.472 -4.471 -4.469 -4.464 -4.456  9.57784 17.43328 -6.24107
 3.44 5.00 -4.410 -4.409 -4.407 -4.402 -4.395  9.74218 17.64306 -6.03128
 3.44 5.20 -4.347 -4.347 -4.345 -4.340 -4.332  9.90369 17.85092 -5.82341
 3.44 5.40 -4.284 -4.283 -4.281 -4.277 -4.269 10.06280 18.05742 -5.61689
 3.44 5.60 -4.218 -4.217 -4.215 -4.211 -4.204 10.21983 18.26266 -5.41166
 3.44 5.80 -4.151 -4.150 -4.148 -4.144 -4.138 10.37468 18.46699 -5.20736
 3.44 6.00 -4.081 -4.081 -4.079 -4.075 -4.069 10.52699 18.67043 -5.00393
 3.44 6.25 -3.993 -3.993 -3.991 -3.988 -3.982 10.71310 18.92364 -4.75062
 3.44 6.50 -3.904 -3.904 -3.902 -3.899 -3.893 10.89365 19.17609 -4.49812
 3.44 6.75 -3.814 -3.813 -3.812 -3.809 -3.804 11.06666 19.42805 -4.24624
 3.44 7.00 -3.723 -3.723 -3.721 -3.718 -3.714 11.23325 19.67952 -3.99482
 3.44 7.25 -3.632 -3.632 -3.631 -3.628 -3.624 11.39306 19.93049 -3.74377
 3.44 7.50 -3.541 -3.540 -3.539 -3.536 -3.533 11.54839 20.18127 -3.49295
 3.44 7.75 -3.449 -3.448 -3.447 -3.445 -3.442 11.70067 20.43196 -3.24230
 3.44 8.00 -3.357 -3.357 -3.356 -3.354 -3.350 11.84942 20.68251 -2.99183
 3.46-2.00 -5.505 -5.500 -5.491 -5.474 -5.451  4.02938 10.39985-13.27442
 3.46-1.50 -5.504 -5.499 -5.489 -5.468 -5.443  4.48813 10.89988-12.77443
 3.46-1.00 -5.496 -5.490 -5.478 -5.456 -5.429  4.96970 11.39985-12.27442
 3.46-0.50 -5.482 -5.476 -5.464 -5.442 -5.413  5.45515 11.89988-11.77443
 3.46 0.00 -5.462 -5.456 -5.443 -5.421 -5.393  5.92973 12.39985-11.27442
 3.46 0.50 -5.427 -5.420 -5.408 -5.386 -5.359  6.38202 12.89998-10.77443
 3.46 1.00 -5.367 -5.360 -5.349 -5.328 -5.303  6.80814 13.40019-10.27417
 3.46 1.25 -5.326 -5.319 -5.308 -5.288 -5.263  7.01040 13.65042-10.02387
 3.46 1.50 -5.277 -5.272 -5.261 -5.241 -5.217  7.20520 13.90081 -9.77340
 3.46 1.75 -5.222 -5.217 -5.207 -5.188 -5.165  7.39173 14.15160 -9.52267
 3.46 2.00 -5.162 -5.157 -5.147 -5.129 -5.107  7.57159 14.40295 -9.27148
 3.46 2.25 -5.096 -5.091 -5.082 -5.065 -5.045  7.74431 14.65521 -9.01922
 3.46 2.50 -5.024 -5.020 -5.012 -4.997 -4.978  7.91440 14.90886 -8.76548
 3.46 2.75 -4.948 -4.944 -4.937 -4.923 -4.905  8.08241 15.16536 -8.50896
 3.46 3.00 -4.867 -4.864 -4.858 -4.846 -4.830  8.25042 15.42521 -8.24911
 3.46 3.20 -4.800 -4.797 -4.791 -4.781 -4.766  8.38873 15.63709 -8.03726
 3.46 3.40 -4.731 -4.729 -4.724 -4.715 -4.702  8.53063 15.85179 -7.82260
 3.46 3.60 -4.661 -4.659 -4.655 -4.647 -4.635  8.67791 16.07050 -7.60390
 3.46 3.80 -4.590 -4.588 -4.585 -4.577 -4.566  8.83173 16.29112 -7.38325
 3.46 4.00 -4.517 -4.516 -4.513 -4.507 -4.497  8.99069 16.51175 -7.16260
 3.46 4.20 -4.446 -4.445 -4.443 -4.437 -4.429  9.15685 16.73232 -6.94199
 3.46 4.40 -4.376 -4.374 -4.372 -4.367 -4.358  9.32407 16.95277 -6.72144
 3.46 4.60 -4.305 -4.304 -4.301 -4.297 -4.289  9.49229 17.17181 -6.50237
 3.46 4.80 -4.235 -4.234 -4.232 -4.228 -4.221  9.66073 17.38796 -6.28631
 3.46 5.00 -4.166 -4.165 -4.163 -4.159 -4.153  9.82917 17.60206 -6.07232
 3.46 5.20 -4.098 -4.097 -4.095 -4.092 -4.085  9.99450 17.81359 -5.86082
 3.46 5.40 -4.030 -4.030 -4.028 -4.024 -4.018 10.15772 18.02328 -5.65114
 3.46 5.60 -3.963 -3.962 -3.960 -3.956 -3.950 10.31864 18.23113 -5.44326
 3.46 5.80 -3.894 -3.893 -3.892 -3.888 -3.882 10.47703 18.43761 -5.23674
 3.46 6.00 -3.825 -3.824 -3.823 -3.819 -3.813 10.63306 18.64286 -5.03147
 3.46 6.25 -3.736 -3.735 -3.734 -3.731 -3.726 10.82505 18.89804 -4.77635
 3.46 6.50 -3.646 -3.645 -3.644 -3.641 -3.637 11.01284 19.15198 -4.52245
 3.46 6.75 -3.555 -3.554 -3.553 -3.551 -3.547 11.19578 19.40488 -4.26951
 3.46 7.00 -3.464 -3.463 -3.462 -3.459 -3.456 11.37310 19.65706 -4.01728
 3.46 7.25 -3.373 -3.373 -3.372 -3.369 -3.366 11.54312 19.90863 -3.76557
 3.46 7.50 -3.283 -3.283 -3.282 -3.280 -3.277 11.70689 20.15987 -3.51428
 3.46 7.75 -3.194 -3.194 -3.193 -3.191 -3.187 11.86492 20.41091 -3.26329
 3.46 8.00 -3.107 -3.106 -3.105 -3.103 -3.100 12.01703 20.66172 -3.01265
 3.48-2.00 -5.397 -5.395 -5.389 -5.378 -5.363  4.27646 10.37967-13.29474
 3.48-1.50 -5.433 -5.429 -5.421 -5.407 -5.387  4.62511 10.87955-12.79480
 3.48-1.00 -5.445 -5.440 -5.431 -5.412 -5.389  5.02572 11.37967-12.29473
 3.48-0.50 -5.436 -5.430 -5.419 -5.399 -5.373  5.47363 11.87955-11.79480
 3.48 0.00 -5.408 -5.402 -5.390 -5.368 -5.342  5.94748 12.37967-11.29474
 3.48 0.50 -5.361 -5.355 -5.343 -5.322 -5.295  6.42357 12.87961-10.79480
 3.48 1.00 -5.289 -5.283 -5.271 -5.251 -5.226  6.88394 13.37967-10.29465
 3.48 1.25 -5.241 -5.235 -5.224 -5.205 -5.180  7.10484 13.62977-10.04449
 3.48 1.50 -5.184 -5.179 -5.169 -5.150 -5.126  7.31911 13.87996 -9.79426
 3.48 1.75 -5.120 -5.115 -5.105 -5.087 -5.065  7.52633 14.13033 -9.54394
 3.48 2.00 -5.049 -5.044 -5.034 -5.018 -4.997  7.72624 14.38094 -9.29345
 3.48 2.25 -4.969 -4.965 -4.956 -4.941 -4.922  7.91801 14.63189 -9.04255
 3.48 2.50 -4.883 -4.879 -4.871 -4.858 -4.840  8.10278 14.88344 -8.79102
 3.48 2.75 -4.791 -4.787 -4.781 -4.768 -4.752  8.28000 15.13643 -8.53800
 3.48 3.00 -4.694 -4.691 -4.685 -4.674 -4.660  8.45347 15.39129 -8.28308
 3.48 3.20 -4.613 -4.610 -4.605 -4.596 -4.583  8.58952 15.59749 -8.07684
 3.48 3.40 -4.531 -4.529 -4.525 -4.517 -4.505  8.72556 15.80610 -7.86819
 3.48 3.60 -4.450 -4.448 -4.444 -4.437 -4.427  8.86255 16.01801 -7.65627
 3.48 3.80 -4.369 -4.367 -4.364 -4.358 -4.348  9.00233 16.23332 -7.44099
 3.48 4.00 -4.290 -4.288 -4.285 -4.280 -4.272  9.14457 16.45117 -7.22315
 3.48 4.20 -4.213 -4.212 -4.210 -4.205 -4.197  9.29244 16.67243 -7.00189
 3.48 4.40 -4.138 -4.137 -4.135 -4.131 -4.123  9.44434 16.89369 -6.78062
 3.48 4.60 -4.064 -4.063 -4.062 -4.057 -4.051  9.60126 17.11464 -6.55968
 3.48 4.80 -3.991 -3.990 -3.989 -3.985 -3.978  9.76141 17.33452 -6.33981
 3.48 5.00 -3.919 -3.918 -3.917 -3.913 -3.907  9.92319 17.55340 -6.12096
 3.48 5.20 -3.848 -3.847 -3.845 -3.842 -3.836 10.08632 17.76916 -5.90521
 3.48 5.40 -3.777 -3.776 -3.775 -3.772 -3.766 10.24946 17.98281 -5.69156
 3.48 5.60 -3.707 -3.706 -3.705 -3.702 -3.697 10.41192 18.19422 -5.48013
 3.48 5.80 -3.637 -3.636 -3.635 -3.632 -3.627 10.57266 18.40371 -5.27061
 3.48 6.00 -3.568 -3.567 -3.566 -3.562 -3.558 10.73199 18.61151 -5.06278
 3.48 6.25 -3.480 -3.479 -3.478 -3.475 -3.470 10.92799 18.86921 -4.80508
 3.48 6.50 -3.391 -3.390 -3.389 -3.386 -3.383 11.12057 19.12516 -4.54914
 3.48 6.75 -3.301 -3.301 -3.300 -3.297 -3.294 11.30943 19.37963 -4.29466
 3.48 7.00 -3.211 -3.211 -3.210 -3.207 -3.204 11.49388 19.63307 -4.04124
 3.48 7.25 -3.121 -3.121 -3.120 -3.118 -3.114 11.67303 19.88569 -3.78866
 3.48 7.50 -3.032 -3.032 -3.030 -3.028 -3.025 11.84640 20.13767 -3.53671
 3.48 7.75 -2.944 -2.944 -2.943 -2.941 -2.938 12.01290 20.38919 -3.28518
 3.48 8.00 -2.858 -2.858 -2.857 -2.855 -2.852 12.17289 20.64018 -3.03414
 3.50-2.00 -5.198 -5.197 -5.195 -5.191 -5.185  4.68601 10.36003-13.31444
 3.50-1.50 -5.280 -5.277 -5.273 -5.266 -5.255  4.96811 10.85992-12.81446
 3.50-1.00 -5.336 -5.332 -5.327 -5.315 -5.299  5.27416 11.36003-12.31444
 3.50-0.50 -5.363 -5.359 -5.351 -5.335 -5.315  5.61784 11.85992-11.81446
 3.50 0.00 -5.355 -5.350 -5.341 -5.322 -5.299  6.01242 12.36003-11.31444
 3.50 0.50 -5.311 -5.305 -5.295 -5.275 -5.251  6.45378 12.85992-10.81446
 3.50 1.00 -5.231 -5.225 -5.215 -5.196 -5.172  6.91897 13.36003-10.31435
 3.50 1.25 -5.178 -5.172 -5.162 -5.143 -5.120  7.15054 13.61006-10.06427
 3.50 1.50 -5.114 -5.109 -5.099 -5.081 -5.059  7.38057 13.86010 -9.81418
 3.50 1.75 -5.042 -5.037 -5.028 -5.011 -4.989  7.60388 14.11020 -9.56403
 3.50 2.00 -4.959 -4.954 -4.946 -4.930 -4.910  7.82132 14.36040 -9.31381
 3.50 2.25 -4.866 -4.862 -4.854 -4.840 -4.822  8.03181 14.61086 -9.06342
 3.50 2.50 -4.763 -4.759 -4.753 -4.740 -4.724  8.23528 14.86166 -8.81276
 3.50 2.75 -4.652 -4.649 -4.643 -4.632 -4.617  8.43094 15.11304 -8.56137
 3.50 3.00 -4.535 -4.532 -4.527 -4.517 -4.504  8.61962 15.36530 -8.30901
 3.50 3.20 -4.437 -4.435 -4.430 -4.422 -4.410  8.76476 15.56834 -8.10595
 3.50 3.40 -4.339 -4.337 -4.333 -4.326 -4.315  8.90722 15.77287 -7.90142
 3.50 3.60 -4.241 -4.239 -4.236 -4.230 -4.220  9.04657 15.97944 -7.69487
 3.50 3.80 -4.145 -4.143 -4.141 -4.135 -4.127  9.18481 16.18896 -7.48536
 3.50 4.00 -4.053 -4.051 -4.048 -4.044 -4.037  9.32305 16.40123 -7.27311
 3.50 4.20 -3.964 -3.963 -3.962 -3.958 -3.951  9.46266 16.61787 -7.05647
 3.50 4.40 -3.882 -3.881 -3.879 -3.876 -3.870  9.60376 16.83642 -6.83792
 3.50 4.60 -3.804 -3.803 -3.801 -3.798 -3.793  9.74745 17.05714 -6.61718
 3.50 4.80 -3.730 -3.729 -3.728 -3.724 -3.719  9.89477 17.27862 -6.39568
 3.50 5.00 -3.658 -3.657 -3.655 -3.652 -3.647 10.04493 17.50010 -6.17418
 3.50 5.20 -3.587 -3.587 -3.585 -3.582 -3.578 10.19870 17.71959 -5.95476
 3.50 5.40 -3.518 -3.517 -3.516 -3.513 -3.509 10.35406 17.93742 -5.73700
 3.50 5.60 -3.449 -3.449 -3.447 -3.444 -3.440 10.51119 18.15301 -5.52143
 3.50 5.80 -3.380 -3.380 -3.379 -3.376 -3.372 10.66893 18.36606 -5.30833
 3.50 6.00 -3.311 -3.311 -3.310 -3.307 -3.303 10.82666 18.57703 -5.09729
 3.50 6.25 -3.226 -3.225 -3.224 -3.221 -3.217 11.02282 18.83797 -4.83633
 3.50 6.50 -3.139 -3.139 -3.138 -3.135 -3.132 11.21775 19.09656 -4.57774
 3.50 6.75 -3.052 -3.051 -3.050 -3.048 -3.045 11.40972 19.35321 -4.32113
 3.50 7.00 -2.965 -2.964 -2.963 -2.961 -2.958 11.59857 19.60831 -4.06606
 3.50 7.25 -2.876 -2.876 -2.875 -2.873 -2.870 11.78332 19.86207 -3.81229
 3.50 7.50 -2.788 -2.788 -2.787 -2.785 -2.783 11.96341 20.11494 -3.55941
 3.50 7.75 -2.702 -2.702 -2.701 -2.699 -2.696 12.13749 20.36725 -3.30710
 3.50 8.00 -2.617 -2.617 -2.616 -2.614 -2.611 12.30600 20.61889 -3.05547
 3.52-2.00 -4.938 -4.938 -4.937 -4.936 -4.935  5.14860 10.33985-13.33442
 3.52-1.50 -5.050 -5.050 -5.049 -5.046 -5.043  5.40875 10.83992-12.83446
 3.52-1.00 -5.145 -5.144 -5.142 -5.137 -5.130  5.67651 11.33985-12.33442
 3.52-0.50 -5.216 -5.214 -5.210 -5.202 -5.191  5.95766 11.83992-11.83446
 3.52 0.00 -5.252 -5.249 -5.243 -5.230 -5.215  6.26198 12.33985-11.33442
 3.52 0.50 -5.241 -5.236 -5.228 -5.214 -5.195  6.60325 12.83992-10.83446
 3.52 1.00 -5.176 -5.171 -5.163 -5.148 -5.128  6.99348 13.34005-10.33442
 3.52 1.25 -5.125 -5.120 -5.111 -5.096 -5.076  7.20750 13.59001-10.08444
 3.52 1.50 -5.060 -5.056 -5.047 -5.032 -5.012  7.42781 13.83998 -9.83446
 3.52 1.75 -4.983 -4.979 -4.971 -4.956 -4.937  7.65380 14.09009 -9.58434
 3.52 2.00 -4.893 -4.889 -4.881 -4.867 -4.849  7.87978 14.34025 -9.33414
 3.52 2.25 -4.789 -4.786 -4.779 -4.766 -4.751  8.10245 14.59042 -9.08390
 3.52 2.50 -4.673 -4.670 -4.663 -4.652 -4.637  8.32160 14.84067 -8.83357
 3.52 2.75 -4.545 -4.542 -4.536 -4.526 -4.513  8.53420 15.09131 -8.58294
 3.52 3.00 -4.407 -4.405 -4.400 -4.391 -4.380  8.74052 15.34242 -8.33189
 3.52 3.20 -4.293 -4.291 -4.287 -4.279 -4.269  8.90018 15.54387 -8.13046
 3.52 3.40 -4.177 -4.174 -4.171 -4.165 -4.155  9.05555 15.74610 -7.92823
 3.52 3.60 -4.060 -4.059 -4.056 -4.050 -4.042  9.20608 15.94940 -7.72494
 3.52 3.80 -3.947 -3.945 -3.942 -3.938 -3.931  9.35286 16.15460 -7.51975
 3.52 4.00 -3.836 -3.835 -3.833 -3.829 -3.823  9.49679 16.36173 -7.31265
 3.52 4.20 -3.732 -3.731 -3.729 -3.725 -3.719  9.63745 16.57225 -7.10211
 3.52 4.40 -3.634 -3.633 -3.631 -3.628 -3.623  9.77811 16.78562 -6.88871
 3.52 4.60 -3.543 -3.542 -3.541 -3.538 -3.534  9.91884 17.00299 -6.67133
 3.52 4.80 -3.460 -3.460 -3.458 -3.455 -3.451 10.05993 17.22277 -6.45156
 3.52 5.00 -3.383 -3.383 -3.382 -3.379 -3.375 10.20140 17.44326 -6.23107
 3.52 5.20 -3.312 -3.312 -3.310 -3.308 -3.304 10.34525 17.66425 -6.01009
 3.52 5.40 -3.245 -3.244 -3.243 -3.241 -3.237 10.49079 17.88523 -5.78910
 3.52 5.60 -3.179 -3.178 -3.177 -3.175 -3.172 10.63838 18.10497 -5.56938
 3.52 5.80 -3.115 -3.114 -3.113 -3.111 -3.107 10.78774 18.32195 -5.35242
 3.52 6.00 -3.050 -3.050 -3.049 -3.046 -3.043 10.93842 18.53694 -5.13745
 3.52 6.25 -2.970 -2.969 -2.968 -2.966 -2.963 11.12876 18.80200 -4.87229
 3.52 6.50 -2.888 -2.888 -2.887 -2.884 -2.882 11.31911 19.06409 -4.61013
 3.52 6.75 -2.805 -2.805 -2.804 -2.802 -2.800 11.50930 19.32356 -4.35068
 3.52 7.00 -2.722 -2.721 -2.721 -2.719 -2.716 11.69923 19.58092 -4.09334
 3.52 7.25 -2.638 -2.637 -2.636 -2.634 -2.631 11.88628 19.83639 -3.83779
 3.52 7.50 -2.553 -2.552 -2.551 -2.549 -2.547 12.07041 20.09061 -3.58353
 3.52 7.75 -2.469 -2.468 -2.467 -2.465 -2.463 12.24967 20.34403 -3.33017
 3.52 8.00 -2.385 -2.385 -2.384 -2.382 -2.380 12.42472 20.59649 -3.07785
 3.54-2.00 -4.644 -4.644 -4.644 -4.644 -4.644  5.60991 10.31994-13.35438
 3.54-1.50 -4.779 -4.779 -4.778 -4.778 -4.777  5.86320 10.81987-12.85449
 3.54-1.00 -4.899 -4.899 -4.898 -4.898 -4.895  6.11893 11.31994-12.35438
 3.54-0.50 -5.002 -5.001 -4.999 -4.997 -4.993  6.37931 11.81987-11.85449
 3.54 0.00 -5.076 -5.075 -5.072 -5.066 -5.059  6.64729 12.31994-11.35438
 3.54 0.50 -5.107 -5.105 -5.100 -5.092 -5.082  6.92911 12.81994-10.85449
 3.54 1.00 -5.080 -5.076 -5.071 -5.061 -5.048  7.23426 13.31994-10.35438
 3.54 1.25 -5.042 -5.039 -5.034 -5.023 -5.009  7.40006 13.56994-10.10444
 3.54 1.50 -4.988 -4.985 -4.980 -4.968 -4.954  7.57611 13.81994 -9.85449
 3.54 1.75 -4.919 -4.915 -4.910 -4.899 -4.885  7.76514 14.07004 -9.60439
 3.54 2.00 -4.831 -4.829 -4.823 -4.812 -4.798  7.96445 14.32015 -9.35428
 3.54 2.25 -4.727 -4.724 -4.718 -4.709 -4.696  8.17536 14.57021 -9.10423
 3.54 2.50 -4.604 -4.602 -4.596 -4.587 -4.575  8.38970 14.82027 -8.85418
 3.54 2.75 -4.466 -4.463 -4.459 -4.450 -4.440  8.60652 15.07060 -8.60383
 3.54 3.00 -4.314 -4.312 -4.308 -4.300 -4.291  8.82334 15.32119 -8.35320
 3.54 3.20 -4.186 -4.184 -4.181 -4.175 -4.165  8.99318 15.52186 -8.15250
 3.54 3.40 -4.055 -4.054 -4.050 -4.045 -4.037  9.16014 15.72289 -7.95144
 3.54 3.60 -3.923 -3.921 -3.918 -3.914 -3.907  9.32355 15.92447 -7.74987
 3.54 3.80 -3.791 -3.790 -3.788 -3.783 -3.777  9.48272 16.12718 -7.54720
 3.54 4.00 -3.662 -3.661 -3.660 -3.656 -3.651  9.63809 16.33102 -7.34342
 3.54 4.20 -3.539 -3.538 -3.536 -3.534 -3.528  9.78895 16.53692 -7.13751
 3.54 4.40 -3.422 -3.422 -3.420 -3.417 -3.413  9.93695 16.74516 -6.92923
 3.54 4.60 -3.313 -3.313 -3.311 -3.308 -3.305 10.08189 16.95661 -6.71774
 3.54 4.80 -3.213 -3.212 -3.211 -3.209 -3.205 10.22514 17.17149 -6.50285
 3.54 5.00 -3.122 -3.122 -3.121 -3.118 -3.115 10.36736 17.38899 -6.28534
 3.54 5.20 -3.041 -3.040 -3.039 -3.037 -3.034 10.50868 17.61014 -6.06415
 3.54 5.40 -2.967 -2.967 -2.966 -2.964 -2.960 10.65000 17.83129 -5.84296
 3.54 5.60 -2.900 -2.900 -2.899 -2.897 -2.894 10.79151 18.05220 -5.62202
 3.54 5.80 -2.838 -2.837 -2.836 -2.834 -2.831 10.93363 18.27227 -5.40199
 3.54 6.00 -2.778 -2.777 -2.776 -2.775 -2.771 11.07628 18.49150 -5.18283
 3.54 6.25 -2.704 -2.703 -2.702 -2.701 -2.698 11.25638 18.76128 -4.91311
 3.54 6.50 -2.630 -2.630 -2.629 -2.627 -2.625 11.43791 19.02776 -4.64666
 3.54 6.75 -2.556 -2.555 -2.554 -2.552 -2.550 11.62130 19.29072 -4.38367
 3.54 7.00 -2.479 -2.479 -2.478 -2.476 -2.474 11.80496 19.55096 -4.12338
 3.54 7.25 -2.401 -2.400 -2.400 -2.398 -2.396 11.98878 19.80877 -3.86551
 3.54 7.50 -2.322 -2.321 -2.321 -2.319 -2.316 12.17260 20.06483 -3.60942
 3.54 7.75 -2.242 -2.241 -2.241 -2.239 -2.236 12.35328 20.31967 -3.35460
 3.54 8.00 -2.163 -2.162 -2.161 -2.159 -2.157 12.53186 20.57310 -3.10122
 3.56-2.00 -4.330 -4.330 -4.330 -4.330 -4.329  6.05805 10.29994-13.37448
 3.56-1.50 -4.482 -4.482 -4.482 -4.482 -4.482  6.30920 10.79982-12.87452
 3.56-1.00 -4.622 -4.622 -4.622 -4.622 -4.621  6.56122 11.29994-12.37448
 3.56-0.50 -4.746 -4.746 -4.746 -4.746 -4.744  6.81471 11.79982-11.87452
 3.56 0.00 -4.847 -4.847 -4.846 -4.845 -4.842  7.07078 12.29994-11.37448
 3.56 0.50 -4.910 -4.909 -4.907 -4.905 -4.901  7.33183 12.79982-10.87452
 3.56 1.00 -4.916 -4.915 -4.912 -4.908 -4.902  7.60097 13.29994-10.37448
 3.56 1.25 -4.894 -4.892 -4.890 -4.885 -4.878  7.74053 13.54988-10.12450
 3.56 1.50 -4.855 -4.854 -4.850 -4.845 -4.837  7.88463 13.79982 -9.87452
 3.56 1.75 -4.799 -4.797 -4.794 -4.787 -4.780  8.03497 14.04988 -9.62446
 3.56 2.00 -4.723 -4.722 -4.718 -4.712 -4.704  8.19257 14.29994 -9.37438
 3.56 2.25 -4.628 -4.627 -4.624 -4.617 -4.610  8.35974 14.54999 -9.12430
 3.56 2.50 -4.514 -4.512 -4.509 -4.503 -4.495  8.53656 14.80003 -8.87420
 3.56 2.75 -4.381 -4.379 -4.375 -4.370 -4.362  8.72530 15.05015 -8.62406
 3.56 3.00 -4.229 -4.228 -4.225 -4.219 -4.212  8.92205 15.30038 -8.37387
 3.56 3.20 -4.099 -4.097 -4.094 -4.089 -4.083  9.08660 15.50072 -8.17351
 3.56 3.40 -3.962 -3.960 -3.957 -3.953 -3.946  9.25127 15.70126 -7.97294
 3.56 3.60 -3.820 -3.819 -3.817 -3.813 -3.807  9.41604 15.90206 -7.77213
 3.56 3.80 -3.677 -3.676 -3.674 -3.671 -3.665  9.58083 16.10341 -7.57083
 3.56 4.00 -3.534 -3.534 -3.532 -3.529 -3.524  9.74562 16.30535 -7.36896
 3.56 4.20 -3.395 -3.395 -3.394 -3.390 -3.386  9.90628 16.50850 -7.16584
 3.56 4.40 -3.261 -3.260 -3.259 -3.256 -3.252 10.06417 16.71319 -6.96116
 3.56 4.60 -3.132 -3.132 -3.131 -3.128 -3.124 10.21884 16.91992 -6.75441
 3.56 4.80 -3.012 -3.011 -3.010 -3.008 -3.004 10.37031 17.12960 -6.54471
 3.56 5.00 -2.901 -2.901 -2.900 -2.898 -2.894 10.51904 17.34203 -6.33227
 3.56 5.20 -2.801 -2.800 -2.800 -2.798 -2.795 10.66514 17.55895 -6.11546
 3.56 5.40 -2.712 -2.712 -2.711 -2.709 -2.706 10.80933 17.77768 -5.89679
 3.56 5.60 -2.633 -2.633 -2.632 -2.630 -2.628 10.95154 17.99846 -5.67598
 3.56 5.80 -2.564 -2.564 -2.563 -2.561 -2.559 11.09250 18.21992 -5.45445
 3.56 6.00 -2.502 -2.501 -2.500 -2.499 -2.496 11.23249 18.44138 -5.23292
 3.56 6.25 -2.430 -2.430 -2.429 -2.427 -2.425 11.40619 18.71525 -4.95902
 3.56 6.50 -2.363 -2.362 -2.362 -2.360 -2.357 11.57990 18.98646 -4.68782
 3.56 6.75 -2.296 -2.296 -2.295 -2.293 -2.291 11.75424 19.25362 -4.42071
 3.56 7.00 -2.230 -2.229 -2.228 -2.226 -2.224 11.92922 19.51759 -4.15677
 3.56 7.25 -2.161 -2.160 -2.160 -2.158 -2.155 12.10561 19.77851 -3.89587
 3.56 7.50 -2.090 -2.090 -2.089 -2.087 -2.085 12.28217 20.03703 -3.63733
 3.56 7.75 -2.018 -2.017 -2.016 -2.014 -2.012 12.45878 20.29372 -3.38060
 3.56 8.00 -1.944 -1.944 -1.943 -1.941 -1.938 12.63548 20.54839 -3.12587
 3.58-2.00 -4.001 -4.001 -4.001 -4.001 -4.001  6.48615 10.27990-13.39448
 3.58-1.50 -4.171 -4.171 -4.171 -4.170 -4.170  6.73664 10.77981-12.89449
 3.58-1.00 -4.327 -4.327 -4.327 -4.326 -4.326  6.98744 11.27989-12.39448
 3.58-0.50 -4.467 -4.467 -4.467 -4.467 -4.466  7.23880 11.77981-11.89449
 3.58 0.00 -4.586 -4.585 -4.585 -4.584 -4.584  7.49094 12.27989-11.39448
 3.58 0.50 -4.668 -4.667 -4.667 -4.667 -4.666  7.74484 12.77981-10.89449
 3.58 1.00 -4.694 -4.694 -4.693 -4.692 -4.690  8.00173 13.27990-10.39448
 3.58 1.25 -4.681 -4.680 -4.680 -4.678 -4.676  8.13197 13.52989-10.14449
 3.58 1.50 -4.649 -4.648 -4.647 -4.645 -4.643  8.26387 13.77989 -9.89449
 3.58 1.75 -4.599 -4.599 -4.597 -4.595 -4.591  8.39807 14.02989 -9.64443
 3.58 2.00 -4.531 -4.530 -4.529 -4.526 -4.523  8.53517 14.27989 -9.39437
 3.58 2.25 -4.446 -4.445 -4.444 -4.441 -4.437  8.67624 14.52992 -9.14443
 3.58 2.50 -4.344 -4.343 -4.341 -4.338 -4.334  8.82217 14.77996 -8.89449
 3.58 2.75 -4.224 -4.224 -4.222 -4.218 -4.214  8.97471 15.03002 -8.64437
 3.58 3.00 -4.089 -4.088 -4.086 -4.082 -4.078  9.13450 15.28012 -8.39416
 3.58 3.20 -3.970 -3.969 -3.967 -3.964 -3.960  9.26898 15.48029 -8.19395
 3.58 3.40 -3.842 -3.841 -3.840 -3.837 -3.833  9.40881 15.68057 -7.99365
 3.58 3.60 -3.708 -3.707 -3.705 -3.703 -3.698  9.55484 15.88097 -7.79324
 3.58 3.80 -3.569 -3.568 -3.566 -3.563 -3.560  9.70562 16.08165 -7.59256
 3.58 4.00 -3.426 -3.425 -3.423 -3.420 -3.417  9.85980 16.28262 -7.39158
 3.58 4.20 -3.282 -3.281 -3.280 -3.277 -3.273 10.01770 16.48427 -7.18992
 3.58 4.40 -3.138 -3.137 -3.136 -3.134 -3.130 10.17560 16.68683 -6.98735
 3.58 4.60 -2.997 -2.996 -2.995 -2.993 -2.989 10.33327 16.89058 -6.78362
 3.58 4.80 -2.861 -2.860 -2.859 -2.857 -2.854 10.49010 17.09640 -6.57787
 3.58 5.00 -2.731 -2.731 -2.730 -2.727 -2.725 10.64611 17.30428 -6.37008
 3.58 5.20 -2.611 -2.611 -2.610 -2.608 -2.605 10.79919 17.51577 -6.15855
 3.58 5.40 -2.502 -2.501 -2.500 -2.498 -2.496 10.94996 17.73007 -5.94419
 3.58 5.60 -2.404 -2.403 -2.402 -2.401 -2.398 11.09825 17.94839 -5.72583
 3.58 5.80 -2.318 -2.318 -2.317 -2.315 -2.313 11.24389 18.16877 -5.50546
 3.58 6.00 -2.244 -2.243 -2.242 -2.241 -2.239 11.38703 18.38935 -5.28492
 3.58 6.25 -2.164 -2.164 -2.163 -2.161 -2.158 11.56202 18.66521 -5.00911
 3.58 6.50 -2.094 -2.094 -2.093 -2.092 -2.089 11.73416 18.94107 -4.73330
 3.58 6.75 -2.031 -2.031 -2.030 -2.028 -2.026 11.90354 19.21243 -4.46189
 3.58 7.00 -1.971 -1.971 -1.970 -1.968 -1.965 12.07225 19.48058 -4.19368
 3.58 7.25 -1.911 -1.911 -1.910 -1.908 -1.906 12.24050 19.74497 -3.92927
 3.58 7.50 -1.851 -1.851 -1.850 -1.848 -1.845 12.40875 20.00647 -3.66776
 3.58 7.75 -1.789 -1.789 -1.788 -1.786 -1.783 12.57740 20.26564 -3.40861
 3.58 8.00 -1.725 -1.725 -1.724 -1.722 -1.719 12.74632 20.52231 -3.15200
 3.60-2.00 -3.663 -3.663 -3.663 -3.662 -3.662  6.89575 10.25983-13.41465
 3.60-1.50 -3.848 -3.848 -3.847 -3.847 -3.847  7.14613 10.75974-12.91471
 3.60-1.00 -4.019 -4.019 -4.018 -4.018 -4.018  7.39637 11.25983-12.41454
 3.60-0.50 -4.173 -4.173 -4.173 -4.173 -4.172  7.64689 11.75982-11.91435
 3.60 0.00 -4.303 -4.303 -4.303 -4.302 -4.302  7.89774 12.25983-11.41443
 3.60 0.50 -4.396 -4.396 -4.396 -4.395 -4.394  8.14922 12.75982-10.91435
 3.60 1.00 -4.430 -4.430 -4.430 -4.429 -4.428  8.40175 13.25983-10.41443
 3.60 1.25 -4.419 -4.418 -4.418 -4.417 -4.417  8.52870 13.50986-10.16439
 3.60 1.50 -4.387 -4.387 -4.387 -4.385 -4.385  8.65629 13.75990 -9.91435
 3.60 1.75 -4.336 -4.336 -4.335 -4.334 -4.333  8.78476 14.00986 -9.66439
 3.60 2.00 -4.268 -4.268 -4.267 -4.266 -4.264  8.91434 14.25983 -9.41443
 3.60 2.25 -4.184 -4.184 -4.183 -4.181 -4.180  9.04543 14.50985 -9.16439
 3.60 2.50 -4.087 -4.086 -4.086 -4.084 -4.082  9.17840 14.75989 -8.91435
 3.60 2.75 -3.978 -3.977 -3.976 -3.975 -3.973  9.31396 15.00997 -8.66433
 3.60 3.00 -3.858 -3.857 -3.856 -3.855 -3.853  9.45271 15.26007 -8.41431
 3.60 3.20 -3.754 -3.754 -3.753 -3.751 -3.748  9.56680 15.46016 -8.21424
 3.60 3.40 -3.644 -3.643 -3.642 -3.640 -3.638  9.68412 15.66028 -8.01409
 3.60 3.60 -3.527 -3.526 -3.525 -3.523 -3.521  9.80502 15.86048 -7.81388
 3.60 3.80 -3.404 -3.403 -3.402 -3.400 -3.397  9.93033 16.06090 -7.61351
 3.60 4.00 -3.275 -3.274 -3.274 -3.272 -3.268 10.05994 16.26150 -7.41296
 3.60 4.20 -3.143 -3.142 -3.141 -3.139 -3.135 10.19502 16.46235 -7.21205
 3.60 4.40 -3.006 -3.006 -3.005 -3.002 -2.999 10.33430 16.66366 -7.01064
 3.60 4.60 -2.868 -2.867 -2.866 -2.864 -2.861 10.47825 16.86560 -6.80860
 3.60 4.80 -2.730 -2.729 -2.728 -2.726 -2.722 10.62538 17.06886 -6.60533
 3.60 5.00 -2.593 -2.593 -2.591 -2.589 -2.587 10.77474 17.27346 -6.40077
 3.60 5.20 -2.461 -2.461 -2.460 -2.457 -2.454 10.92637 17.48062 -6.19366
 3.60 5.40 -2.335 -2.335 -2.334 -2.333 -2.329 11.07800 17.69037 -5.98395
 3.60 5.60 -2.220 -2.219 -2.218 -2.216 -2.214 11.22930 17.90362 -5.77069
 3.60 5.80 -2.115 -2.115 -2.114 -2.112 -2.109 11.37942 18.12010 -5.55415
 3.60 6.00 -2.022 -2.022 -2.021 -2.020 -2.017 11.52840 18.33885 -5.33536
 3.60 6.25 -1.924 -1.924 -1.923 -1.921 -1.919 11.70961 18.61570 -5.05854
 3.60 6.50 -1.843 -1.842 -1.841 -1.839 -1.837 11.88638 18.89254 -4.78173
 3.60 6.75 -1.774 -1.773 -1.773 -1.771 -1.768 12.05769 19.16727 -4.50701
 3.60 7.00 -1.713 -1.713 -1.712 -1.710 -1.707 12.22531 19.43981 -4.23448
 3.60 7.25 -1.658 -1.657 -1.656 -1.654 -1.652 12.38968 19.70816 -3.96619
 3.60 7.50 -1.605 -1.604 -1.603 -1.601 -1.598 12.55218 19.97327 -3.70115
 3.60 7.75 -1.552 -1.552 -1.551 -1.549 -1.546 12.71358 20.23539 -3.43905
 3.60 8.00 -1.500 -1.500 -1.498 -1.496 -1.492 12.87361 20.49443 -3.18000
 3.62-2.00 -3.317 -3.317 -3.317 -3.317 -3.316  7.28825 10.23930-13.43498
 3.62-1.50 -3.517 -3.517 -3.516 -3.516 -3.515  7.53857 10.73957-12.93479
 3.62-1.00 -3.702 -3.702 -3.702 -3.701 -3.701  7.78888 11.23980-12.43462
 3.62-0.50 -3.870 -3.870 -3.869 -3.869 -3.869  8.03902 11.73973-11.93442
 3.62 0.00 -4.010 -4.010 -4.010 -4.010 -4.009  8.28959 12.23980-11.43451
 3.62 0.50 -4.108 -4.108 -4.107 -4.107 -4.106  8.54008 12.73981-10.93442
 3.62 1.00 -4.141 -4.141 -4.141 -4.141 -4.140  8.79120 13.23980-10.43451
 3.62 1.25 -4.128 -4.128 -4.128 -4.127 -4.126  8.91698 13.48981-10.18446
 3.62 1.50 -4.094 -4.094 -4.093 -4.092 -4.092  9.04297 13.73981 -9.93442
 3.62 1.75 -4.040 -4.040 -4.039 -4.038 -4.037  9.16928 13.98981 -9.68446
 3.62 2.00 -3.968 -3.967 -3.967 -3.967 -3.966  9.29601 14.23980 -9.43451
 3.62 2.25 -3.883 -3.882 -3.881 -3.881 -3.880  9.42335 14.48980 -9.18446
 3.62 2.50 -3.785 -3.785 -3.785 -3.784 -3.783  9.55145 14.73981 -8.93442
 3.62 2.75 -3.681 -3.680 -3.679 -3.679 -3.677  9.68062 14.98993 -8.68440
 3.62 3.00 -3.568 -3.567 -3.567 -3.566 -3.564  9.81111 15.24005 -8.43439
 3.62 3.20 -3.473 -3.473 -3.472 -3.470 -3.469  9.91673 15.44005 -8.23440
 3.62 3.40 -3.375 -3.374 -3.374 -3.372 -3.370 10.02372 15.64005 -8.03441
 3.62 3.60 -3.272 -3.272 -3.270 -3.269 -3.267 10.13220 15.84009 -7.83433
 3.62 3.80 -3.165 -3.165 -3.164 -3.162 -3.159 10.24275 16.04026 -7.63407
 3.62 4.00 -3.054 -3.053 -3.051 -3.050 -3.047 10.35545 16.24055 -7.43368
 3.62 4.20 -2.937 -2.937 -2.936 -2.934 -2.931 10.47107 16.44104 -7.23323
 3.62 4.40 -2.818 -2.817 -2.815 -2.813 -2.810 10.58979 16.64183 -7.03259
 3.62 4.60 -2.693 -2.692 -2.691 -2.689 -2.685 10.71189 16.84297 -6.83155
 3.62 4.80 -2.566 -2.565 -2.564 -2.562 -2.559 10.83782 17.04484 -6.62964
 3.62 5.00 -2.437 -2.436 -2.435 -2.433 -2.430 10.96745 17.24748 -6.42690
 3.62 5.20 -2.308 -2.308 -2.307 -2.304 -2.301 11.10140 17.45167 -6.22271
 3.62 5.40 -2.181 -2.180 -2.179 -2.177 -2.174 11.23868 17.65774 -6.01666
 3.62 5.60 -2.058 -2.058 -2.057 -2.055 -2.052 11.38007 17.86638 -5.80799
 3.62 5.80 -1.943 -1.942 -1.941 -1.940 -1.937 11.52368 18.07833 -5.59598
 3.62 6.00 -1.836 -1.835 -1.835 -1.833 -1.830 11.66811 18.29314 -5.38112
 3.62 6.25 -1.718 -1.718 -1.717 -1.716 -1.713 11.84935 18.56748 -5.10697
 3.62 6.50 -1.620 -1.619 -1.618 -1.616 -1.613 12.03060 18.84298 -4.83150
 3.62 6.75 -1.537 -1.537 -1.536 -1.534 -1.531 12.20641 19.11924 -4.55513
 3.62 7.00 -1.469 -1.468 -1.467 -1.465 -1.462 12.37785 19.39550 -4.27877
 3.62 7.25 -1.410 -1.410 -1.409 -1.407 -1.403 12.54336 19.66767 -4.00658
 3.62 7.50 -1.359 -1.359 -1.358 -1.355 -1.352 12.70458 19.93672 -3.73755
 3.62 7.75 -1.312 -1.312 -1.311 -1.308 -1.305 12.86244 20.20212 -3.47215
 3.62 8.00 -1.267 -1.267 -1.266 -1.263 -1.260 13.01662 20.46404 -3.21021
 3.64-2.00 -2.969 -2.969 -2.969 -2.968 -2.967  7.66143 10.21880-13.45568
 3.64-1.50 -3.181 -3.181 -3.180 -3.180 -3.179  7.91201 10.71917-12.95507
 3.64-1.00 -3.380 -3.380 -3.380 -3.379 -3.378  8.16257 11.21958-12.45482
 3.64-0.50 -3.561 -3.561 -3.560 -3.560 -3.559  8.41263 11.71966-11.95468
 3.64 0.00 -3.712 -3.712 -3.712 -3.712 -3.711  8.66295 12.21985-11.45457
 3.64 0.50 -3.815 -3.815 -3.815 -3.815 -3.813  8.91323 12.71983-10.95468
 3.64 1.00 -3.847 -3.847 -3.846 -3.845 -3.845  9.16376 13.21985-10.45445
 3.64 1.25 -3.831 -3.830 -3.830 -3.830 -3.829  9.28908 13.46984-10.20456
 3.64 1.50 -3.793 -3.793 -3.793 -3.792 -3.791  9.41447 13.71983 -9.95468
 3.64 1.75 -3.736 -3.736 -3.736 -3.734 -3.733  9.53999 13.96983 -9.70456
 3.64 2.00 -3.662 -3.661 -3.661 -3.660 -3.659  9.66568 14.21985 -9.45445
 3.64 2.25 -3.574 -3.574 -3.573 -3.573 -3.571  9.79164 14.46988 -9.20435
 3.64 2.50 -3.477 -3.477 -3.476 -3.475 -3.473  9.91792 14.71991 -8.95429
 3.64 2.75 -3.373 -3.372 -3.372 -3.371 -3.369 10.04457 14.96988 -8.70437
 3.64 3.00 -3.263 -3.262 -3.262 -3.261 -3.258 10.17173 15.21985 -8.45445
 3.64 3.20 -3.172 -3.171 -3.170 -3.169 -3.167 10.27404 15.41988 -8.25441
 3.64 3.40 -3.078 -3.077 -3.077 -3.076 -3.073 10.37694 15.61995 -8.05434
 3.64 3.60 -2.982 -2.982 -2.980 -2.979 -2.976 10.48047 15.82005 -7.85424
 3.64 3.80 -2.883 -2.883 -2.882 -2.879 -2.876 10.58487 16.02018 -7.65412
 3.64 4.00 -2.782 -2.782 -2.780 -2.778 -2.775 10.69020 16.22037 -7.45395
 3.64 4.20 -2.677 -2.677 -2.676 -2.674 -2.670 10.79676 16.42062 -7.25372
 3.64 4.40 -2.570 -2.569 -2.568 -2.566 -2.562 10.90478 16.62100 -7.05335
 3.64 4.60 -2.460 -2.459 -2.457 -2.455 -2.451 11.01438 16.82160 -6.85277
 3.64 4.80 -2.346 -2.345 -2.344 -2.342 -2.338 11.12604 17.02269 -6.65170
 3.64 5.00 -2.230 -2.230 -2.228 -2.226 -2.222 11.23980 17.22428 -6.45014
 3.64 5.20 -2.112 -2.112 -2.111 -2.108 -2.104 11.35609 17.42668 -6.24765
 3.64 5.40 -1.993 -1.993 -1.992 -1.990 -1.986 11.47513 17.63030 -6.04391
 3.64 5.60 -1.876 -1.876 -1.875 -1.873 -1.869 11.59714 17.83563 -5.83853
 3.64 5.80 -1.762 -1.761 -1.761 -1.759 -1.756 11.72242 18.04369 -5.63057
 3.64 6.00 -1.653 -1.653 -1.652 -1.650 -1.647 11.85083 18.25431 -5.42010
 3.64 6.25 -1.529 -1.528 -1.527 -1.525 -1.521 12.01696 18.52308 -5.15133
 3.64 6.50 -1.418 -1.418 -1.417 -1.415 -1.411 12.18583 18.79560 -4.87877
 3.64 6.75 -1.324 -1.323 -1.322 -1.320 -1.317 12.35711 19.07234 -4.60200
 3.64 7.00 -1.244 -1.243 -1.242 -1.240 -1.237 12.52840 19.34908 -4.32523
 3.64 7.25 -1.179 -1.178 -1.177 -1.175 -1.171 12.69518 19.62410 -4.05027
 3.64 7.50 -1.124 -1.123 -1.122 -1.119 -1.115 12.85806 19.89719 -3.77728
 3.64 7.75 -1.077 -1.077 -1.075 -1.072 -1.068 13.01546 20.16608 -3.50837
 3.64 8.00 -1.036 -1.036 -1.034 -1.031 -1.027 13.16791 20.43152 -3.24283
 3.66-2.00 -2.622 -2.622 -2.621 -2.620 -2.619  8.01828 10.19701-13.47730
 3.66-1.50 -2.844 -2.844 -2.843 -2.842 -2.841  8.26975 10.69819-12.97593
 3.66-1.00 -3.055 -3.054 -3.054 -3.053 -3.052  8.52048 11.19893-12.47534
 3.66-0.50 -3.248 -3.248 -3.247 -3.247 -3.246  8.77093 11.69932-11.97510
 3.66 0.00 -3.412 -3.412 -3.411 -3.411 -3.410  9.02119 12.19948-11.47470
 3.66 0.50 -3.524 -3.523 -3.523 -3.523 -3.521  9.27138 12.69967-10.97469
 3.66 1.00 -3.557 -3.557 -3.556 -3.555 -3.554  9.52179 13.19976-10.47457
 3.66 1.25 -3.539 -3.539 -3.538 -3.537 -3.536  9.64695 13.44980-10.22463
 3.66 1.50 -3.500 -3.499 -3.498 -3.498 -3.496  9.77210 13.69984 -9.97469
 3.66 1.75 -3.440 -3.439 -3.439 -3.438 -3.437  9.89745 13.94980 -9.72457
 3.66 2.00 -3.364 -3.364 -3.363 -3.363 -3.360 10.02284 14.19976 -9.47444
 3.66 2.25 -3.276 -3.276 -3.275 -3.273 -3.272 10.14824 14.44978 -9.22457
 3.66 2.50 -3.178 -3.178 -3.177 -3.176 -3.173 10.27370 14.69984 -8.97469
 3.66 2.75 -3.074 -3.073 -3.072 -3.071 -3.069 10.39938 14.94993 -8.72457
 3.66 3.00 -2.965 -2.964 -2.964 -2.961 -2.959 10.52530 15.20003 -8.47444
 3.66 3.20 -2.875 -2.874 -2.873 -2.871 -2.869 10.62626 15.39999 -8.27437
 3.66 3.40 -2.783 -2.782 -2.782 -2.779 -2.776 10.72746 15.59995 -8.07431
 3.66 3.60 -2.689 -2.688 -2.687 -2.685 -2.682 10.82893 15.79992 -7.87426
 3.66 3.80 -2.594 -2.593 -2.592 -2.589 -2.586 10.93077 15.99995 -7.67422
 3.66 4.00 -2.496 -2.496 -2.494 -2.492 -2.488 11.03302 16.20003 -7.47418
 3.66 4.20 -2.397 -2.396 -2.395 -2.393 -2.389 11.13579 16.40019 -7.27410
 3.66 4.40 -2.297 -2.296 -2.294 -2.291 -2.288 11.23920 16.60045 -7.07396
 3.66 4.60 -2.194 -2.193 -2.192 -2.189 -2.184 11.34334 16.80081 -6.87367
 3.66 4.80 -2.089 -2.088 -2.087 -2.083 -2.080 11.44844 17.00139 -6.67299
 3.66 5.00 -1.982 -1.981 -1.980 -1.977 -1.973 11.55449 17.20222 -6.47198
 3.66 5.20 -1.874 -1.873 -1.872 -1.869 -1.865 11.66166 17.40366 -6.27054
 3.66 5.40 -1.764 -1.764 -1.763 -1.760 -1.756 11.77009 17.60590 -6.06835
 3.66 5.60 -1.656 -1.655 -1.654 -1.651 -1.647 11.87981 17.80915 -5.86514
 3.66 5.80 -1.548 -1.547 -1.546 -1.544 -1.540 11.99114 18.01422 -5.66005
 3.66 6.00 -1.443 -1.442 -1.441 -1.439 -1.436 12.10415 18.22116 -5.45309
 3.66 6.25 -1.320 -1.320 -1.319 -1.317 -1.312 12.24825 18.48464 -5.18974
 3.66 6.50 -1.209 -1.208 -1.207 -1.205 -1.201 12.39585 18.75259 -4.92191
 3.66 6.75 -1.111 -1.110 -1.109 -1.107 -1.103 12.54845 19.02668 -4.64761
 3.66 7.00 -1.028 -1.027 -1.026 -1.023 -1.019 12.70372 19.30211 -4.37212
 3.66 7.25 -0.958 -0.957 -0.956 -0.953 -0.949 12.86163 19.57845 -4.09586
 3.66 7.50 -0.898 -0.898 -0.896 -0.894 -0.890 13.01953 19.85479 -3.81959
 3.66 7.75 -0.850 -0.849 -0.848 -0.845 -0.841 13.17375 20.12691 -3.54747
 3.66 8.00 -0.809 -0.809 -0.807 -0.804 -0.799 13.32552 20.39620 -3.27811
 3.68-2.00 -2.279 -2.279 -2.278 -2.277 -2.276  8.35603 10.17348-13.50100
 3.68-1.50 -2.509 -2.508 -2.508 -2.507 -2.506  8.60917 10.67614-12.99827
 3.68-1.00 -2.729 -2.728 -2.728 -2.727 -2.726  8.86088 11.17783-12.49648
 3.68-0.50 -2.933 -2.933 -2.932 -2.932 -2.930  9.11193 11.67870-11.99568
 3.68 0.00 -3.110 -3.109 -3.109 -3.108 -3.106  9.36248 12.17927-11.49512
 3.68 0.50 -3.233 -3.233 -3.232 -3.231 -3.229  9.61278 12.67952-10.99482
 3.68 1.00 -3.273 -3.273 -3.272 -3.270 -3.269  9.86308 13.17984-10.49458
 3.68 1.25 -3.256 -3.256 -3.255 -3.254 -3.252  9.98818 13.42982-10.24447
 3.68 1.50 -3.217 -3.216 -3.215 -3.214 -3.212 10.11328 13.67979 -9.99439
 3.68 1.75 -3.157 -3.156 -3.155 -3.154 -3.152 10.23843 13.92982 -9.74442
 3.68 2.00 -3.080 -3.079 -3.079 -3.078 -3.075 10.36361 14.17984 -9.49444
 3.68 2.25 -2.991 -2.991 -2.990 -2.989 -2.986 10.48881 14.42986 -9.24442
 3.68 2.50 -2.893 -2.893 -2.892 -2.890 -2.887 10.61405 14.67988 -8.99439
 3.68 2.75 -2.789 -2.789 -2.787 -2.786 -2.782 10.73939 14.92986 -8.74442
 3.68 3.00 -2.680 -2.680 -2.679 -2.676 -2.673 10.86481 15.17984 -8.49444
 3.68 3.20 -2.591 -2.590 -2.588 -2.586 -2.583 10.96519 15.37984 -8.29443
 3.68 3.40 -2.499 -2.499 -2.498 -2.495 -2.491 11.06567 15.57986 -8.09441
 3.68 3.60 -2.407 -2.406 -2.404 -2.401 -2.398 11.16631 15.77993 -7.89438
 3.68 3.80 -2.312 -2.311 -2.310 -2.307 -2.303 11.26720 15.98003 -7.69435
 3.68 4.00 -2.217 -2.216 -2.214 -2.211 -2.207 11.36829 16.18013 -7.49431
 3.68 4.20 -2.119 -2.118 -2.117 -2.114 -2.109 11.46954 16.38021 -7.29421
 3.68 4.40 -2.022 -2.021 -2.019 -2.016 -2.011 11.57105 16.58029 -7.09406
 3.68 4.60 -1.922 -1.921 -1.919 -1.916 -1.911 11.67287 16.78044 -6.89384
 3.68 4.80 -1.821 -1.820 -1.818 -1.816 -1.811 11.77512 16.98077 -6.69347
 3.68 5.00 -1.719 -1.718 -1.717 -1.713 -1.708 11.87778 17.18127 -6.49295
 3.68 5.20 -1.616 -1.615 -1.614 -1.611 -1.606 11.98098 17.38212 -6.29216
 3.68 5.40 -1.512 -1.511 -1.510 -1.507 -1.503 12.08468 17.58345 -6.09092
 3.68 5.60 -1.408 -1.408 -1.406 -1.404 -1.400 12.18888 17.78543 -5.88901
 3.68 5.80 -1.306 -1.305 -1.304 -1.301 -1.297 12.29358 17.98863 -5.68578
 3.68 6.00 -1.204 -1.204 -1.203 -1.201 -1.196 12.39881 18.19312 -5.48122
 3.68 6.25 -1.085 -1.085 -1.084 -1.082 -1.077 12.53104 18.45216 -5.22210
 3.68 6.50 -0.975 -0.975 -0.974 -0.971 -0.967 12.66427 18.71517 -4.95900
 3.68 6.75 -0.878 -0.877 -0.876 -0.874 -0.869 12.79865 18.98436 -4.68990
 3.68 7.00 -0.794 -0.794 -0.792 -0.790 -0.785 12.93465 19.25720 -4.41714
 3.68 7.25 -0.726 -0.725 -0.723 -0.721 -0.717 13.07360 19.53399 -4.14037
 3.68 7.50 -0.669 -0.668 -0.666 -0.664 -0.659 13.21431 19.81077 -3.86360
 3.68 7.75 -0.622 -0.621 -0.620 -0.617 -0.612 13.35629 20.08537 -3.58901
 3.68 8.00 -0.584 -0.583 -0.581 -0.578 -0.573 13.49969 20.35851 -3.31587
 3.70-2.00 -1.944 -1.944 -1.943 -1.942 -1.941  8.67532 10.14551-13.52886
 3.70-1.50 -2.178 -2.178 -2.177 -2.176 -2.174  8.93212 10.65167-13.02269
 3.70-1.00 -2.404 -2.404 -2.403 -2.402 -2.401  9.18583 11.15534-12.51913
 3.70-0.50 -2.618 -2.617 -2.617 -2.616 -2.614  9.43807 11.65725-12.01710
 3.70 0.00 -2.805 -2.805 -2.804 -2.803 -2.801  9.68931 12.15836-11.51599
 3.70 0.50 -2.941 -2.941 -2.941 -2.939 -2.937  9.94002 12.65906-11.01534
 3.70 1.00 -2.993 -2.992 -2.991 -2.989 -2.988 10.19061 13.15957-10.51499
 3.70 1.25 -2.980 -2.979 -2.978 -2.976 -2.975 10.31568 13.40960-10.26486
 3.70 1.50 -2.942 -2.942 -2.940 -2.939 -2.937 10.44075 13.65963-10.01475
 3.70 1.75 -2.883 -2.883 -2.882 -2.880 -2.878 10.56587 13.90975 -9.76465
 3.70 2.00 -2.808 -2.807 -2.806 -2.805 -2.802 10.69099 14.15987 -9.51456
 3.70 2.25 -2.719 -2.719 -2.718 -2.716 -2.713 10.81612 14.40980 -9.26457
 3.70 2.50 -2.622 -2.621 -2.620 -2.618 -2.614 10.94126 14.65973 -9.01457
 3.70 2.75 -2.518 -2.518 -2.516 -2.514 -2.510 11.06648 14.90980 -8.76450
 3.70 3.00 -2.410 -2.409 -2.407 -2.405 -2.401 11.19173 15.15987 -8.51442
 3.70 3.20 -2.320 -2.319 -2.318 -2.315 -2.311 11.29194 15.35985 -8.31445
 3.70 3.40 -2.229 -2.228 -2.227 -2.224 -2.219 11.39219 15.55983 -8.11447
 3.70 3.60 -2.137 -2.136 -2.134 -2.131 -2.126 11.49248 15.75982 -7.91448
 3.70 3.80 -2.043 -2.042 -2.041 -2.037 -2.032 11.59284 15.95983 -7.71446
 3.70 4.00 -1.949 -1.948 -1.945 -1.942 -1.937 11.69329 16.15987 -7.51442
 3.70 4.20 -1.852 -1.851 -1.849 -1.846 -1.841 11.79387 16.35993 -7.31437
 3.70 4.40 -1.755 -1.754 -1.753 -1.749 -1.744 11.89458 16.56004 -7.11427
 3.70 4.60 -1.657 -1.656 -1.655 -1.651 -1.646 11.99540 16.76019 -6.91414
 3.70 4.80 -1.558 -1.558 -1.556 -1.552 -1.547 12.09639 16.96043 -6.71390
 3.70 5.00 -1.459 -1.458 -1.456 -1.453 -1.448 12.19756 17.16077 -6.51357
 3.70 5.20 -1.358 -1.357 -1.355 -1.353 -1.347 12.29905 17.36126 -6.31308
 3.70 5.40 -1.257 -1.256 -1.254 -1.252 -1.247 12.40073 17.56200 -6.11232
 3.70 5.60 -1.155 -1.155 -1.154 -1.151 -1.146 12.50263 17.76313 -5.91118
 3.70 5.80 -1.055 -1.055 -1.053 -1.051 -1.046 12.60463 17.96509 -5.70922
 3.70 6.00 -0.955 -0.955 -0.954 -0.952 -0.947 12.70663 18.16791 -5.50640
 3.70 6.25 -0.837 -0.837 -0.836 -0.834 -0.829 12.83403 18.42383 -5.25046
 3.70 6.50 -0.727 -0.726 -0.725 -0.722 -0.718 12.96128 18.68287 -4.99140
 3.70 6.75 -0.626 -0.626 -0.625 -0.623 -0.618 13.08745 18.94718 -4.72720
 3.70 7.00 -0.541 -0.540 -0.539 -0.537 -0.532 13.21299 19.21590 -4.45855
 3.70 7.25 -0.472 -0.471 -0.470 -0.467 -0.462 13.33769 19.49060 -4.18360
 3.70 7.50 -0.418 -0.417 -0.416 -0.413 -0.408 13.46240 19.76619 -3.90798
 3.70 7.75 -0.376 -0.376 -0.374 -0.371 -0.366 13.58805 20.04209 -3.63215
 3.70 8.00 -0.344 -0.344 -0.342 -0.339 -0.333 13.71433 20.31848 -3.35596
 3.73-2.00 -1.461 -1.461 -1.460 -1.459 -1.458  9.10585 10.08672-13.58754
 3.73-1.50 -1.696 -1.695 -1.695 -1.693 -1.691  9.37694 10.60487-13.06941
 3.73-1.00 -1.925 -1.925 -1.924 -1.923 -1.921  9.63879 11.11561-12.55862
 3.73-0.50 -2.145 -2.144 -2.144 -2.143 -2.140  9.89542 11.62180-12.05252
 3.73 0.00 -2.343 -2.342 -2.342 -2.340 -2.338 10.14922 12.12548-11.54898
 3.73 0.50 -2.496 -2.496 -2.495 -2.493 -2.491 10.40140 12.62726-11.04701
 3.73 1.00 -2.568 -2.568 -2.566 -2.565 -2.562 10.65254 13.12840-10.54592
 3.73 1.25 -2.565 -2.564 -2.563 -2.561 -2.558 10.77792 13.37881-10.29556
 3.73 1.50 -2.535 -2.534 -2.533 -2.532 -2.528 10.90325 13.62910-10.04527
 3.73 1.75 -2.482 -2.481 -2.480 -2.479 -2.475 11.02856 13.87924 -9.79503
 3.73 2.00 -2.411 -2.410 -2.409 -2.407 -2.404 11.15382 14.12937 -9.54485
 3.73 2.25 -2.326 -2.325 -2.324 -2.322 -2.318 11.27890 14.37950 -9.29477
 3.73 2.50 -2.231 -2.230 -2.229 -2.226 -2.222 11.40398 14.62961 -9.04470
 3.73 2.75 -2.129 -2.128 -2.127 -2.124 -2.119 11.52913 14.87965 -8.79462
 3.73 3.00 -2.022 -2.021 -2.020 -2.017 -2.012 11.65427 15.12969 -8.54455
 3.73 3.20 -1.934 -1.933 -1.931 -1.928 -1.924 11.75438 15.32973 -8.34453
 3.73 3.40 -1.845 -1.843 -1.841 -1.838 -1.833 11.85450 15.52979 -8.14451
 3.73 3.60 -1.753 -1.752 -1.750 -1.747 -1.741 11.95463 15.72986 -7.94448
 3.73 3.80 -1.661 -1.660 -1.658 -1.654 -1.649 12.05482 15.92993 -7.74444
 3.73 4.00 -1.568 -1.567 -1.564 -1.561 -1.555 12.15503 16.13001 -7.54439
 3.73 4.20 -1.473 -1.472 -1.470 -1.466 -1.460 12.25527 16.33002 -7.34438
 3.73 4.40 -1.378 -1.377 -1.375 -1.371 -1.365 12.35554 16.53002 -7.14437
 3.73 4.60 -1.282 -1.281 -1.279 -1.275 -1.269 12.45584 16.73005 -6.94433
 3.73 4.80 -1.184 -1.184 -1.182 -1.178 -1.172 12.55619 16.93016 -6.74424
 3.73 5.00 -1.087 -1.086 -1.084 -1.081 -1.074 12.65658 17.13033 -6.54409
 3.73 5.20 -0.988 -0.987 -0.985 -0.982 -0.977 12.75709 17.33056 -6.34385
 3.73 5.40 -0.889 -0.888 -0.886 -0.884 -0.878 12.85762 17.53092 -6.14346
 3.73 5.60 -0.790 -0.789 -0.787 -0.784 -0.779 12.95817 17.73146 -5.94288
 3.73 5.80 -0.689 -0.689 -0.688 -0.686 -0.681 13.05872 17.93244 -5.74189
 3.73 6.00 -0.591 -0.591 -0.590 -0.587 -0.583 13.15927 18.13386 -5.54046
 3.73 6.25 -0.472 -0.471 -0.470 -0.468 -0.464 13.28465 18.38690 -5.28743
 3.73 6.50 -0.357 -0.356 -0.355 -0.353 -0.349 13.40960 18.64177 -5.03259
 3.73 6.75 -0.250 -0.249 -0.248 -0.246 -0.241 13.53318 18.90010 -4.77430
 3.73 7.00 -0.154 -0.153 -0.152 -0.150 -0.146 13.65514 19.16227 -4.51216
 3.73 7.25 -0.074 -0.073 -0.072 -0.070 -0.066 13.77420 19.43032 -4.24394
 3.73 7.50 -0.012 -0.012 -0.011 -0.009 -0.004 13.89048 19.70234 -3.97184
 3.73 7.75  0.030  0.030  0.032  0.034  0.038 14.00357 19.97738 -3.69688
 3.73 8.00  0.056  0.057  0.059  0.062  0.067 14.11361 20.25575 -3.41873
 3.76-2.00 -1.022 -1.022 -1.021 -1.020 -1.018  9.44963  9.98994-13.68445
 3.76-1.50 -1.240 -1.240 -1.239 -1.238 -1.236  9.75899 10.53224-13.14207
 3.76-1.00 -1.463 -1.462 -1.461 -1.460 -1.458 10.04297 11.05994-12.61422
 3.76-0.50 -1.678 -1.678 -1.677 -1.676 -1.673 10.31239 11.57692-12.09745
 3.76 0.00 -1.877 -1.876 -1.876 -1.874 -1.872 10.57334 12.08672-11.58754
 3.76 0.50 -2.038 -2.037 -2.037 -2.035 -2.032 10.82943 12.59251-11.08187
 3.76 1.00 -2.127 -2.127 -2.126 -2.124 -2.122 11.08279 13.09587-10.57856
 3.76 1.25 -2.135 -2.135 -2.133 -2.132 -2.129 11.20895 13.34676-10.32756
 3.76 1.50 -2.117 -2.116 -2.115 -2.114 -2.110 11.33486 13.59748-10.07681
 3.76 1.75 -2.074 -2.074 -2.073 -2.071 -2.068 11.46052 13.84813 -9.82622
 3.76 2.00 -2.012 -2.011 -2.010 -2.008 -2.005 11.58603 14.09864 -9.57577
 3.76 2.25 -1.934 -1.933 -1.932 -1.930 -1.926 11.71141 14.34893 -9.32546
 3.76 2.50 -1.845 -1.844 -1.843 -1.841 -1.836 11.83670 14.59912 -9.07520
 3.76 2.75 -1.748 -1.747 -1.746 -1.743 -1.739 11.96189 14.84923 -8.82497
 3.76 3.00 -1.646 -1.645 -1.644 -1.641 -1.636 12.08707 15.09934 -8.57479
 3.76 3.20 -1.561 -1.561 -1.559 -1.556 -1.551 12.18723 15.29947 -8.37475
 3.76 3.40 -1.475 -1.474 -1.472 -1.469 -1.464 12.28738 15.49960 -8.17471
 3.76 3.60 -1.387 -1.386 -1.384 -1.381 -1.376 12.38753 15.69967 -7.97464
 3.76 3.80 -1.298 -1.297 -1.295 -1.291 -1.286 12.48768 15.89968 -7.77455
 3.76 4.00 -1.208 -1.206 -1.205 -1.201 -1.195 12.58782 16.09968 -7.57447
 3.76 4.20 -1.116 -1.115 -1.113 -1.109 -1.104 12.68796 16.29976 -7.37447
 3.76 4.40 -1.023 -1.023 -1.020 -1.017 -1.011 12.78809 16.49984 -7.17448
 3.76 4.60 -0.930 -0.929 -0.927 -0.923 -0.917 12.88829 16.69991 -6.97446
 3.76 4.80 -0.835 -0.834 -0.832 -0.828 -0.823 12.98857 16.89997 -6.77440
 3.76 5.00 -0.739 -0.739 -0.737 -0.733 -0.728 13.08884 17.10003 -6.57430
 3.76 5.20 -0.643 -0.642 -0.640 -0.636 -0.631 13.18901 17.30017 -6.37418
 3.76 5.40 -0.545 -0.545 -0.543 -0.540 -0.534 13.28917 17.50040 -6.17399
 3.76 5.60 -0.447 -0.446 -0.445 -0.442 -0.437 13.38939 17.70069 -5.97370
 3.76 5.80 -0.349 -0.349 -0.347 -0.344 -0.340 13.48967 17.90113 -5.77322
 3.76 6.00 -0.250 -0.250 -0.249 -0.246 -0.242 13.58995 18.10175 -5.57252
 3.76 6.25 -0.130 -0.129 -0.129 -0.127 -0.122 13.71499 18.35332 -5.32094
 3.76 6.50 -0.012 -0.012 -0.011 -0.009 -0.004 13.83967 18.60595 -5.06834
 3.76 6.75  0.101  0.101  0.102  0.104  0.108 13.96358 18.86051 -4.81374
 3.76 7.00  0.207  0.207  0.208  0.210  0.214 14.08636 19.11760 -4.55658
 3.76 7.25  0.301  0.302  0.303  0.305  0.309 14.20674 19.37928 -4.29500
 3.76 7.50  0.380  0.381  0.382  0.384  0.388 14.32428 19.64532 -4.02905
 3.76 7.75  0.440  0.440  0.441  0.443  0.447 14.43728 19.91640 -3.75792
 3.76 8.00  0.478  0.478  0.480  0.482  0.486 14.54630 20.19229 -3.48188
 3.79-2.00 -0.698 -0.697 -0.696 -0.695 -0.693  9.64856  9.86303-13.81135
 3.79-1.50 -0.848 -0.848 -0.847 -0.846 -0.843 10.03623 10.41963-13.25477
 3.79-1.00 -1.035 -1.034 -1.033 -1.032 -1.029 10.37346 10.97234-12.70202
 3.79-0.50 -1.230 -1.230 -1.229 -1.228 -1.225 10.67505 11.51068-12.16368
 3.79 0.00 -1.416 -1.416 -1.415 -1.414 -1.411 10.95453 12.03543-11.63903
 3.79 0.50 -1.571 -1.571 -1.570 -1.568 -1.566 11.22115 12.54998-11.12436
 3.79 1.00 -1.667 -1.667 -1.666 -1.664 -1.663 11.48058 13.05843-10.61583
 3.79 1.25 -1.685 -1.684 -1.683 -1.682 -1.680 11.60862 13.31129-10.36305
 3.79 1.50 -1.678 -1.678 -1.677 -1.675 -1.673 11.73592 13.56348-10.11092
 3.79 1.75 -1.649 -1.648 -1.647 -1.646 -1.643 11.86264 13.81511 -9.85926
 3.79 2.00 -1.599 -1.599 -1.597 -1.596 -1.593 11.98896 14.06633 -9.60801
 3.79 2.25 -1.533 -1.532 -1.531 -1.530 -1.526 12.11500 14.31717 -9.35717
 3.79 2.50 -1.454 -1.453 -1.452 -1.451 -1.447 12.24080 14.56785 -9.10651
 3.79 2.75 -1.366 -1.365 -1.364 -1.362 -1.358 12.36635 14.81846 -8.85596
 3.79 3.00 -1.271 -1.271 -1.270 -1.267 -1.263 12.49178 15.06893 -8.60555
 3.79 3.20 -1.193 -1.192 -1.191 -1.188 -1.184 12.59205 15.26906 -8.40536
 3.79 3.40 -1.112 -1.111 -1.110 -1.107 -1.102 12.69230 15.46919 -8.20520
 3.79 3.60 -1.029 -1.029 -1.027 -1.024 -1.019 12.79253 15.66934 -8.00507
 3.79 3.80 -0.945 -0.944 -0.942 -0.939 -0.935 12.89275 15.86950 -7.80495
 3.79 4.00 -0.860 -0.859 -0.857 -0.853 -0.849 12.99295 16.06967 -7.60485
 3.79 4.20 -0.773 -0.772 -0.770 -0.766 -0.761 13.09309 16.26969 -7.40475
 3.79 4.40 -0.684 -0.683 -0.682 -0.678 -0.673 13.19322 16.46971 -7.20467
 3.79 4.60 -0.595 -0.594 -0.592 -0.589 -0.583 13.29340 16.66979 -7.00461
 3.79 4.80 -0.504 -0.503 -0.501 -0.498 -0.492 13.39364 16.86991 -6.80455
 3.79 5.00 -0.412 -0.411 -0.409 -0.406 -0.400 13.49388 17.07004 -6.60450
 3.79 5.20 -0.318 -0.317 -0.316 -0.312 -0.307 13.59407 17.27005 -6.40442
 3.79 5.40 -0.223 -0.223 -0.222 -0.218 -0.213 13.69427 17.47007 -6.20431
 3.79 5.60 -0.128 -0.128 -0.126 -0.123 -0.119 13.79448 17.67014 -6.00415
 3.79 5.80 -0.031 -0.031 -0.030 -0.027 -0.023 13.89471 17.87039 -5.80386
 3.79 6.00  0.064  0.065  0.066  0.068  0.073 13.99493 18.07078 -5.60345
 3.79 6.25  0.185  0.185  0.186  0.188  0.192 14.12007 18.32161 -5.35266
 3.79 6.50  0.304  0.305  0.305  0.307  0.311 14.24502 18.57299 -5.10139
 3.79 6.75  0.421  0.421  0.422  0.424  0.428 14.36956 18.82536 -4.84896
 3.79 7.00  0.534  0.534  0.536  0.537  0.541 14.49346 19.07918 -4.59500
 3.79 7.25  0.640  0.641  0.641  0.644  0.646 14.61587 19.33600 -4.33822
 3.79 7.50  0.736  0.736  0.737  0.739  0.742 14.73632 19.59627 -4.07805
 3.79 7.75  0.815  0.816  0.816  0.818  0.821 14.85284 19.86190 -3.81246
 3.79 8.00  0.875  0.875  0.876  0.878  0.882 14.96610 20.13226 -3.54212
 3.82-2.00 -0.564 -0.564 -0.563 -0.562 -0.559  9.69810  9.77612-13.89825
 3.82-1.50 -0.609 -0.608 -0.608 -0.606 -0.603 10.16227 10.30406-13.37039
 3.82-1.00 -0.700 -0.699 -0.698 -0.697 -0.694 10.58365 10.85297-12.82131
 3.82-0.50 -0.832 -0.832 -0.831 -0.830 -0.827 10.95168 11.41027-12.26416
 3.82 0.00 -0.979 -0.979 -0.978 -0.977 -0.975 11.27416 11.95818-11.71625
 3.82 0.50 -1.110 -1.110 -1.109 -1.108 -1.106 11.56620 12.49108-11.18330
 3.82 1.00 -1.198 -1.198 -1.197 -1.196 -1.194 11.84023 13.01157-10.66274
 3.82 1.25 -1.218 -1.218 -1.217 -1.216 -1.214 11.97297 13.26838-10.40594
 3.82 1.50 -1.220 -1.219 -1.219 -1.217 -1.215 12.10380 13.52362-10.15070
 3.82 1.75 -1.202 -1.202 -1.201 -1.199 -1.197 12.23308 13.77757 -9.89666
 3.82 2.00 -1.166 -1.166 -1.165 -1.163 -1.161 12.36135 14.03060 -9.64359
 3.82 2.25 -1.114 -1.114 -1.112 -1.111 -1.109 12.48890 14.28290 -9.39136
 3.82 2.50 -1.049 -1.049 -1.047 -1.046 -1.043 12.61585 14.53466 -9.13966
 3.82 2.75 -0.974 -0.973 -0.972 -0.971 -0.967 12.74226 14.78602 -8.88833
 3.82 3.00 -0.891 -0.890 -0.889 -0.888 -0.884 12.86835 15.03703 -8.63733
 3.82 3.20 -0.820 -0.820 -0.819 -0.817 -0.813 12.96906 15.23756 -8.43677
 3.82 3.40 -0.747 -0.746 -0.746 -0.744 -0.740 13.06966 15.43801 -8.23633
 3.82 3.60 -0.671 -0.671 -0.670 -0.667 -0.663 13.17014 15.63839 -8.03598
 3.82 3.80 -0.594 -0.594 -0.593 -0.590 -0.585 13.27054 15.83874 -7.83569
 3.82 4.00 -0.515 -0.515 -0.514 -0.510 -0.506 13.37088 16.03902 -7.63545
 3.82 4.20 -0.435 -0.434 -0.433 -0.430 -0.425 13.47117 16.23914 -7.43526
 3.82 4.40 -0.353 -0.352 -0.350 -0.347 -0.343 13.57145 16.43927 -7.23509
 3.82 4.60 -0.269 -0.268 -0.266 -0.263 -0.259 13.67174 16.63943 -7.03494
 3.82 4.80 -0.183 -0.182 -0.181 -0.178 -0.173 13.77204 16.83962 -6.83481
 3.82 5.00 -0.096 -0.096 -0.094 -0.091 -0.087 13.87233 17.03981 -6.63470
 3.82 5.20 -0.008 -0.007 -0.005 -0.003  0.002 13.97255 17.23982 -6.43461
 3.82 5.40  0.081  0.082  0.084  0.086  0.091 14.07276 17.43983 -6.23453
 3.82 5.60  0.174  0.174  0.175  0.177  0.182 14.17306 17.63987 -6.03441
 3.82 5.80  0.266  0.267  0.268  0.270  0.275 14.27345 17.84000 -5.83421
 3.82 6.00  0.360  0.361  0.362  0.364  0.368 14.37383 18.04021 -5.63395
 3.82 6.25  0.478  0.478  0.480  0.482  0.485 14.49918 18.29063 -5.38355
 3.82 6.50  0.597  0.597  0.598  0.600  0.603 14.62439 18.54133 -5.13295
 3.82 6.75  0.715  0.715  0.716  0.718  0.721 14.74944 18.79254 -4.88172
 3.82 7.00  0.831  0.832  0.833  0.834  0.837 14.87419 19.04454 -4.62967
 3.82 7.25  0.944  0.945  0.946  0.947  0.950 14.99812 19.29824 -4.37602
 3.82 7.50  1.052  1.052  1.053  1.054  1.057 15.12090 19.55413 -4.12022
 3.82 7.75  1.147  1.148  1.149  1.150  1.152 15.24091 19.81418 -3.86015
 3.82 8.00  1.230  1.230  1.230  1.232  1.235 15.35870 20.07773 -3.59654
 3.85-2.00 -0.537 -0.537 -0.536 -0.534 -0.531  9.68458  9.73199-13.94233
 3.85-1.50 -0.536 -0.535 -0.535 -0.532 -0.529 10.17696 10.23855-13.43569
 3.85-1.00 -0.539 -0.539 -0.538 -0.536 -0.533 10.65533 10.75656-12.91757
 3.85-0.50 -0.562 -0.562 -0.561 -0.560 -0.556 11.10209 11.29469-12.37976
 3.85 0.00 -0.617 -0.617 -0.616 -0.615 -0.613 11.49859 11.85003-11.82420
 3.85 0.50 -0.688 -0.687 -0.687 -0.686 -0.684 11.84354 12.40449-11.26986
 3.85 1.00 -0.741 -0.741 -0.740 -0.739 -0.737 12.15014 12.94542-10.72886
 3.85 1.25 -0.754 -0.753 -0.753 -0.752 -0.750 12.29353 13.21015-10.46410
 3.85 1.50 -0.754 -0.753 -0.753 -0.752 -0.750 12.43249 13.47188-10.20239
 3.85 1.75 -0.741 -0.741 -0.740 -0.739 -0.737 12.56795 13.73099 -9.94335
 3.85 2.00 -0.714 -0.714 -0.714 -0.712 -0.710 12.70088 13.98807 -9.68634
 3.85 2.25 -0.675 -0.675 -0.675 -0.673 -0.671 12.83180 14.24339 -9.43102
 3.85 2.50 -0.625 -0.625 -0.624 -0.622 -0.621 12.96133 14.49748 -9.17692
 3.85 2.75 -0.565 -0.565 -0.564 -0.562 -0.560 13.08983 14.75065 -8.92378
 3.85 3.00 -0.497 -0.496 -0.495 -0.494 -0.492 13.21748 15.00303 -8.67142
 3.85 3.20 -0.437 -0.436 -0.435 -0.434 -0.432 13.31903 15.20440 -8.47003
 3.85 3.40 -0.374 -0.373 -0.372 -0.371 -0.368 13.42031 15.40550 -8.26891
 3.85 3.60 -0.307 -0.307 -0.306 -0.304 -0.301 13.52137 15.60640 -8.06804
 3.85 3.80 -0.239 -0.238 -0.237 -0.236 -0.232 13.62228 15.80715 -7.86733
 3.85 4.00 -0.168 -0.167 -0.166 -0.165 -0.161 13.72305 16.00775 -7.66675
 3.85 4.20 -0.095 -0.095 -0.094 -0.091 -0.088 13.82364 16.20819 -7.46627
 3.85 4.40 -0.021 -0.020 -0.019 -0.016 -0.013 13.92417 16.40854 -7.26587
 3.85 4.60  0.055  0.055  0.056  0.059  0.063 14.02465 16.60874 -7.06557
 3.85 4.80  0.133  0.133  0.134  0.137  0.141 14.12512 16.80888 -6.86534
 3.85 5.00  0.213  0.213  0.215  0.217  0.221 14.22557 17.00903 -6.66514
 3.85 5.20  0.295  0.296  0.297  0.299  0.303 14.32602 17.20926 -6.46499
 3.85 5.40  0.379  0.380  0.381  0.383  0.387 14.42647 17.40949 -6.26483
 3.85 5.60  0.465  0.466  0.467  0.469  0.472 14.52691 17.60966 -6.06467
 3.85 5.80  0.553  0.554  0.555  0.557  0.560 14.62735 17.80977 -5.86451
 3.85 6.00  0.643  0.644  0.644  0.646  0.649 14.72779 18.00988 -5.66434
 3.85 6.25  0.757  0.757  0.758  0.759  0.762 14.85335 18.26015 -5.41412
 3.85 6.50  0.872  0.872  0.873  0.874  0.877 14.97891 18.51055 -5.16387
 3.85 6.75  0.988  0.989  0.989  0.990  0.993 15.10445 18.76111 -4.91322
 3.85 7.00  1.105  1.105  1.106  1.107  1.110 15.22994 19.01199 -4.66214
 3.85 7.25  1.221  1.221  1.222  1.223  1.225 15.35488 19.26385 -4.41035
 3.85 7.50  1.335  1.335  1.336  1.337  1.339 15.47914 19.51693 -4.15745
 3.85 7.75  1.442  1.442  1.443  1.444  1.446 15.60182 19.77252 -3.90188
 3.85 8.00  1.541  1.542  1.542  1.543  1.545 15.72321 20.03020 -3.64417
 3.88-2.00 -0.535 -0.535 -0.534 -0.533 -0.530  9.65744  9.69932-13.97511
 3.88-1.50 -0.526 -0.525 -0.525 -0.523 -0.520 10.15594 10.20058-13.47379
 3.88-1.00 -0.506 -0.505 -0.504 -0.501 -0.498 10.65138 10.70475-12.96940
 3.88-0.50 -0.467 -0.466 -0.465 -0.463 -0.460 11.13767 11.21643-12.45780
 3.88 0.00 -0.416 -0.415 -0.415 -0.413 -0.410 11.60097 11.74492-11.92922
 3.88 0.50 -0.373 -0.373 -0.372 -0.371 -0.368 12.02119 12.29425-11.38007
 3.88 1.00 -0.344 -0.344 -0.343 -0.343 -0.341 12.38810 12.85150-10.82275
 3.88 1.25 -0.330 -0.330 -0.330 -0.329 -0.327 12.55346 13.12671-10.54756
 3.88 1.50 -0.313 -0.313 -0.312 -0.311 -0.310 12.70978 13.39898-10.27532
 3.88 1.75 -0.291 -0.291 -0.291 -0.290 -0.288 12.85831 13.66702-10.00724
 3.88 2.00 -0.264 -0.263 -0.263 -0.262 -0.260 13.00130 13.93166 -9.74256
 3.88 2.25 -0.229 -0.229 -0.229 -0.228 -0.226 13.13995 14.19295 -9.48131
 3.88 2.50 -0.188 -0.188 -0.188 -0.187 -0.185 13.27531 14.45179 -9.22250
 3.88 2.75 -0.141 -0.140 -0.140 -0.139 -0.137 13.40800 14.70863 -8.96567
 3.88 3.00 -0.086 -0.086 -0.086 -0.084 -0.082 13.53883 14.96388 -8.71041
 3.88 3.20 -0.038 -0.038 -0.037 -0.036 -0.034 13.64242 15.16705 -8.50722
 3.88 3.40  0.012  0.013  0.013  0.015  0.017 13.74535 15.36963 -8.30464
 3.88 3.60  0.067  0.068  0.069  0.070  0.072 13.84766 15.57169 -8.10261
 3.88 3.80  0.125  0.126  0.127  0.129  0.131 13.94958 15.77339 -7.90094
 3.88 4.00  0.186  0.187  0.188  0.189  0.192 14.05115 15.97474 -7.69962
 3.88 4.20  0.250  0.250  0.251  0.253  0.256 14.15244 16.17579 -7.49856
 3.88 4.40  0.315  0.316  0.317  0.318  0.321 14.25356 16.37663 -7.29771
 3.88 4.60  0.383  0.383  0.384  0.386  0.389 14.35452 16.57729 -7.09707
 3.88 4.80  0.453  0.453  0.454  0.456  0.459 14.45539 16.77784 -6.89657
 3.88 5.00  0.524  0.525  0.525  0.528  0.531 14.55618 16.97827 -6.69616
 3.88 5.20  0.598  0.599  0.599  0.602  0.605 14.65691 17.17861 -6.49581
 3.88 5.40  0.674  0.675  0.676  0.678  0.681 14.75760 17.37888 -6.29551
 3.88 5.60  0.753  0.754  0.755  0.756  0.760 14.85826 17.57910 -6.09526
 3.88 5.80  0.835  0.835  0.836  0.837  0.840 14.95891 17.77929 -5.89505
 3.88 6.00  0.918  0.918  0.919  0.921  0.923 15.05956 17.97946 -5.69486
 3.88 6.25  1.025  1.025  1.026  1.027  1.030 15.18543 18.22966 -5.44468
 3.88 6.50  1.135  1.135  1.136  1.137  1.139 15.31133 18.47986 -5.19450
 3.88 6.75  1.247  1.247  1.248  1.249  1.251 15.43729 18.73020 -4.94413
 3.88 7.00  1.361  1.362  1.362  1.363  1.365 15.56324 18.98069 -4.69358
 3.88 7.25  1.477  1.477  1.477  1.478  1.480 15.68901 19.23147 -4.44279
 3.88 7.50  1.592  1.592  1.593  1.594  1.596 15.81451 19.48273 -4.19159
 3.88 7.75  1.706  1.706  1.706  1.707  1.709 15.93895 19.73532 -3.93898
 3.88 8.00  1.816  1.816  1.816  1.817  1.819 16.06258 19.98896 -3.68529
 3.91-2.00 -0.537 -0.537 -0.536 -0.535 -0.534  9.62808  9.66876-14.00555
 3.91-1.50 -0.529 -0.528 -0.528 -0.527 -0.524 10.12775 10.16909-13.50529
 3.91-1.00 -0.509 -0.509 -0.508 -0.505 -0.502 10.62675 10.66997-13.00432
 3.91-0.50 -0.462 -0.462 -0.460 -0.458 -0.454 11.12353 11.17290-12.50155
 3.91 0.00 -0.372 -0.372 -0.370 -0.368 -0.364 11.61426 11.68106-11.99311
 3.91 0.50 -0.238 -0.238 -0.237 -0.235 -0.232 12.08778 12.20249-11.47198
 3.91 1.00 -0.088 -0.087 -0.087 -0.086 -0.083 12.52556 12.74484-10.92959
 3.91 1.25 -0.019 -0.018 -0.018 -0.017 -0.015 12.72476 13.02315-10.65117
 3.91 1.50  0.042  0.043  0.043  0.044  0.046 12.91126 13.30146-10.37274
 3.91 1.75  0.096  0.097  0.097  0.098  0.100 13.08455 13.57849-10.09572
 3.91 2.00  0.146  0.146  0.147  0.147  0.149 13.24748 13.85388 -9.82045
 3.91 2.25  0.191  0.191  0.192  0.192  0.194 13.40115 14.12452 -9.54980
 3.91 2.50  0.235  0.236  0.236  0.237  0.239 13.54814 14.39164 -9.28266
 3.91 2.75  0.280  0.280  0.281  0.281  0.283 13.68977 14.65518 -9.01914
 3.91 3.00  0.327  0.327  0.328  0.329  0.331 13.82743 14.91587 -8.75845
 3.91 3.20  0.367  0.367  0.367  0.368  0.370 13.93518 15.12250 -8.55180
 3.91 3.40  0.409  0.409  0.409  0.411  0.413 14.04150 15.32795 -8.34633
 3.91 3.60  0.454  0.454  0.454  0.456  0.458 14.14649 15.53231 -8.14202
 3.91 3.80  0.501  0.501  0.502  0.504  0.505 14.25061 15.73590 -7.93848
 3.91 4.00  0.551  0.552  0.552  0.554  0.556 14.35392 15.93877 -7.73565
 3.91 4.20  0.604  0.604  0.605  0.607  0.609 14.45654 16.14101 -7.53339
 3.91 4.40  0.659  0.660  0.661  0.662  0.664 14.55875 16.34282 -7.33154
 3.91 4.60  0.717  0.718  0.719  0.720  0.722 14.66058 16.54425 -7.13007
 3.91 4.80  0.778  0.778  0.779  0.780  0.783 14.76220 16.74543 -6.92886
 3.91 5.00  0.840  0.841  0.841  0.843  0.846 14.86362 16.94636 -6.72793
 3.91 5.20  0.905  0.906  0.906  0.907  0.910 14.96490 17.14709 -6.52727
 3.91 5.40  0.973  0.973  0.974  0.975  0.978 15.06607 17.34769 -6.32673
 3.91 5.60  1.043  1.043  1.044  1.045  1.048 15.16709 17.54815 -6.12630
 3.91 5.80  1.116  1.116  1.116  1.118  1.120 15.26806 17.74851 -5.92593
 3.91 6.00  1.191  1.191  1.192  1.193  1.195 15.36903 17.94880 -5.72561
 3.91 6.25  1.289  1.289  1.290  1.291  1.293 15.49529 18.19907 -5.47527
 3.91 6.50  1.391  1.391  1.392  1.393  1.395 15.62159 18.44933 -5.22497
 3.91 6.75  1.497  1.497  1.497  1.499  1.500 15.74804 18.69959 -4.97472
 3.91 7.00  1.606  1.606  1.606  1.607  1.609 15.87448 18.94988 -4.72446
 3.91 7.25  1.718  1.718  1.718  1.719  1.721 16.00085 19.20024 -4.47412
 3.91 7.50  1.832  1.832  1.832  1.833  1.835 16.12710 19.45071 -4.22366
 3.91 7.75  1.947  1.947  1.947  1.948  1.949 16.25292 19.70167 -3.97266
 3.91 8.00  2.062  2.062  2.062  2.062  2.064 16.37840 19.95299 -3.72125
 3.94-2.00 -0.538 -0.538 -0.538 -0.537 -0.536  9.59835  9.63839-14.03588
 3.94-1.50 -0.533 -0.533 -0.532 -0.531 -0.530 10.09795 10.13862-13.53566
 3.94-1.00 -0.518 -0.518 -0.517 -0.516 -0.513 10.59781 10.63889-13.03541
 3.94-0.50 -0.480 -0.480 -0.478 -0.476 -0.473 11.09691 11.13956-12.53477
 3.94 0.00 -0.394 -0.394 -0.392 -0.390 -0.386 11.59484 11.64167-12.03269
 3.94 0.50 -0.239 -0.239 -0.237 -0.235 -0.231 12.08778 12.14768-11.52651
 3.94 1.00 -0.015 -0.014 -0.014 -0.011 -0.009 12.56785 12.66455-11.00975
 3.94 1.25  0.111  0.111  0.112  0.114  0.116 12.79733 12.93034-10.74392
 3.94 1.50  0.237  0.237  0.238  0.239  0.242 13.01745 13.20085-10.47340
 3.94 1.75  0.351  0.352  0.352  0.353  0.356 13.22426 13.47809-10.19640
 3.94 2.00  0.451  0.452  0.452  0.453  0.455 13.41847 13.75549 -9.91901
 3.94 2.25  0.534  0.534  0.535  0.535  0.538 13.59844 14.03299 -9.64141
 3.94 2.50  0.604  0.604  0.605  0.606  0.608 13.76716 14.31048 -9.36381
 3.94 2.75  0.663  0.663  0.664  0.665  0.667 13.92551 14.58328 -9.09098
 3.94 3.00  0.717  0.717  0.717  0.718  0.720 14.07628 14.85266 -8.82160
 3.94 3.20  0.757  0.757  0.757  0.758  0.760 14.19228 15.06517 -8.60913
 3.94 3.40  0.796  0.796  0.797  0.797  0.800 14.30535 15.27570 -8.39864
 3.94 3.60  0.836  0.836  0.836  0.837  0.839 14.41560 15.48424 -8.19008
 3.94 3.80  0.876  0.876  0.877  0.878  0.880 14.52396 15.69129 -7.98300
 3.94 4.00  0.918  0.918  0.919  0.920  0.922 14.63063 15.89697 -7.77728
 3.94 4.20  0.962  0.962  0.963  0.964  0.966 14.73597 16.10148 -7.57279
 3.94 4.40  1.008  1.008  1.009  1.010  1.012 14.84039 16.30517 -7.36913
 3.94 4.60  1.056  1.057  1.057  1.059  1.061 14.94396 16.50810 -7.16624
 3.94 4.80  1.107  1.107  1.108  1.110  1.111 15.04698 16.71052 -6.96385
 3.94 5.00  1.160  1.160  1.161  1.163  1.164 15.14953 16.91243 -6.76196
 3.94 5.20  1.216  1.216  1.217  1.218  1.220 15.25168 17.11393 -6.56045
 3.94 5.40  1.274  1.274  1.275  1.276  1.278 15.35361 17.31514 -6.35921
 3.94 5.60  1.335  1.336  1.336  1.337  1.339 15.45532 17.51610 -6.15820
 3.94 5.80  1.399  1.399  1.400  1.400  1.402 15.55693 17.71689 -5.95736
 3.94 6.00  1.466  1.466  1.466  1.467  1.469 15.65849 17.91751 -5.75671
 3.94 6.25  1.553  1.554  1.554  1.554  1.556 15.78538 18.16804 -5.50624
 3.94 6.50  1.646  1.646  1.646  1.647  1.649 15.91228 18.41847 -5.25586
 3.94 6.75  1.743  1.743  1.743  1.744  1.745 16.03935 18.66886 -5.00553
 3.94 7.00  1.845  1.845  1.845  1.845  1.846 16.16643 18.91918 -4.75523
 3.94 7.25  1.950  1.951  1.951  1.951  1.952 16.29352 19.16940 -4.50496
 3.94 7.50  2.060  2.060  2.060  2.061  2.061 16.42062 19.41963 -4.25469
 3.94 7.75  2.172  2.172  2.173  2.173  2.173 16.54749 19.66997 -4.00436
 3.94 8.00  2.286  2.287  2.287  2.287  2.288 16.67422 19.92039 -3.75399
 3.97-2.00 -0.534 -0.534 -0.534 -0.534 -0.533  9.57019  9.60681-14.06753
 3.97-1.50 -0.535 -0.534 -0.534 -0.533 -0.532 10.06893 10.10789-13.56639
 3.97-1.00 -0.525 -0.525 -0.525 -0.524 -0.522 10.56820 10.60863-13.06575
 3.97-0.50 -0.498 -0.498 -0.497 -0.495 -0.493 11.06781 11.10890-12.56543
 3.97 0.00 -0.430 -0.429 -0.428 -0.426 -0.422 11.56714 11.60959-12.06474
 3.97 0.50 -0.289 -0.288 -0.287 -0.285 -0.281 12.06521 12.11126-11.56304
 3.97 1.00 -0.057 -0.056 -0.055 -0.053 -0.049 12.55955 12.61637-11.05794
 3.97 1.25  0.090  0.091  0.092  0.094  0.098 12.80318 12.87187-10.80249
 3.97 1.50  0.254  0.255  0.256  0.258  0.261 13.04297 13.13033-10.54409
 3.97 1.75  0.423  0.423  0.424  0.426  0.428 13.27594 13.39390-10.28049
 3.97 2.00  0.585  0.586  0.586  0.588  0.590 13.50065 13.66219-10.01216
 3.97 2.25  0.730  0.730  0.731  0.732  0.734 13.71264 13.93721 -9.73722
 3.97 2.50  0.854  0.855  0.855  0.856  0.858 13.91233 14.21405 -9.46042
 3.97 2.75  0.955  0.955  0.955  0.956  0.958 14.09762 14.49219 -9.18228
 3.97 3.00  1.038  1.038  1.038  1.039  1.041 14.27114 14.77034 -8.90413
 3.97 3.20  1.093  1.093  1.093  1.094  1.096 14.40169 14.98987 -8.68456
 3.97 3.40  1.141  1.142  1.142  1.143  1.145 14.52689 15.20736 -8.46702
 3.97 3.60  1.186  1.186  1.186  1.187  1.189 14.64689 15.42243 -8.25195
 3.97 3.80  1.227  1.227  1.228  1.229  1.231 14.76325 15.63506 -8.03937
 3.97 4.00  1.268  1.268  1.268  1.269  1.271 14.87633 15.84559 -7.82886
 3.97 4.20  1.307  1.307  1.308  1.309  1.311 14.98674 16.05413 -7.62028
 3.97 4.40  1.348  1.348  1.348  1.349  1.351 15.09531 16.26120 -7.41316
 3.97 4.60  1.390  1.390  1.390  1.391  1.393 15.20216 16.46684 -7.20749
 3.97 4.80  1.433  1.433  1.433  1.435  1.436 15.30790 16.67147 -7.00285
 3.97 5.00  1.478  1.478  1.479  1.480  1.482 15.41263 16.87518 -6.79915
 3.97 5.20  1.525  1.526  1.526  1.527  1.529 15.51654 17.07810 -6.59623
 3.97 5.40  1.575  1.575  1.576  1.577  1.579 15.61994 17.28049 -6.39385
 3.97 5.60  1.627  1.628  1.628  1.629  1.631 15.72283 17.48236 -6.19195
 3.97 5.80  1.682  1.683  1.683  1.684  1.685 15.82545 17.68391 -5.99038
 3.97 6.00  1.740  1.741  1.741  1.742  1.743 15.92789 17.88514 -5.78915
 3.97 6.25  1.817  1.817  1.818  1.818  1.819 16.05576 18.13632 -5.53804
 3.97 6.50  1.899  1.900  1.900  1.900  1.901 16.18356 18.38721 -5.28718
 3.97 6.75  1.987  1.987  1.987  1.988  1.988 16.31129 18.63786 -5.03648
 3.97 7.00  2.079  2.080  2.080  2.081  2.081 16.43902 18.88835 -4.78595
 3.97 7.25  2.177  2.177  2.178  2.178  2.179 16.56706 19.13870 -4.53561
 3.97 7.50  2.280  2.280  2.280  2.281  2.282 16.69513 19.38899 -4.28533
 3.97 7.75  2.387  2.387  2.387  2.388  2.389 16.82320 19.63925 -4.03509
 3.97 8.00  2.498  2.498  2.498  2.498  2.499 16.95129 19.88947 -3.78489
 4.00-2.00 -0.518 -0.518 -0.518 -0.518 -0.518  9.54937  9.56820-14.10613
 4.00-1.50 -0.527 -0.527 -0.527 -0.526 -0.525 10.04376 10.07335-13.60085
 4.00-1.00 -0.527 -0.527 -0.526 -0.525 -0.525 10.54033 10.57680-13.09756
 4.00-0.50 -0.510 -0.510 -0.510 -0.509 -0.507 11.03862 11.07809-12.59619
 4.00 0.00 -0.461 -0.461 -0.460 -0.458 -0.457 11.53795 11.57887-12.09545
 4.00 0.50 -0.347 -0.347 -0.346 -0.344 -0.340 12.03703 12.07954-11.59482
 4.00 1.00 -0.138 -0.137 -0.136 -0.134 -0.130 12.53555 12.58115-11.09323
 4.00 1.25  0.005  0.006  0.007  0.009  0.014 12.78371 12.83287-10.84157
 4.00 1.50  0.174  0.174  0.175  0.178  0.182 13.03060 13.08565-10.58889
 4.00 1.75  0.361  0.361  0.362  0.364  0.368 13.27506 13.34046-10.33402
 4.00 2.00  0.557  0.558  0.558  0.560  0.563 13.51614 13.59791-10.07645
 4.00 2.25  0.752  0.752  0.753  0.754  0.757 13.75095 13.86003 -9.81424
 4.00 2.50  0.935  0.935  0.936  0.938  0.940 13.97814 14.12678 -9.54745
 4.00 2.75  1.097  1.097  1.097  1.099  1.101 14.19340 14.40044 -9.27400
 4.00 3.00  1.235  1.235  1.235  1.237  1.238 14.39672 14.67669 -8.99783
 4.00 3.20  1.325  1.325  1.325  1.327  1.328 14.54875 14.89942 -8.77503
 4.00 3.40  1.402  1.402  1.402  1.403  1.405 14.69305 15.12214 -8.55222
 4.00 3.60  1.467  1.467  1.467  1.468  1.470 14.82937 15.34385 -8.33045
 4.00 3.80  1.522  1.522  1.522  1.523  1.525 14.95927 15.56311 -8.11117
 4.00 4.00  1.571  1.571  1.571  1.572  1.574 15.08350 15.78046 -7.89381
 4.00 4.20  1.614  1.615  1.615  1.616  1.617 15.20281 15.99483 -7.67945
 4.00 4.40  1.656  1.656  1.656  1.657  1.658 15.31867 16.20707 -7.46722
 4.00 4.60  1.695  1.695  1.695  1.696  1.698 15.43124 16.41716 -7.25713
 4.00 4.80  1.734  1.734  1.735  1.735  1.737 15.54163 16.62552 -7.04875
 4.00 5.00  1.774  1.774  1.775  1.775  1.777 15.65002 16.83232 -6.84194
 4.00 5.20  1.815  1.815  1.815  1.816  1.818 15.75676 17.03772 -6.63657
 4.00 5.40  1.858  1.858  1.858  1.859  1.860 15.86244 17.24215 -6.43216
 4.00 5.60  1.902  1.903  1.903  1.904  1.905 15.96709 17.44568 -6.22861
 4.00 5.80  1.950  1.950  1.950  1.951  1.952 16.07113 17.64859 -6.02567
 4.00 6.00  2.000  2.000  2.000  2.001  2.002 16.17464 17.85089 -5.82333
 4.00 6.25  2.066  2.066  2.067  2.067  2.068 16.30347 18.10303 -5.57120
 4.00 6.50  2.138  2.138  2.139  2.139  2.140 16.43201 18.35468 -5.31957
 4.00 6.75  2.216  2.216  2.216  2.217  2.218 16.56030 18.60601 -5.06828
 4.00 7.00  2.299  2.299  2.300  2.300  2.301 16.68860 18.85703 -4.81730
 4.00 7.25  2.389  2.389  2.389  2.389  2.390 16.81701 19.10777 -4.56666
 4.00 7.50  2.484  2.484  2.484  2.485  2.485 16.94557 19.35832 -4.31614
 4.00 7.75  2.585  2.585  2.585  2.585  2.586 17.07465 19.60874 -4.06569
 4.00 8.00  2.691  2.691  2.691  2.691  2.691 17.20412 19.85902 -3.81531
 4.05-2.00 -0.501 -0.501 -0.500 -0.500 -0.499  9.50826  9.50961-14.16482
 4.05-1.50 -0.502 -0.502 -0.501 -0.501 -0.500 10.00732 10.01072-13.66374
 4.05-1.00 -0.504 -0.504 -0.503 -0.503 -0.502 10.50420 10.51362-13.16077
 4.05-0.50 -0.504 -0.504 -0.504 -0.503 -0.502 10.99900 11.01870-12.65580
 4.05 0.00 -0.488 -0.488 -0.488 -0.487 -0.486 11.49346 11.52388-12.15046
 4.05 0.50 -0.427 -0.427 -0.426 -0.425 -0.424 11.98994 12.02694-11.64724
 4.05 1.00 -0.282 -0.281 -0.281 -0.280 -0.277 12.48827 12.52866-11.14569
 4.05 1.25 -0.167 -0.167 -0.167 -0.165 -0.162 12.73761 12.77923-10.89512
 4.05 1.50 -0.023 -0.023 -0.022 -0.020 -0.016 12.98695 13.02979-10.64455
 4.05 1.75  0.148  0.149  0.149  0.152  0.156 13.23598 13.28068-10.39364
 4.05 2.00  0.345  0.345  0.346  0.349  0.353 13.48458 13.53199-10.14231
 4.05 2.25  0.558  0.559  0.560  0.562  0.566 13.73202 13.78424 -9.89001
 4.05 2.50  0.780  0.781  0.781  0.784  0.787 13.97786 14.03783 -9.63639
 4.05 2.75  1.004  1.005  1.005  1.007  1.010 14.22059 14.29411 -9.38014
 4.05 3.00  1.223  1.223  1.223  1.224  1.227 14.45909 14.55364 -9.12068
 4.05 3.20  1.387  1.387  1.388  1.389  1.391 14.64444 14.76519 -8.90914
 4.05 3.40  1.539  1.539  1.540  1.540  1.542 14.82410 14.97974 -8.69460
 4.05 3.60  1.674  1.674  1.675  1.676  1.677 14.99684 15.19853 -8.47580
 4.05 3.80  1.792  1.792  1.792  1.793  1.794 15.16099 15.41972 -8.25461
 4.05 4.00  1.894  1.894  1.894  1.895  1.896 15.31723 15.64147 -8.03287
 4.05 4.20  1.977  1.977  1.977  1.978  1.979 15.46410 15.86358 -7.81080
 4.05 4.40  2.048  2.048  2.049  2.049  2.050 15.60371 16.08568 -7.58872
 4.05 4.60  2.109  2.109  2.109  2.110  2.110 15.73596 16.30640 -7.36805
 4.05 4.80  2.162  2.162  2.162  2.162  2.163 15.86253 16.52413 -7.15037
 4.05 5.00  2.209  2.209  2.210  2.210  2.210 15.98412 16.73973 -6.93479
 4.05 5.20  2.253  2.253  2.253  2.253  2.254 16.10153 16.95257 -6.72184
 4.05 5.40  2.295  2.295  2.295  2.295  2.296 16.21597 17.16343 -6.51088
 4.05 5.60  2.337  2.337  2.337  2.337  2.337 16.32755 17.37232 -6.30198
 4.05 5.80  2.379  2.379  2.379  2.379  2.379 16.43730 17.57970 -6.09466
 4.05 6.00  2.422  2.422  2.422  2.422  2.422 16.54543 17.78569 -5.88874
 4.05 6.25  2.478  2.478  2.478  2.478  2.479 16.67886 18.04153 -5.63289
 4.05 6.50  2.538  2.538  2.538  2.539  2.539 16.81104 18.29601 -5.37841
 4.05 6.75  2.603  2.603  2.603  2.603  2.603 16.94212 18.54938 -5.12511
 4.05 7.00  2.673  2.673  2.673  2.673  2.673 17.07298 18.80195 -4.87257
 4.05 7.25  2.748  2.748  2.748  2.749  2.749 17.20372 19.05389 -4.62059
 4.05 7.50  2.830  2.830  2.830  2.831  2.831 17.33445 19.30535 -4.36906
 4.05 7.75  2.919  2.919  2.919  2.919  2.919 17.46548 19.55649 -4.11789
 4.05 8.00  3.014  3.014  3.014  3.014  3.014 17.59671 19.80726 -3.86710
 4.10-2.00 -0.498 -0.498 -0.498 -0.497 -0.496  9.45894  9.45894-14.21538
 4.10-1.50 -0.497 -0.497 -0.496 -0.496 -0.495  9.95876  9.95904-13.71534
 4.10-1.00 -0.495 -0.495 -0.495 -0.494 -0.493 10.45864 10.45924-13.21503
 4.10-0.50 -0.491 -0.491 -0.490 -0.490 -0.489 10.95794 10.95985-12.71444
 4.10 0.00 -0.479 -0.479 -0.479 -0.478 -0.477 11.45637 11.46150-12.21282
 4.10 0.50 -0.447 -0.447 -0.446 -0.445 -0.444 11.95250 11.96520-11.70908
 4.10 1.00 -0.364 -0.364 -0.363 -0.362 -0.361 12.44685 12.47071-11.20356
 4.10 1.25 -0.291 -0.291 -0.291 -0.290 -0.287 12.69414 12.72322-10.95103
 4.10 1.50 -0.192 -0.192 -0.191 -0.190 -0.188 12.94161 12.97548-10.69875
 4.10 1.75 -0.062 -0.062 -0.062 -0.060 -0.057 13.18993 13.22701-10.44724
 4.10 2.00  0.097  0.097  0.098  0.100  0.103 13.43854 13.47828-10.19600
 4.10 2.25  0.285  0.285  0.287  0.288  0.291 13.68743 13.72932 -9.94500
 4.10 2.50  0.496  0.497  0.498  0.500  0.502 13.93631 13.98037 -9.69401
 4.10 2.75  0.725  0.725  0.726  0.728  0.731 14.18467 14.23184 -9.44250
 4.10 3.00  0.962  0.963  0.964  0.965  0.968 14.43233 14.48387 -9.19037
 4.10 3.20  1.154  1.154  1.155  1.157  1.159 14.62926 14.68658 -8.98768
 4.10 3.40  1.345  1.345  1.345  1.347  1.349 14.82466 14.89057 -8.78375
 4.10 3.60  1.532  1.532  1.532  1.533  1.535 15.01806 15.09628 -8.57807
 4.10 3.80  1.712  1.712  1.712  1.713  1.714 15.20772 15.30471 -8.36963
 4.10 4.00  1.882  1.882  1.883  1.883  1.884 15.39357 15.51574 -8.15858
 4.10 4.20  2.037  2.037  2.037  2.038  2.039 15.57276 15.73105 -7.94325
 4.10 4.40  2.176  2.176  2.177  2.177  2.178 15.74511 15.94892 -7.72536
 4.10 4.60  2.297  2.297  2.298  2.298  2.298 15.90946 16.17005 -7.50423
 4.10 4.80  2.400  2.400  2.400  2.400  2.401 16.06502 16.39252 -7.28176
 4.10 5.00  2.488  2.489  2.489  2.489  2.489 16.21272 16.61500 -7.05928
 4.10 5.20  2.561  2.561  2.562  2.562  2.562 16.35208 16.83627 -6.83803
 4.10 5.40  2.625  2.625  2.626  2.626  2.626 16.48517 17.05629 -6.61803
 4.10 5.60  2.682  2.682  2.682  2.682  2.683 16.61200 17.27430 -6.40007
 4.10 5.80  2.733  2.733  2.733  2.733  2.734 16.73431 17.48955 -6.18486
 4.10 6.00  2.782  2.782  2.782  2.782  2.783 16.85266 17.70260 -5.97184
 4.10 6.25  2.840  2.841  2.841  2.841  2.841 16.99623 17.96556 -5.70879
 4.10 6.50  2.900  2.900  2.900  2.900  2.900 17.13640 18.22583 -5.44843
 4.10 6.75  2.960  2.960  2.960  2.960  2.961 17.27387 18.48387 -5.19031
 4.10 7.00  3.024  3.024  3.024  3.024  3.024 17.40977 18.74013 -4.93405
 4.10 7.25  3.092  3.092  3.092  3.092  3.092 17.54429 18.99486 -4.67947
 4.10 7.50  3.165  3.165  3.165  3.165  3.165 17.67861 19.24846 -4.42597
 4.10 7.75  3.244  3.244  3.244  3.244  3.244 17.81286 19.50128 -4.17316
 4.10 8.00  3.329  3.329  3.329  3.329  3.329 17.94699 19.75320 -3.92118
 4.15-2.00 -0.499 -0.498 -0.498 -0.498 -0.497  9.40892  9.40892-14.26536
 4.15-1.50 -0.496 -0.496 -0.495 -0.495 -0.494  9.90886  9.90891-13.76548
 4.15-1.00 -0.493 -0.493 -0.492 -0.492 -0.490 10.40892 10.40909-13.26536
 4.15-0.50 -0.489 -0.489 -0.488 -0.487 -0.486 10.90875 10.90902-12.76523
 4.15 0.00 -0.481 -0.481 -0.480 -0.479 -0.477 11.40858 11.40926-12.26512
 4.15 0.50 -0.459 -0.459 -0.458 -0.457 -0.456 11.90816 11.90961-11.76472
 4.15 1.00 -0.403 -0.403 -0.402 -0.401 -0.399 12.40705 12.41078-11.26352
 4.15 1.25 -0.352 -0.352 -0.352 -0.351 -0.348 12.65584 12.66197-11.01235
 4.15 1.50 -0.282 -0.282 -0.281 -0.280 -0.277 12.90412 12.91366-10.76070
 4.15 1.75 -0.189 -0.189 -0.188 -0.187 -0.184 13.15159 13.16614-10.50820
 4.15 2.00 -0.072 -0.072 -0.072 -0.069 -0.067 13.39881 13.41880-10.25555
 4.15 2.25  0.070  0.070  0.071  0.072  0.076 13.64584 13.67157-10.00281
 4.15 2.50  0.239  0.239  0.240  0.241  0.245 13.89287 13.92433 -9.75007
 4.15 2.75  0.435  0.435  0.436  0.437  0.441 14.14069 14.17652 -9.49790
 4.15 3.00  0.653  0.653  0.654  0.655  0.658 14.38863 14.42846 -9.24596
 4.15 3.20  0.841  0.841  0.842  0.843  0.846 14.58705 14.62980 -9.04460
 4.15 3.40  1.036  1.037  1.037  1.039  1.041 14.78547 14.83114 -8.84324
 4.15 3.60  1.237  1.237  1.237  1.238  1.240 14.98365 15.03273 -8.64164
 4.15 3.80  1.439  1.439  1.439  1.440  1.442 15.18097 15.23511 -8.43925
 4.15 4.00  1.638  1.638  1.638  1.638  1.640 15.37749 15.43823 -8.23612
 4.15 4.20  1.833  1.833  1.834  1.834  1.835 15.57195 15.64300 -8.03136
 4.15 4.40  2.024  2.024  2.024  2.025  2.026 15.76382 15.84972 -7.82465
 4.15 4.60  2.205  2.205  2.205  2.206  2.207 15.95232 16.05911 -7.61526
 4.15 4.80  2.374  2.374  2.374  2.374  2.375 16.13530 16.27188 -7.40247
 4.15 5.00  2.529  2.529  2.529  2.530  2.530 16.31281 16.48756 -7.18675
 4.15 5.20  2.663  2.664  2.664  2.664  2.664 16.48190 16.70770 -6.96645
 4.15 5.40  2.782  2.782  2.782  2.782  2.783 16.64332 16.92864 -6.74546
 4.15 5.60  2.883  2.883  2.883  2.883  2.883 16.79625 17.15037 -6.52380
 4.15 5.80  2.968  2.968  2.968  2.969  2.969 16.94121 17.37227 -6.30199
 4.15 6.00  3.044  3.044  3.044  3.045  3.045 17.07918 17.59417 -6.08019
 4.15 6.25  3.125  3.125  3.125  3.125  3.125 17.24260 17.86721 -5.80716
 4.15 6.50  3.199  3.199  3.199  3.199  3.199 17.39863 18.13704 -5.53730
 4.15 6.75  3.268  3.268  3.268  3.268  3.268 17.54847 18.40304 -5.27132
 4.15 7.00  3.336  3.336  3.336  3.336  3.336 17.69417 18.66596 -5.00842
 4.15 7.25  3.405  3.405  3.405  3.405  3.405 17.83645 18.92600 -4.74837
 4.15 7.50  3.476  3.476  3.476  3.476  3.476 17.97708 19.18384 -4.49053
 4.15 7.75  3.551  3.551  3.551  3.551  3.551 18.11686 19.44005 -4.23436
 4.15 8.00  3.631  3.631  3.631  3.631  3.631 18.25551 19.69443 -3.98005
 4.20-2.00 -0.499 -0.499 -0.499 -0.499 -0.498  9.35889  9.35889-14.31542
 4.20-1.50 -0.498 -0.498 -0.497 -0.497 -0.496  9.85884  9.85890-13.81531
 4.20-1.00 -0.494 -0.494 -0.494 -0.493 -0.492 10.35889 10.35889-13.31533
 4.20-0.50 -0.488 -0.488 -0.488 -0.487 -0.486 10.85878 10.85896-12.81531
 4.20 0.00 -0.480 -0.480 -0.479 -0.478 -0.477 11.35870 11.35908-12.31524
 4.20 0.50 -0.465 -0.465 -0.465 -0.464 -0.461 11.85866 11.85908-11.81531
 4.20 1.00 -0.432 -0.431 -0.431 -0.430 -0.427 12.35851 12.35927-11.31507
 4.20 1.25 -0.400 -0.400 -0.399 -0.397 -0.394 12.60836 12.60943-11.06492
 4.20 1.50 -0.353 -0.352 -0.352 -0.350 -0.346 12.85812 12.85968-10.81474
 4.20 1.75 -0.285 -0.285 -0.284 -0.282 -0.279 13.10767 13.11012-10.56427
 4.20 2.00 -0.195 -0.194 -0.193 -0.192 -0.188 13.35698 13.36078-10.31354
 4.20 2.25 -0.079 -0.078 -0.077 -0.076 -0.072 13.60594 13.61183-10.06252
 4.20 2.50  0.061  0.062  0.063  0.064  0.068 13.85443 13.86332 -9.81107
 4.20 2.75  0.227  0.227  0.228  0.230  0.233 14.10206 14.11562 -9.55872
 4.20 3.00  0.414  0.414  0.415  0.416  0.420 14.34928 14.36829 -9.30601
 4.20 3.20  0.578  0.578  0.579  0.581  0.584 14.54674 14.57070 -9.10359
 4.20 3.40  0.754  0.754  0.754  0.756  0.759 14.74419 14.77310 -8.90118
 4.20 3.60  0.939  0.940  0.940  0.941  0.944 14.94179 14.97534 -8.69894
 4.20 3.80  1.134  1.134  1.135  1.136  1.138 15.13953 15.17742 -8.49688
 4.20 4.00  1.335  1.335  1.336  1.336  1.338 15.33726 15.37949 -8.29482
 4.20 4.20  1.541  1.541  1.541  1.542  1.543 15.53479 15.58171 -8.09261
 4.20 4.40  1.748  1.748  1.749  1.749  1.750 15.73202 15.78416 -7.89018
 4.20 4.60  1.953  1.953  1.954  1.954  1.955 15.92858 15.98722 -7.68714
 4.20 4.80  2.155  2.155  2.156  2.156  2.157 16.12336 16.19179 -7.48259
 4.20 5.00  2.354  2.354  2.354  2.354  2.354 16.31639 16.39777 -7.27663
 4.20 5.20  2.542  2.542  2.542  2.542  2.542 16.50553 16.60659 -7.06774
 4.20 5.40  2.720  2.720  2.720  2.720  2.720 16.69026 16.81812 -6.85615
 4.20 5.60  2.882  2.882  2.882  2.882  2.883 16.86952 17.03331 -6.64095
 4.20 5.80  3.027  3.027  3.027  3.027  3.027 17.04140 17.25152 -6.42277
 4.20 6.00  3.157  3.157  3.157  3.157  3.157 17.20629 17.47159 -6.20273
 4.20 6.25  3.290  3.290  3.290  3.290  3.290 17.39997 17.74906 -5.92528
 4.20 6.50  3.406  3.406  3.406  3.406  3.406 17.58241 18.02653 -5.64782
 4.20 6.75  3.502  3.502  3.502  3.502  3.502 17.75381 18.30122 -5.37313
 4.20 7.00  3.590  3.591  3.591  3.591  3.591 17.91709 18.57334 -5.10100
 4.20 7.25  3.671  3.671  3.671  3.671  3.671 18.07325 18.84136 -4.83298
 4.20 7.50  3.750  3.750  3.750  3.750  3.750 18.22505 19.10619 -4.56815
 4.20 7.75  3.829  3.829  3.829  3.829  3.829 18.37419 19.36820 -4.30614
 4.20 8.00  3.910  3.910  3.910  3.910  3.910 18.52009 19.62726 -4.04706
 4.25-2.00 -0.499 -0.499 -0.499 -0.498 -0.498  9.30899  9.30899-14.36542
 4.25-1.50 -0.498 -0.498 -0.498 -0.497 -0.497  9.80889  9.80889-13.86550
 4.25-1.00 -0.496 -0.496 -0.495 -0.495 -0.494 10.30878 10.30899-13.36542
 4.25-0.50 -0.490 -0.490 -0.490 -0.489 -0.489 10.80882 10.80895-12.86550
 4.25 0.00 -0.481 -0.481 -0.480 -0.480 -0.479 11.30878 11.30899-12.36532
 4.25 0.50 -0.467 -0.467 -0.467 -0.466 -0.464 11.80875 11.80902-11.86519
 4.25 1.00 -0.443 -0.443 -0.443 -0.442 -0.439 12.30878 12.30921-11.36522
 4.25 1.25 -0.423 -0.423 -0.422 -0.420 -0.418 12.55866 12.55921-11.11522
 4.25 1.50 -0.392 -0.392 -0.391 -0.389 -0.386 12.80855 12.80922-10.86519
 4.25 1.75 -0.347 -0.347 -0.346 -0.344 -0.340 13.05845 13.05929-10.61507
 4.25 2.00 -0.284 -0.284 -0.283 -0.280 -0.276 13.30835 13.30942-10.36492
 4.25 2.25 -0.199 -0.199 -0.198 -0.196 -0.191 13.55816 13.55961-10.11476
 4.25 2.50 -0.090 -0.090 -0.088 -0.086 -0.082 13.80787 13.80990 -9.86455
 4.25 2.75  0.046  0.047  0.048  0.050  0.054 14.05738 14.06038 -9.61403
 4.25 3.00  0.212  0.212  0.212  0.215  0.218 14.30664 14.31112 -9.36321
 4.25 3.20  0.363  0.363  0.364  0.366  0.369 14.50575 14.51200 -9.16232
 4.25 3.40  0.528  0.528  0.529  0.531  0.534 14.70453 14.71320 -8.96114
 4.25 3.60  0.704  0.705  0.705  0.707  0.710 14.90284 14.91486 -8.75951
 4.25 3.80  0.889  0.889  0.890  0.891  0.894 15.10068 15.11695 -8.55743
 4.25 4.00  1.080  1.080  1.080  1.081  1.083 15.29820 15.31931 -8.35507
 4.25 4.20  1.276  1.276  1.276  1.277  1.278 15.49547 15.52190 -8.15245
 4.25 4.40  1.476  1.476  1.476  1.477  1.478 15.69257 15.72461 -7.94973
 4.25 4.60  1.680  1.680  1.680  1.681  1.682 15.88958 15.92738 -7.74695
 4.25 4.80  1.888  1.888  1.888  1.889  1.890 16.08644 16.13024 -7.54410
 4.25 5.00  2.098  2.098  2.098  2.099  2.099 16.28308 16.33325 -7.34113
 4.25 5.20  2.308  2.308  2.308  2.308  2.309 16.47881 16.53699 -7.13741
 4.25 5.40  2.514  2.514  2.515  2.515  2.515 16.67332 16.74170 -6.93273
 4.25 5.60  2.715  2.715  2.715  2.715  2.716 16.86596 16.94795 -6.72648
 4.25 5.80  2.908  2.908  2.908  2.908  2.908 17.05494 17.15683 -6.51758
 4.25 6.00  3.091  3.091  3.091  3.091  3.091 17.24030 17.36810 -6.30627
 4.25 6.25  3.295  3.295  3.295  3.295  3.295 17.46316 17.63751 -6.03686
 4.25 6.50  3.476  3.476  3.476  3.476  3.476 17.67615 17.91041 -5.76397
 4.25 6.75  3.626  3.626  3.626  3.626  3.626 17.87631 18.18715 -5.48723
 4.25 7.00  3.758  3.758  3.758  3.758  3.758 18.06558 18.46390 -5.21049
 4.25 7.25  3.869  3.869  3.869  3.869  3.869 18.24382 18.73906 -4.93540
 4.25 7.50  3.971  3.971  3.971  3.971  3.971 18.41397 19.01241 -4.66214
 4.25 7.75  4.063  4.063  4.063  4.063  4.063 18.57816 19.28169 -4.39280
 4.25 8.00  4.154  4.154  4.154  4.154  4.154 18.73568 19.54765 -4.12668
 4.30-2.00 -0.495 -0.495 -0.495 -0.495 -0.494  9.26007  9.25768-14.41669
 4.30-1.50 -0.496 -0.496 -0.496 -0.495 -0.495  9.75929  9.75846-13.91578
 4.30-1.00 -0.495 -0.495 -0.495 -0.494 -0.494 10.25912 10.25888-13.41556
 4.30-0.50 -0.492 -0.492 -0.492 -0.491 -0.490 10.75884 10.75891-12.91542
 4.30 0.00 -0.484 -0.484 -0.484 -0.483 -0.482 11.25888 11.25888-12.41533
 4.30 0.50 -0.469 -0.469 -0.469 -0.468 -0.467 11.75876 11.75899-11.91542
 4.30 1.00 -0.446 -0.446 -0.446 -0.445 -0.444 12.25864 12.25912-11.41522
 4.30 1.25 -0.430 -0.430 -0.430 -0.429 -0.428 12.50861 12.50913-11.16513
 4.30 1.50 -0.409 -0.409 -0.408 -0.408 -0.406 12.75861 12.75914-10.91507
 4.30 1.75 -0.378 -0.378 -0.378 -0.377 -0.374 13.00862 13.00925-10.66509
 4.30 2.00 -0.335 -0.334 -0.333 -0.332 -0.329 13.25864 13.25935-10.41510
 4.30 2.25 -0.273 -0.273 -0.273 -0.270 -0.268 13.50851 13.50936-10.16510
 4.30 2.50 -0.192 -0.192 -0.191 -0.189 -0.185 13.75838 13.75937 -9.91507
 4.30 2.75 -0.086 -0.086 -0.085 -0.083 -0.078 14.00827 14.00957 -9.66481
 4.30 3.00  0.046  0.046  0.047  0.049  0.054 14.25816 14.25983 -9.41454
 4.30 3.20  0.173  0.174  0.175  0.177  0.181 14.45790 14.46004 -9.21433
 4.30 3.40  0.319  0.319  0.320  0.322  0.327 14.65754 14.66029 -9.01411
 4.30 3.60  0.482  0.482  0.483  0.485  0.488 14.85709 14.86063 -8.81377
 4.30 3.80  0.659  0.659  0.660  0.662  0.666 15.05651 15.06120 -8.61314
 4.30 4.00  0.847  0.847  0.848  0.849  0.852 15.25576 15.26198 -8.41229
 4.30 4.20  1.044  1.044  1.044  1.045  1.048 15.45455 15.46317 -8.21112
 4.30 4.40  1.246  1.246  1.246  1.246  1.248 15.65293 15.66474 -8.00959
 4.30 4.60  1.449  1.449  1.449  1.450  1.451 15.85085 15.86676 -7.80757
 4.30 4.80  1.655  1.655  1.655  1.656  1.657 16.04828 16.06922 -7.60507
 4.30 5.00  1.861  1.862  1.862  1.862  1.863 16.24527 16.27207 -7.40220
 4.30 5.20  2.070  2.071  2.071  2.071  2.072 16.44192 16.47519 -7.19914
 4.30 5.40  2.282  2.282  2.282  2.282  2.282 16.63805 16.67874 -6.99569
 4.30 5.60  2.494  2.494  2.494  2.495  2.495 16.83374 16.88267 -6.79183
 4.30 5.80  2.706  2.706  2.706  2.707  2.707 17.02861 17.08728 -6.58722
 4.30 6.00  2.915  2.915  2.915  2.915  2.915 17.22246 17.29270 -6.38174
 4.30 6.25  3.165  3.165  3.165  3.165  3.165 17.46094 17.55219 -6.12223
 4.30 6.50  3.403  3.403  3.403  3.403  3.403 17.69452 17.81491 -5.85949
 4.30 6.75  3.615  3.615  3.615  3.615  3.615 17.91976 18.08306 -5.59138
 4.30 7.00  3.807  3.807  3.807  3.807  3.807 18.13609 18.35468 -5.31976
 4.30 7.25  3.968  3.968  3.968  3.968  3.968 18.34049 18.63032 -5.04402
 4.30 7.50  4.112  4.112  4.112  4.112  4.112 18.53479 18.90596 -4.76828
 4.30 7.75  4.235  4.235  4.235  4.235  4.235 18.71980 19.18042 -4.49386
 4.30 8.00  4.350  4.350  4.350  4.350  4.350 18.89526 19.45408 -4.22033
 4.35-2.00 -0.470 -0.470 -0.470 -0.469 -0.469  9.22246  9.19507-14.47939
 4.35-1.50 -0.479 -0.479 -0.479 -0.478 -0.477  9.71767  9.69992-13.97429
 4.35-1.00 -0.487 -0.487 -0.487 -0.486 -0.485 10.21299 10.20466-13.46954
 4.35-0.50 -0.490 -0.489 -0.489 -0.489 -0.487 10.71037 10.70731-12.96698
 4.35 0.00 -0.486 -0.486 -0.485 -0.485 -0.483 11.20925 11.20844-12.46585
 4.35 0.50 -0.474 -0.474 -0.473 -0.472 -0.471 11.70893 11.70885-11.96537
 4.35 1.00 -0.450 -0.450 -0.450 -0.449 -0.447 12.20871 12.20898-11.46534
 4.35 1.25 -0.434 -0.433 -0.433 -0.432 -0.431 12.45868 12.45904-11.21536
 4.35 1.50 -0.414 -0.414 -0.413 -0.413 -0.411 12.70868 12.70910-10.96537
 4.35 1.75 -0.389 -0.389 -0.388 -0.388 -0.387 12.95869 12.95917-10.71523
 4.35 2.00 -0.356 -0.356 -0.356 -0.355 -0.354 13.20871 13.20925-10.46509
 4.35 2.25 -0.312 -0.312 -0.312 -0.311 -0.309 13.45861 13.45926-10.21503
 4.35 2.50 -0.252 -0.252 -0.252 -0.250 -0.248 13.70851 13.70927 -9.96497
 4.35 2.75 -0.171 -0.171 -0.171 -0.169 -0.166 13.95847 13.95939 -9.71491
 4.35 3.00 -0.067 -0.067 -0.066 -0.064 -0.061 14.20844 14.20951 -9.46483
 4.35 3.20  0.036  0.037  0.037  0.039  0.043 14.40826 14.40962 -9.26475
 4.35 3.40  0.159  0.160  0.161  0.162  0.167 14.60809 14.60972 -9.06464
 4.35 3.60  0.301  0.302  0.302  0.304  0.308 14.80792 14.80986 -8.86450
 4.35 3.80  0.461  0.462  0.462  0.464  0.468 15.00778 15.01006 -8.66431
 4.35 4.00  0.636  0.636  0.637  0.638  0.642 15.20763 15.21032 -8.46407
 4.35 4.20  0.823  0.824  0.824  0.826  0.829 15.40726 15.41065 -8.26374
 4.35 4.40  1.021  1.021  1.021  1.022  1.025 15.60671 15.61111 -8.06326
 4.35 4.60  1.225  1.225  1.226  1.226  1.228 15.80602 15.81176 -7.86262
 4.35 4.80  1.434  1.435  1.435  1.435  1.437 16.00508 16.01275 -7.66167
 4.35 5.00  1.646  1.646  1.646  1.647  1.648 16.20385 16.21405 -7.46042
 4.35 5.20  1.859  1.860  1.860  1.860  1.861 16.40204 16.41577 -7.25866
 4.35 5.40  2.074  2.074  2.074  2.074  2.075 16.59967 16.61797 -7.05639
 4.35 5.60  2.288  2.288  2.288  2.288  2.289 16.79672 16.82071 -6.85359
 4.35 5.80  2.503  2.503  2.503  2.503  2.503 16.99305 17.02410 -6.65016
 4.35 6.00  2.718  2.718  2.718  2.718  2.719 17.18865 17.22814 -6.44612
 4.35 6.25  2.987  2.987  2.987  2.987  2.988 17.43211 17.48405 -6.19026
 4.35 6.50  3.251  3.251  3.251  3.251  3.251 17.67367 17.74147 -5.93293
 4.35 6.75  3.503  3.503  3.503  3.503  3.503 17.91184 18.00143 -5.67293
 4.35 7.00  3.743  3.743  3.743  3.743  3.743 18.14551 18.26435 -5.40994
 4.35 7.25  3.958  3.958  3.958  3.958  3.958 18.37130 18.53197 -5.14236
 4.35 7.50  4.154  4.154  4.154  4.154  4.154 18.58894 18.80277 -4.87160
 4.35 7.75  4.322  4.322  4.322  4.322  4.322 18.79634 19.07603 -4.59836
 4.35 8.00  4.475  4.475  4.475  4.475  4.475 18.99419 19.35199 -4.32239
 4.40-2.00 -0.461 -0.461 -0.461 -0.461 -0.460  9.17696  9.14019-14.53417
 4.40-1.50 -0.461 -0.461 -0.461 -0.461 -0.460  9.67633  9.64068-14.03367
 4.40-1.00 -0.463 -0.463 -0.463 -0.462 -0.461 10.17522 10.14208-13.53224
 4.40-0.50 -0.467 -0.467 -0.467 -0.466 -0.465 10.67201 10.64532-13.02900
 4.40 0.00 -0.472 -0.472 -0.472 -0.471 -0.469 11.16732 11.15045-12.52389
 4.40 0.50 -0.471 -0.471 -0.471 -0.470 -0.468 11.66266 11.65504-12.01927
 4.40 1.00 -0.455 -0.455 -0.455 -0.454 -0.453 12.16017 12.15776-11.51670
 4.40 1.25 -0.440 -0.440 -0.440 -0.439 -0.438 12.40957 12.40826-11.26613
 4.40 1.50 -0.420 -0.420 -0.420 -0.419 -0.418 12.65916 12.65858-11.01574
 4.40 1.75 -0.395 -0.395 -0.395 -0.394 -0.393 12.90885 12.90881-10.76546
 4.40 2.00 -0.365 -0.365 -0.364 -0.364 -0.362 13.15866 13.15897-10.51527
 4.40 2.25 -0.327 -0.327 -0.327 -0.326 -0.325 13.40862 13.40907-10.26522
 4.40 2.50 -0.280 -0.280 -0.279 -0.279 -0.276 13.65858 13.65915-10.01516
 4.40 2.75 -0.217 -0.217 -0.217 -0.216 -0.214 13.90847 13.90921 -9.76508
 4.40 3.00 -0.135 -0.135 -0.135 -0.133 -0.131 14.15836 14.15927 -9.51499
 4.40 3.20 -0.052 -0.051 -0.051 -0.050 -0.047 14.35830 14.35936 -9.31492
 4.40 3.40  0.049  0.049  0.049  0.050  0.053 14.55823 14.55948 -9.11484
 4.40 3.60  0.169  0.170  0.170  0.171  0.174 14.75817 14.75960 -8.91472
 4.40 3.80  0.310  0.310  0.310  0.311  0.315 14.95812 14.95973 -8.71457
 4.40 4.00  0.468  0.468  0.469  0.470  0.473 15.15806 15.15987 -8.51442
 4.40 4.20  0.642  0.642  0.643  0.644  0.647 15.35785 15.36002 -8.31427
 4.40 4.40  0.829  0.829  0.830  0.831  0.834 15.55759 15.56020 -8.11411
 4.40 4.60  1.026  1.026  1.026  1.027  1.030 15.75730 15.76045 -7.91389
 4.40 4.80  1.231  1.231  1.231  1.232  1.234 15.95696 15.96085 -7.71351
 4.40 5.00  1.441  1.441  1.441  1.442  1.443 16.15655 16.16137 -7.51300
 4.40 5.20  1.655  1.655  1.655  1.656  1.657 16.35591 16.36199 -7.31239
 4.40 5.40  1.872  1.872  1.872  1.872  1.874 16.55501 16.56283 -7.11154
 4.40 5.60  2.091  2.091  2.091  2.091  2.092 16.75381 16.76398 -6.91037
 4.40 5.80  2.311  2.311  2.311  2.311  2.312 16.95209 16.96569 -6.70864
 4.40 6.00  2.532  2.532  2.532  2.532  2.533 17.14983 17.16791 -6.50640
 4.40 6.25  2.808  2.808  2.808  2.808  2.808 17.39582 17.42168 -6.25272
 4.40 6.50  3.084  3.084  3.084  3.084  3.084 17.64038 17.67669 -5.99783
 4.40 6.75  3.356  3.356  3.356  3.356  3.356 17.88329 17.93316 -5.74140
 4.40 7.00  3.621  3.621  3.621  3.621  3.621 18.12385 18.19145 -5.48307
 4.40 7.25  3.870  3.870  3.870  3.870  3.870 18.36099 18.45210 -5.22226
 4.40 7.50  4.108  4.108  4.108  4.108  4.108 18.59362 18.71559 -4.95861
 4.40 7.75  4.320  4.320  4.320  4.320  4.320 18.81862 18.98303 -4.69124
 4.40 8.00  4.517  4.517  4.517  4.517  4.517 19.03703 19.25406 -4.42045
 4.45-2.00 -0.460 -0.460 -0.460 -0.460 -0.459  9.12710  9.08991-14.58436
 4.45-1.50 -0.460 -0.460 -0.460 -0.460 -0.458  9.62696  9.58995-14.08434
 4.45-1.00 -0.460 -0.460 -0.460 -0.459 -0.458 10.12678 10.09026-13.58419
 4.45-0.50 -0.459 -0.459 -0.459 -0.458 -0.457 10.62665 10.59028-13.08402
 4.45 0.00 -0.458 -0.458 -0.457 -0.457 -0.455 11.12613 11.09096-12.58319
 4.45 0.50 -0.454 -0.454 -0.454 -0.453 -0.452 11.62418 11.59306-12.08129
 4.45 1.00 -0.446 -0.446 -0.446 -0.445 -0.443 12.12024 12.09726-11.57708
 4.45 1.25 -0.437 -0.437 -0.436 -0.436 -0.433 12.36773 12.34988-11.32447
 4.45 1.50 -0.422 -0.422 -0.421 -0.421 -0.418 12.61521 12.60249-11.07186
 4.45 1.75 -0.401 -0.400 -0.400 -0.399 -0.396 12.86306 12.85471-10.81973
 4.45 2.00 -0.372 -0.372 -0.371 -0.371 -0.368 13.11126 13.10653-10.56799
 4.45 2.25 -0.336 -0.336 -0.335 -0.334 -0.332 13.36018 13.35754-10.31688
 4.45 2.50 -0.292 -0.291 -0.291 -0.290 -0.288 13.60949 13.60821-10.06611
 4.45 2.75 -0.237 -0.237 -0.237 -0.236 -0.234 13.85917 13.85860 -9.81560
 4.45 3.00 -0.169 -0.169 -0.169 -0.167 -0.166 14.10890 14.10890 -9.56527
 4.45 3.20 -0.101 -0.101 -0.100 -0.099 -0.097 14.30869 14.30912 -9.36514
 4.45 3.40 -0.018 -0.018 -0.017 -0.016 -0.014 14.50850 14.50931 -9.16501
 4.45 3.60  0.082  0.082  0.083  0.084  0.086 14.70838 14.70942 -8.96488
 4.45 3.80  0.203  0.203  0.203  0.204  0.206 14.90830 14.90950 -8.76476
 4.45 4.00  0.342  0.342  0.342  0.344  0.346 15.10823 15.10958 -8.56463
 4.45 4.20  0.501  0.501  0.501  0.502  0.504 15.30807 15.30974 -8.36452
 4.45 4.40  0.675  0.675  0.675  0.676  0.679 15.50788 15.50992 -8.16440
 4.45 4.60  0.863  0.863  0.863  0.863  0.866 15.70768 15.71012 -7.96426
 4.45 4.80  1.060  1.060  1.060  1.061  1.063 15.90746 15.91034 -7.76407
 4.45 5.00  1.265  1.265  1.265  1.266  1.267 16.10721 16.11059 -7.56384
 4.45 5.20  1.476  1.476  1.476  1.476  1.477 16.30693 16.31087 -7.36355
 4.45 5.40  1.690  1.690  1.690  1.691  1.691 16.50658 16.51121 -7.16316
 4.45 5.60  1.907  1.907  1.908  1.908  1.909 16.70612 16.71166 -6.96266
 4.45 5.80  2.128  2.128  2.128  2.128  2.129 16.90543 16.91235 -6.76193
 4.45 6.00  2.351  2.351  2.351  2.351  2.351 17.10449 17.11328 -6.56098
 4.45 6.25  2.631  2.631  2.631  2.632  2.632 17.35271 17.36501 -6.30927
 4.45 6.50  2.913  2.913  2.913  2.914  2.914 17.60010 17.61753 -6.05680
 4.45 6.75  3.196  3.196  3.196  3.196  3.196 17.84615 17.87129 -5.80306
 4.45 7.00  3.478  3.478  3.478  3.478  3.478 18.09061 18.12646 -5.54791
 4.45 7.25  3.751  3.751  3.751  3.751  3.751 18.33299 18.38336 -5.29099
 4.45 7.50  4.013  4.013  4.013  4.013  4.013 18.57264 18.64237 -5.03198
 4.45 7.75  4.256  4.256  4.256  4.256  4.256 18.80793 18.90426 -4.77014
 4.45 8.00  4.487  4.487  4.487  4.487  4.487 19.03941 19.16879 -4.50571
 4.50-2.00 -0.460 -0.460 -0.460 -0.460 -0.459  9.07700  9.03981-14.63433
 4.50-1.50 -0.460 -0.460 -0.460 -0.459 -0.458  9.57703  9.53995-14.13436
 4.50-1.00 -0.459 -0.459 -0.459 -0.459 -0.457 10.07700 10.03981-13.63433
 4.50-0.50 -0.459 -0.459 -0.458 -0.458 -0.456 10.57692 10.53995-13.13436
 4.50 0.00 -0.457 -0.457 -0.457 -0.456 -0.454 11.07700 11.04021-12.63414
 4.50 0.50 -0.454 -0.454 -0.453 -0.452 -0.451 11.57669 11.54033-12.13407
 4.50 1.00 -0.445 -0.445 -0.445 -0.444 -0.442 12.07628 12.04100-11.63358
 4.50 1.25 -0.437 -0.437 -0.437 -0.436 -0.434 12.32577 12.29149-11.38301
 4.50 1.50 -0.424 -0.424 -0.424 -0.423 -0.421 12.57496 12.54220-11.13212
 4.50 1.75 -0.405 -0.405 -0.404 -0.403 -0.401 12.82365 12.79373-10.88066
 4.50 2.00 -0.376 -0.376 -0.376 -0.375 -0.372 13.07188 13.04571-10.62875
 4.50 2.25 -0.339 -0.339 -0.339 -0.338 -0.335 13.31940 13.29822-10.37618
 4.50 2.50 -0.294 -0.294 -0.294 -0.292 -0.290 13.56691 13.55072-10.12361
 4.50 2.75 -0.241 -0.241 -0.241 -0.239 -0.237 13.81450 13.80312 -9.87116
 4.50 3.00 -0.179 -0.178 -0.178 -0.177 -0.175 14.06221 14.05538 -9.61889
 4.50 3.20 -0.119 -0.119 -0.118 -0.118 -0.115 14.26103 14.25662 -9.41770
 4.50 3.40 -0.048 -0.048 -0.048 -0.047 -0.045 14.46013 14.45760 -9.21677
 4.50 3.60  0.036  0.036  0.036  0.037  0.039 14.65955 14.65830 -9.01606
 4.50 3.80  0.138  0.138  0.138  0.139  0.141 14.85914 14.85882 -8.81551
 4.50 4.00  0.258  0.258  0.259  0.260  0.261 15.05881 15.05918 -8.61511
 4.50 4.20  0.399  0.399  0.400  0.401  0.402 15.25849 15.25938 -8.41491
 4.50 4.40  0.558  0.558  0.558  0.559  0.561 15.45823 15.45957 -8.21473
 4.50 4.60  0.733  0.733  0.733  0.734  0.736 15.65802 15.65980 -8.01455
 4.50 4.80  0.921  0.921  0.921  0.922  0.923 15.85784 15.86006 -7.81438
 4.50 5.00  1.119  1.119  1.119  1.119  1.120 16.05767 16.06032 -7.61421
 4.50 5.20  1.324  1.324  1.324  1.324  1.325 16.25744 16.26049 -7.41399
 4.50 5.40  1.534  1.534  1.534  1.534  1.535 16.45717 16.46066 -7.21372
 4.50 5.60  1.748  1.748  1.748  1.749  1.750 16.65688 16.66090 -7.01341
 4.50 5.80  1.966  1.966  1.966  1.966  1.967 16.85655 16.86131 -6.81305
 4.50 6.00  2.187  2.187  2.187  2.187  2.187 17.05614 17.06183 -6.61261
 4.50 6.25  2.466  2.466  2.466  2.466  2.466 17.30527 17.31262 -6.36178
 4.50 6.50  2.746  2.746  2.746  2.746  2.746 17.55400 17.56372 -6.11059
 4.50 6.75  3.032  3.032  3.032  3.032  3.032 17.80221 17.81554 -5.85881
 4.50 7.00  3.319  3.319  3.319  3.319  3.319 18.04961 18.06819 -5.60625
 4.50 7.25  3.605  3.605  3.605  3.605  3.605 18.29544 18.32203 -5.35236
 4.50 7.50  3.887  3.887  3.887  3.887  3.887 18.53945 18.57738 -5.09691
 4.50 7.75  4.155  4.155  4.155  4.155  4.155 18.78071 18.83507 -4.83917
 4.50 8.00  4.408  4.408  4.408  4.408  4.408 19.01953 19.09482 -4.57938
 4.55-2.00 -0.460 -0.460 -0.460 -0.460 -0.459  9.02694  8.98998-14.68445
 4.55-1.50 -0.460 -0.460 -0.460 -0.459 -0.458  9.52699  9.48996-14.18436
 4.55-1.00 -0.459 -0.459 -0.459 -0.459 -0.458 10.02694  9.98998-13.68424
 4.55-0.50 -0.459 -0.459 -0.459 -0.458 -0.457 10.52699 10.48996-13.18436
 4.55 0.00 -0.458 -0.457 -0.457 -0.457 -0.455 11.02694 10.99003-12.68424
 4.55 0.50 -0.455 -0.455 -0.455 -0.454 -0.452 11.52699 11.49010-12.18429
 4.55 1.00 -0.450 -0.450 -0.449 -0.449 -0.447 12.02694 11.99016-11.68424
 4.55 1.25 -0.445 -0.445 -0.445 -0.444 -0.442 12.27686 12.24020-11.43415
 4.55 1.50 -0.437 -0.437 -0.437 -0.436 -0.434 12.52673 12.49024-11.18402
 4.55 1.75 -0.424 -0.424 -0.424 -0.423 -0.420 12.77648 12.74046-10.93386
 4.55 2.00 -0.404 -0.404 -0.404 -0.403 -0.400 13.02612 12.99083-10.68361
 4.55 2.25 -0.374 -0.374 -0.373 -0.372 -0.369 13.27568 13.24133-10.43311
 4.55 2.50 -0.330 -0.330 -0.329 -0.328 -0.325 13.52505 13.49206-10.18230
 4.55 2.75 -0.271 -0.271 -0.270 -0.269 -0.266 13.77397 13.74337 -9.93100
 4.55 3.00 -0.197 -0.197 -0.196 -0.195 -0.192 14.02243 13.99515 -9.67923
 4.55 3.20 -0.129 -0.128 -0.128 -0.127 -0.125 14.22044 14.19710 -9.47721
 4.55 3.40 -0.054 -0.054 -0.053 -0.052 -0.050 14.41845 14.39909 -9.27519
 4.55 3.60  0.027  0.027  0.028  0.029  0.030 14.61649 14.60112 -9.07318
 4.55 3.80  0.119  0.120  0.120  0.121  0.122 14.81462 14.80315 -8.87117
 4.55 4.00  0.224  0.225  0.225  0.226  0.227 15.01284 15.00518 -8.66918
 4.55 4.20  0.346  0.346  0.347  0.347  0.349 15.21142 15.20658 -8.46782
 4.55 4.40  0.485  0.486  0.486  0.487  0.488 15.41024 15.40768 -8.26673
 4.55 4.60  0.642  0.642  0.642  0.643  0.645 15.60934 15.60845 -8.06589
 4.55 4.80  0.815  0.815  0.816  0.816  0.817 15.80867 15.80901 -7.86523
 4.55 5.00  1.001  1.001  1.001  1.001  1.002 16.00817 16.00945 -7.66474
 4.55 5.20  1.197  1.197  1.198  1.198  1.199 16.20785 16.20978 -7.46447
 4.55 5.40  1.401  1.401  1.401  1.401  1.402 16.40757 16.41011 -7.26419
 4.55 5.60  1.610  1.610  1.610  1.610  1.611 16.60734 16.61045 -7.06389
 4.55 5.80  1.823  1.823  1.823  1.823  1.824 16.80712 16.81079 -6.86353
 4.55 6.00  2.040  2.040  2.040  2.040  2.040 17.00690 17.01115 -6.66314
 4.55 6.25  2.315  2.315  2.315  2.315  2.315 17.25627 17.26166 -6.41263
 4.55 6.50  2.592  2.592  2.592  2.592  2.593 17.50542 17.51229 -6.16203
 4.55 6.75  2.871  2.871  2.871  2.871  2.872 17.75440 17.76321 -5.91109
 4.55 7.00  3.157  3.157  3.157  3.157  3.157 18.00303 18.01452 -5.65976
 4.55 7.25  3.444  3.444  3.444  3.444  3.444 18.25099 18.26653 -5.40777
 4.55 7.50  3.732  3.732  3.732  3.732  3.732 18.49804 18.51944 -5.15490
 4.55 7.75  4.012  4.012  4.012  4.012  4.012 18.74324 18.77393 -4.90041
 4.55 8.00  4.285  4.285  4.285  4.285  4.285 18.98691 19.02979 -4.64455
 4.60-2.00 -0.460 -0.460 -0.460 -0.459 -0.458  8.97708  8.93997-14.73448
 4.60-1.50 -0.460 -0.460 -0.459 -0.459 -0.458  9.47698  9.43996-14.23441
 4.60-1.00 -0.459 -0.459 -0.459 -0.459 -0.457  9.97704  9.93997-13.73424
 4.60-0.50 -0.459 -0.459 -0.459 -0.458 -0.457 10.47698 10.43996-13.23441
 4.60 0.00 -0.458 -0.458 -0.458 -0.457 -0.456 10.97704 10.94002-12.73424
 4.60 0.50 -0.457 -0.457 -0.456 -0.456 -0.454 11.47698 11.43996-12.23433
 4.60 1.00 -0.453 -0.453 -0.453 -0.452 -0.451 11.97699 11.94007-11.73424
 4.60 1.25 -0.450 -0.450 -0.450 -0.449 -0.447 12.22691 12.19009-11.48425
 4.60 1.50 -0.445 -0.445 -0.445 -0.444 -0.443 12.47683 12.44012-11.23426
 4.60 1.75 -0.438 -0.438 -0.438 -0.437 -0.435 12.72684 12.69016-10.98413
 4.60 2.00 -0.426 -0.426 -0.426 -0.425 -0.422 12.97685 12.94022-10.73400
 4.60 2.25 -0.408 -0.407 -0.407 -0.406 -0.403 13.22671 13.19031-10.48398
 4.60 2.50 -0.378 -0.378 -0.377 -0.376 -0.373 13.47654 13.44044-10.23396
 4.60 2.75 -0.335 -0.334 -0.334 -0.333 -0.330 13.72637 13.69065 -9.98371
 4.60 3.00 -0.274 -0.274 -0.274 -0.272 -0.269 13.97617 13.94097 -9.73330
 4.60 3.20 -0.211 -0.211 -0.211 -0.209 -0.206 14.17577 14.14137 -9.53288
 4.60 3.40 -0.134 -0.134 -0.133 -0.132 -0.129 14.37517 14.34196 -9.33230
 4.60 3.60 -0.042 -0.042 -0.041 -0.040 -0.037 14.57435 14.54283 -9.13144
 4.60 3.80  0.064  0.064  0.065  0.066  0.068 14.77323 14.74407 -8.93018
 4.60 4.00  0.183  0.184  0.184  0.184  0.187 14.97183 14.94562 -8.72862
 4.60 4.20  0.313  0.313  0.313  0.314  0.316 15.16985 15.14772 -8.52658
 4.60 4.40  0.451  0.451  0.452  0.453  0.454 15.36786 15.34982 -8.32454
 4.60 4.60  0.599  0.599  0.599  0.600  0.602 15.56588 15.55189 -8.12250
 4.60 4.80  0.757  0.757  0.757  0.757  0.759 15.76394 15.75389 -7.92049
 4.60 5.00  0.925  0.925  0.925  0.925  0.926 15.96204 15.95578 -7.71851
 4.60 5.20  1.104  1.105  1.105  1.105  1.106 16.16067 16.15711 -7.51719
 4.60 5.40  1.293  1.293  1.293  1.294  1.294 16.35955 16.35819 -7.31611
 4.60 5.60  1.490  1.490  1.491  1.491  1.491 16.55874 16.55902 -7.11527
 4.60 5.80  1.695  1.695  1.695  1.695  1.696 16.75811 16.75970 -6.91457
 4.60 6.00  1.903  1.903  1.904  1.904  1.904 16.95756 16.96028 -6.71399
 4.60 6.25  2.171  2.171  2.171  2.171  2.171 17.20696 17.21089 -6.46344
 4.60 6.50  2.443  2.443  2.443  2.443  2.443 17.45637 17.46150 -6.21289
 4.60 6.75  2.711  2.711  2.711  2.712  2.712 17.70566 17.71219 -5.96218
 4.60 7.00  2.990  2.990  2.990  2.990  2.990 17.95482 17.96299 -5.71130
 4.60 7.25  3.271  3.271  3.271  3.271  3.271 18.20362 18.21411 -5.46016
 4.60 7.50  3.555  3.555  3.555  3.555  3.555 18.45194 18.46568 -5.20859
 4.60 7.75  3.836  3.836  3.836  3.836  3.836 18.69930 18.71824 -4.95603
 4.60 8.00  4.113  4.113  4.113  4.113  4.113 18.94586 18.97160 -4.70268
 4.65-2.00 -0.459 -0.459 -0.459 -0.459 -0.457  8.92706  8.88997-14.78436
 4.65-1.50 -0.459 -0.459 -0.459 -0.459 -0.457  9.42700  9.38987-14.28441
 4.65-1.00 -0.459 -0.459 -0.459 -0.458 -0.457  9.92706  9.88997-13.78436
 4.65-0.50 -0.459 -0.458 -0.458 -0.458 -0.456 10.42700 10.39005-13.28433
 4.65 0.00 -0.458 -0.458 -0.458 -0.457 -0.455 10.92706 10.89003-12.78436
 4.65 0.50 -0.457 -0.457 -0.457 -0.456 -0.454 11.42700 11.39005-12.28433
 4.65 1.00 -0.455 -0.455 -0.455 -0.454 -0.452 11.92701 11.89009-11.78436
 4.65 1.25 -0.453 -0.453 -0.453 -0.452 -0.451 12.17701 12.14007-11.53431
 4.65 1.50 -0.451 -0.451 -0.450 -0.450 -0.448 12.42700 12.39005-11.28425
 4.65 1.75 -0.446 -0.446 -0.446 -0.445 -0.444 12.67695 12.64010-11.03417
 4.65 2.00 -0.440 -0.440 -0.439 -0.439 -0.437 12.92691 12.89014-10.78410
 4.65 2.25 -0.429 -0.429 -0.428 -0.428 -0.425 13.17687 13.14019-10.53413
 4.65 2.50 -0.411 -0.411 -0.411 -0.410 -0.407 13.42684 13.39023-10.28416
 4.65 2.75 -0.383 -0.383 -0.383 -0.382 -0.379 13.67678 13.64029-10.03400
 4.65 3.00 -0.342 -0.342 -0.342 -0.340 -0.337 13.92670 13.89037 -9.78383
 4.65 3.20 -0.297 -0.296 -0.296 -0.294 -0.291 14.12659 14.09044 -9.58380
 4.65 3.40 -0.237 -0.237 -0.237 -0.236 -0.232 14.32644 14.29053 -9.38376
 4.65 3.60 -0.164 -0.164 -0.163 -0.162 -0.158 14.52626 14.49069 -9.18367
 4.65 3.80 -0.074 -0.073 -0.073 -0.071 -0.068 14.72605 14.69100 -8.98342
 4.65 4.00  0.034  0.034  0.034  0.036  0.040 14.92578 14.89143 -8.78304
 4.65 4.20  0.161  0.161  0.162  0.163  0.166 15.12526 15.09199 -8.58247
 4.65 4.40  0.307  0.307  0.308  0.309  0.312 15.32452 15.29276 -8.38166
 4.65 4.60  0.470  0.470  0.470  0.471  0.473 15.52348 15.49385 -8.18053
 4.65 4.80  0.644  0.644  0.644  0.645  0.647 15.72210 15.69532 -7.97905
 4.65 5.00  0.825  0.825  0.825  0.826  0.827 15.92044 15.89708 -7.77728
 4.65 5.20  1.010  1.010  1.010  1.011  1.012 16.11832 16.09929 -7.57509
 4.65 5.40  1.197  1.197  1.197  1.197  1.198 16.31620 16.30150 -7.37290
 4.65 5.60  1.386  1.386  1.386  1.386  1.387 16.51414 16.50363 -7.17077
 4.65 5.80  1.578  1.578  1.578  1.578  1.579 16.71228 16.70554 -6.96880
 4.65 6.00  1.774  1.774  1.774  1.774  1.775 16.91057 16.90725 -6.76700
 4.65 6.25  2.026  2.026  2.026  2.026  2.027 17.15898 17.15874 -6.51558
 4.65 6.50  2.285  2.285  2.285  2.285  2.286 17.40773 17.40993 -6.26440
 4.65 6.75  2.544  2.544  2.544  2.544  2.544 17.65687 17.66087 -6.01343
 4.65 7.00  2.808  2.808  2.808  2.808  2.808 17.90601 17.91180 -5.76246
 4.65 7.25  3.079  3.079  3.079  3.079  3.079 18.15500 18.16277 -5.51148
 4.65 7.50  3.353  3.353  3.353  3.353  3.353 18.40381 18.41380 -5.26051
 4.65 7.75  3.626  3.626  3.626  3.626  3.626 18.65220 18.66542 -5.00893
 4.65 8.00  3.898  3.898  3.898  3.898  3.898 18.90026 18.91745 -4.75696
 4.70-2.00 -0.459 -0.459 -0.459 -0.458 -0.457  8.87708  8.83998-14.83446
 4.70-1.50 -0.459 -0.459 -0.458 -0.458 -0.456  9.37694  9.33985-14.33442
 4.70-1.00 -0.458 -0.458 -0.458 -0.458 -0.456  9.87708  9.83998-13.83446
 4.70-0.50 -0.458 -0.458 -0.458 -0.457 -0.455 10.37694 10.34005-13.33442
 4.70 0.00 -0.458 -0.458 -0.457 -0.457 -0.455 10.87703 10.83998-12.83446
 4.70 0.50 -0.457 -0.457 -0.456 -0.456 -0.454 11.37694 11.34005-12.33433
 4.70 1.00 -0.455 -0.455 -0.455 -0.454 -0.452 11.87703 11.84004-11.83416
 4.70 1.25 -0.454 -0.454 -0.454 -0.453 -0.451 12.12698 12.09004-11.58424
 4.70 1.50 -0.452 -0.452 -0.452 -0.451 -0.449 12.37694 12.34005-11.33432
 4.70 1.75 -0.450 -0.450 -0.449 -0.449 -0.447 12.62696 12.59008-11.08424
 4.70 2.00 -0.446 -0.446 -0.446 -0.445 -0.443 12.87697 12.84011-10.83416
 4.70 2.25 -0.440 -0.440 -0.440 -0.439 -0.437 13.12696 13.09008-10.58420
 4.70 2.50 -0.430 -0.430 -0.430 -0.429 -0.427 13.37694 13.34005-10.33423
 4.70 2.75 -0.415 -0.414 -0.414 -0.413 -0.411 13.62688 13.59014-10.08421
 4.70 3.00 -0.389 -0.389 -0.389 -0.388 -0.385 13.87680 13.84023 -9.83416
 4.70 3.20 -0.359 -0.359 -0.359 -0.358 -0.355 14.07671 14.04024 -9.63412
 4.70 3.40 -0.319 -0.319 -0.319 -0.317 -0.314 14.27662 14.24024 -9.43407
 4.70 3.60 -0.266 -0.266 -0.265 -0.264 -0.261 14.47656 14.44031 -9.23402
 4.70 3.80 -0.198 -0.198 -0.198 -0.197 -0.193 14.67653 14.64045 -9.03395
 4.70 4.00 -0.115 -0.114 -0.114 -0.112 -0.108 14.87651 14.84061 -8.83387
 4.70 4.20 -0.012 -0.012 -0.012 -0.010 -0.006 15.07637 15.04076 -8.63370
 4.70 4.40  0.107  0.107  0.108  0.110  0.114 15.27616 15.24094 -8.43345
 4.70 4.60  0.246  0.247  0.247  0.249  0.253 15.47589 15.44120 -8.23312
 4.70 4.80  0.404  0.404  0.405  0.406  0.409 15.67551 15.64164 -8.03268
 4.70 5.00  0.577  0.577  0.578  0.579  0.582 15.87500 15.84223 -7.83209
 4.70 5.20  0.766  0.766  0.766  0.767  0.770 16.07423 16.04305 -7.63125
 4.70 5.40  0.964  0.964  0.964  0.965  0.967 16.27317 16.24414 -7.43013
 4.70 5.60  1.170  1.170  1.170  1.171  1.172 16.47172 16.44570 -7.22865
 4.70 5.80  1.378  1.378  1.378  1.378  1.380 16.66993 16.64764 -7.02683
 4.70 6.00  1.585  1.585  1.585  1.586  1.587 16.86794 16.84973 -6.82478
 4.70 6.25  1.843  1.843  1.843  1.843  1.843 17.11521 17.10249 -6.57190
 4.70 6.50  2.098  2.098  2.098  2.098  2.099 17.36248 17.35526 -6.31903
 4.70 6.75  2.352  2.352  2.352  2.352  2.353 17.61028 17.60753 -6.06685
 4.70 7.00  2.592  2.592  2.592  2.592  2.593 17.85842 17.85944 -5.81503
 4.70 7.25  2.853  2.853  2.853  2.853  2.853 18.10703 18.11077 -5.56361
 4.70 7.50  3.115  3.115  3.115  3.115  3.115 18.35564 18.36211 -5.31220
 4.70 7.75  3.377  3.377  3.377  3.377  3.377 18.60423 18.61352 -5.06080
 4.70 8.00  3.640  3.640  3.640  3.640  3.640 18.85279 18.86498 -4.80939
 4.75-2.00 -0.459 -0.459 -0.459 -0.458 -0.457  8.82711  8.79000-14.88439
 4.75-1.50 -0.459 -0.459 -0.458 -0.458 -0.456  9.32695  9.29004-14.38437
 4.75-1.00 -0.458 -0.458 -0.458 -0.457 -0.455  9.82705  9.79000-13.88439
 4.75-0.50 -0.458 -0.458 -0.458 -0.457 -0.455 10.32695 10.29003-13.38437
 4.75 0.00 -0.457 -0.457 -0.457 -0.456 -0.454 10.82705 10.79000-12.88439
 4.75 0.50 -0.456 -0.456 -0.456 -0.455 -0.453 11.32695 11.29004-12.38437
 4.75 1.00 -0.455 -0.455 -0.455 -0.454 -0.452 11.82705 11.79000-11.88439
 4.75 1.25 -0.454 -0.454 -0.453 -0.453 -0.451 12.07700 12.04002-11.63433
 4.75 1.50 -0.452 -0.452 -0.452 -0.451 -0.449 12.32695 12.29004-11.38426
 4.75 1.75 -0.450 -0.450 -0.450 -0.449 -0.447 12.57697 12.54006-11.13433
 4.75 2.00 -0.447 -0.447 -0.447 -0.446 -0.445 12.82698 12.79007-10.88439
 4.75 2.25 -0.444 -0.444 -0.443 -0.443 -0.441 13.07697 13.04005-10.63434
 4.75 2.50 -0.438 -0.438 -0.438 -0.437 -0.435 13.32695 13.29003-10.38426
 4.75 2.75 -0.429 -0.429 -0.429 -0.428 -0.426 13.57690 13.54012-10.13416
 4.75 3.00 -0.415 -0.415 -0.415 -0.414 -0.411 13.82685 13.79022 -9.88406
 4.75 3.20 -0.397 -0.397 -0.397 -0.396 -0.393 14.02681 13.99023 -9.68405
 4.75 3.40 -0.373 -0.373 -0.372 -0.371 -0.368 14.22677 14.19025 -9.48405
 4.75 3.60 -0.338 -0.338 -0.337 -0.336 -0.333 14.42673 14.39028 -9.28405
 4.75 3.80 -0.292 -0.292 -0.291 -0.290 -0.287 14.62669 14.59035 -9.08405
 4.75 4.00 -0.231 -0.231 -0.231 -0.230 -0.227 14.82666 14.79043 -8.88406
 4.75 4.20 -0.156 -0.156 -0.155 -0.154 -0.150 15.02653 14.99053 -8.68393
 4.75 4.40 -0.063 -0.063 -0.062 -0.060 -0.056 15.22640 15.19065 -8.48380
 4.75 4.60  0.047  0.047  0.048  0.050  0.054 15.42630 15.39076 -8.28367
 4.75 4.80  0.177  0.177  0.177  0.179  0.183 15.62622 15.59087 -8.08353
 4.75 5.00  0.323  0.323  0.323  0.325  0.329 15.82614 15.79099 -7.88339
 4.75 5.20  0.485  0.485  0.485  0.487  0.491 16.02590 15.99123 -7.68312
 4.75 5.40  0.661  0.661  0.662  0.663  0.667 16.22554 16.19159 -7.48272
 4.75 5.60  0.850  0.850  0.851  0.852  0.854 16.42506 16.39209 -7.28217
 4.75 5.80  1.050  1.050  1.051  1.051  1.053 16.62440 16.59282 -7.08140
 4.75 6.00  1.258  1.258  1.258  1.258  1.261 16.82354 16.79379 -6.88042
 4.75 6.25  1.526  1.526  1.526  1.526  1.528 17.07187 17.04554 -6.62876
 4.75 6.50  1.799  1.799  1.799  1.800  1.801 17.31973 17.29776 -6.37665
 4.75 6.75  2.071  2.071  2.071  2.071  2.072 17.56699 17.55064 -6.12380
 4.75 7.00  2.325  2.325  2.325  2.326  2.326 17.81425 17.80353 -5.87096
 4.75 7.25  2.588  2.588  2.588  2.588  2.588 18.06157 18.05625 -5.61822
 4.75 7.50  2.847  2.847  2.847  2.847  2.847 18.30899 18.30878 -5.36562
 4.75 7.75  3.104  3.104  3.104  3.104  3.104 18.55692 18.56086 -5.11349
 4.75 8.00  3.359  3.359  3.359  3.359  3.359 18.80523 18.81258 -4.86170
 4.80-2.00 -0.459 -0.459 -0.459 -0.459 -0.457  8.77706  8.73997-14.93442
 4.80-1.50 -0.459 -0.459 -0.459 -0.458 -0.457  9.27692  9.24005-14.43439
 4.80-1.00 -0.459 -0.459 -0.458 -0.458 -0.456  9.77706  9.73997-13.93442
 4.80-0.50 -0.458 -0.458 -0.458 -0.457 -0.455 10.27692 10.24005-13.43439
 4.80 0.00 -0.458 -0.458 -0.457 -0.457 -0.454 10.77706 10.73997-12.93442
 4.80 0.50 -0.457 -0.457 -0.456 -0.455 -0.453 11.27692 11.24005-12.43439
 4.80 1.00 -0.455 -0.455 -0.455 -0.454 -0.452 11.77699 11.74005-11.93442
 4.80 1.25 -0.454 -0.454 -0.454 -0.453 -0.451 12.02696 11.99005-11.68435
 4.80 1.50 -0.453 -0.453 -0.452 -0.452 -0.450 12.27692 12.24005-11.43427
 4.80 1.75 -0.451 -0.451 -0.451 -0.450 -0.448 12.52696 12.49005-11.18435
 4.80 2.00 -0.449 -0.449 -0.448 -0.448 -0.446 12.77699 12.74005-10.93442
 4.80 2.25 -0.445 -0.445 -0.445 -0.444 -0.442 13.02696 12.99005-10.68436
 4.80 2.50 -0.441 -0.441 -0.440 -0.440 -0.438 13.27692 13.24005-10.43427
 4.80 2.75 -0.434 -0.434 -0.434 -0.433 -0.431 13.52692 13.49013-10.18416
 4.80 3.00 -0.425 -0.425 -0.425 -0.424 -0.422 13.77692 13.74020 -9.93405
 4.80 3.20 -0.415 -0.415 -0.414 -0.414 -0.411 13.97683 13.94025 -9.73409
 4.80 3.40 -0.400 -0.400 -0.399 -0.399 -0.396 14.17674 14.14028 -9.53413
 4.80 3.60 -0.379 -0.379 -0.378 -0.377 -0.374 14.37669 14.34031 -9.33414
 4.80 3.80 -0.349 -0.349 -0.349 -0.347 -0.345 14.57670 14.54034 -9.13410
 4.80 4.00 -0.309 -0.309 -0.309 -0.308 -0.305 14.77670 14.74037 -8.93405
 4.80 4.20 -0.257 -0.257 -0.256 -0.255 -0.252 14.97661 14.94043 -8.73400
 4.80 4.40 -0.190 -0.190 -0.189 -0.188 -0.185 15.17651 15.14051 -8.53395
 4.80 4.60 -0.107 -0.107 -0.106 -0.105 -0.102 15.37645 15.34059 -8.33388
 4.80 4.80 -0.007 -0.007 -0.007 -0.005 -0.002 15.57643 15.54067 -8.13379
 4.80 5.00  0.110  0.110  0.111  0.112  0.116 15.77641 15.74076 -7.93368
 4.80 5.20  0.246  0.246  0.247  0.248  0.252 15.97628 15.94086 -7.73356
 4.80 5.40  0.398  0.398  0.398  0.399  0.403 16.17611 16.14098 -7.53341
 4.80 5.60  0.564  0.564  0.564  0.566  0.570 16.37591 16.34115 -7.33322
 4.80 5.80  0.743  0.743  0.744  0.745  0.748 16.57568 16.54142 -7.13293
 4.80 6.00  0.932  0.933  0.933  0.934  0.936 16.77539 16.74178 -6.93256
 4.80 6.25  1.181  1.181  1.182  1.182  1.184 17.02480 16.99240 -6.68190
 4.80 6.50  1.439  1.439  1.439  1.440  1.441 17.27393 17.24329 -6.43098
 4.80 6.75  1.707  1.707  1.708  1.708  1.709 17.52256 17.49478 -6.17961
 4.80 7.00  1.980  1.980  1.980  1.980  1.981 17.77071 17.74679 -5.92775
 4.80 7.25  2.250  2.250  2.250  2.250  2.250 18.01808 17.99950 -5.67495
 4.80 7.50  2.524  2.524  2.524  2.524  2.524 18.26529 18.25237 -5.42205
 4.80 7.75  2.790  2.790  2.790  2.790  2.790 18.51245 18.50529 -5.16912
 4.80 8.00  3.050  3.050  3.050  3.050  3.051 18.75952 18.75831 -4.91614
 4.85-2.00 -0.459 -0.459 -0.459 -0.459 -0.457  8.72705  8.68993-14.98422
 4.85-1.50 -0.459 -0.459 -0.459 -0.458 -0.457  9.22712  9.19005-14.48439
 4.85-1.00 -0.459 -0.459 -0.459 -0.458 -0.457  9.72705  9.69002-13.98422
 4.85-0.50 -0.458 -0.458 -0.458 -0.458 -0.456 10.22712 10.19005-13.48439
 4.85 0.00 -0.458 -0.458 -0.458 -0.457 -0.455 10.72705 10.69002-12.98422
 4.85 0.50 -0.457 -0.457 -0.457 -0.456 -0.454 11.22711 11.19005-12.48439
 4.85 1.00 -0.456 -0.456 -0.456 -0.455 -0.453 11.72705 11.69002-11.98422
 4.85 1.25 -0.455 -0.455 -0.455 -0.454 -0.453 11.97696 11.94003-11.73431
 4.85 1.50 -0.454 -0.454 -0.454 -0.453 -0.452 12.22686 12.19005-11.48439
 4.85 1.75 -0.453 -0.453 -0.453 -0.452 -0.450 12.47691 12.44008-11.23431
 4.85 2.00 -0.451 -0.451 -0.451 -0.450 -0.448 12.72697 12.69011-10.98422
 4.85 2.25 -0.448 -0.448 -0.448 -0.447 -0.445 12.97692 12.94008-10.73424
 4.85 2.50 -0.444 -0.444 -0.444 -0.443 -0.441 13.22686 13.19005-10.48426
 4.85 2.75 -0.438 -0.438 -0.438 -0.437 -0.435 13.47687 13.44012-10.23425
 4.85 3.00 -0.431 -0.430 -0.430 -0.430 -0.427 13.72689 13.69020 -9.98422
 4.85 3.20 -0.422 -0.422 -0.422 -0.421 -0.418 13.92689 13.89014 -9.78418
 4.85 3.40 -0.412 -0.412 -0.411 -0.411 -0.408 14.12687 14.09008 -9.58415
 4.85 3.60 -0.398 -0.398 -0.397 -0.396 -0.394 14.32683 14.29010 -9.38415
 4.85 3.80 -0.378 -0.378 -0.378 -0.377 -0.374 14.52678 14.49019 -9.18418
 4.85 4.00 -0.352 -0.352 -0.352 -0.351 -0.348 14.72673 14.69028 -8.98422
 4.85 4.20 -0.317 -0.317 -0.316 -0.316 -0.312 14.92668 14.89030 -8.78413
 4.85 4.40 -0.271 -0.271 -0.271 -0.270 -0.266 15.12663 15.09032 -8.58404
 4.85 4.60 -0.212 -0.212 -0.212 -0.210 -0.207 15.32658 15.29036 -8.38396
 4.85 4.80 -0.138 -0.137 -0.137 -0.136 -0.133 15.52653 15.49045 -8.18388
 4.85 5.00 -0.048 -0.048 -0.047 -0.046 -0.043 15.72648 15.69055 -7.98380
 4.85 5.20  0.059  0.059  0.059  0.061  0.064 15.92643 15.89068 -7.78372
 4.85 5.40  0.184  0.184  0.185  0.186  0.189 16.12637 16.09082 -7.58364
 4.85 5.60  0.327  0.327  0.327  0.329  0.331 16.32627 16.29096 -7.38347
 4.85 5.80  0.486  0.486  0.486  0.487  0.490 16.52611 16.49111 -7.18322
 4.85 6.00  0.658  0.658  0.658  0.658  0.661 16.72591 16.69126 -6.98297
 4.85 6.25  0.888  0.888  0.888  0.888  0.891 16.97565 16.94157 -6.73269
 4.85 6.50  1.128  1.128  1.128  1.128  1.130 17.22531 17.19201 -6.48241
 4.85 6.75  1.378  1.378  1.379  1.379  1.380 17.47476 17.44258 -6.23179
 4.85 7.00  1.639  1.639  1.639  1.639  1.640 17.72395 17.69337 -5.98088
 4.85 7.25  1.900  1.900  1.900  1.900  1.900 17.97264 17.94467 -5.72964
 4.85 7.50  2.170  2.170  2.170  2.170  2.171 18.22089 18.19645 -5.47795
 4.85 7.75  2.440  2.440  2.440  2.440  2.440 18.46865 18.44885 -5.22559
 4.85 8.00  2.711  2.711  2.711  2.711  2.711 18.71592 18.70183 -4.97265
 4.90-2.00 -0.459 -0.459 -0.459 -0.459 -0.458  8.67706  8.63998-15.03438
 4.90-1.50 -0.459 -0.459 -0.459 -0.458 -0.457  9.17696  9.13988-14.53447
 4.90-1.00 -0.459 -0.459 -0.459 -0.458 -0.457  9.67706  9.63998-14.03438
 4.90-0.50 -0.458 -0.458 -0.458 -0.458 -0.456 10.17696 10.13988-13.53432
 4.90 0.00 -0.458 -0.458 -0.458 -0.457 -0.456 10.67706 10.63999-13.03433
 4.90 0.50 -0.458 -0.458 -0.457 -0.457 -0.455 11.17696 11.13988-12.53432
 4.90 1.00 -0.457 -0.457 -0.457 -0.456 -0.454 11.67706 11.63998-12.03433
 4.90 1.25 -0.456 -0.456 -0.456 -0.455 -0.454 11.92701 11.88993-11.78433
 4.90 1.50 -0.456 -0.455 -0.455 -0.455 -0.453 12.17696 12.13988-11.53432
 4.90 1.75 -0.455 -0.455 -0.454 -0.454 -0.452 12.42696 12.38998-11.28430
 4.90 2.00 -0.453 -0.453 -0.453 -0.453 -0.451 12.67697 12.64008-11.03428
 4.90 2.25 -0.452 -0.452 -0.451 -0.451 -0.449 12.92696 12.89016-10.78430
 4.90 2.50 -0.449 -0.449 -0.449 -0.448 -0.446 13.17696 13.14019-10.53432
 4.90 2.75 -0.444 -0.444 -0.444 -0.444 -0.442 13.42696 13.39014-10.28425
 4.90 3.00 -0.438 -0.438 -0.438 -0.437 -0.435 13.67697 13.64008-10.03419
 4.90 3.20 -0.431 -0.431 -0.431 -0.430 -0.428 13.87697 13.84013 -9.83418
 4.90 3.40 -0.422 -0.421 -0.421 -0.421 -0.418 14.07696 14.04017 -9.63418
 4.90 3.60 -0.410 -0.410 -0.409 -0.409 -0.406 14.27692 14.24021 -9.43415
 4.90 3.80 -0.394 -0.394 -0.394 -0.393 -0.390 14.47686 14.44025 -9.23410
 4.90 4.00 -0.375 -0.375 -0.374 -0.373 -0.371 14.67679 14.64028 -9.03405
 4.90 4.20 -0.349 -0.349 -0.349 -0.348 -0.345 14.87673 14.84025 -8.83404
 4.90 4.40 -0.317 -0.317 -0.316 -0.316 -0.312 15.07669 15.04021 -8.63403
 4.90 4.60 -0.275 -0.275 -0.274 -0.273 -0.271 15.27666 15.24024 -8.43398
 4.90 4.80 -0.221 -0.221 -0.221 -0.219 -0.217 15.47663 15.44036 -8.23390
 4.90 5.00 -0.154 -0.154 -0.153 -0.152 -0.150 15.67660 15.64048 -8.03381
 4.90 5.20 -0.071 -0.071 -0.071 -0.070 -0.067 15.87652 15.84062 -7.83378
 4.90 5.40  0.027  0.027  0.027  0.028  0.031 16.07643 16.04075 -7.63374
 4.90 5.60  0.144  0.144  0.144  0.145  0.148 16.27634 16.24085 -7.43365
 4.90 5.80  0.279  0.279  0.279  0.281  0.283 16.47624 16.44092 -7.23350
 4.90 6.00  0.431  0.431  0.431  0.432  0.435 16.67615 16.64098 -7.03334
 4.90 6.25  0.641  0.641  0.641  0.642  0.644 16.92599 16.89118 -6.78316
 4.90 6.50  0.869  0.869  0.869  0.870  0.872 17.17580 17.14145 -6.53298
 4.90 6.75  1.101  1.101  1.101  1.102  1.103 17.42548 17.39176 -6.28264
 4.90 7.00  1.351  1.351  1.351  1.352  1.353 17.67505 17.64217 -6.03217
 4.90 7.25  1.604  1.604  1.604  1.604  1.605 17.92451 17.89278 -5.78158
 4.90 7.50  1.863  1.863  1.863  1.863  1.863 18.17377 18.14364 -5.53077
 4.90 7.75  2.123  2.123  2.123  2.123  2.124 18.42250 18.39497 -5.27943
 4.90 8.00  2.388  2.388  2.388  2.388  2.388 18.67080 18.64670 -5.02766
 4.95-2.00 -0.459 -0.459 -0.459 -0.459 -0.458  8.62706  8.58995-15.08439
 4.95-1.50 -0.459 -0.459 -0.459 -0.459 -0.458  9.12710  9.08991-14.58436
 4.95-1.00 -0.459 -0.459 -0.459 -0.458 -0.458  9.62706  9.58995-14.08434
 4.95-0.50 -0.459 -0.459 -0.458 -0.458 -0.457 10.12711 10.08990-13.58436
 4.95 0.00 -0.458 -0.458 -0.458 -0.458 -0.456 10.62706 10.58995-13.08434
 4.95 0.50 -0.458 -0.458 -0.457 -0.457 -0.455 11.12710 11.08991-12.58436
 4.95 1.00 -0.457 -0.457 -0.457 -0.456 -0.455 11.62706 11.59006-12.08434
 4.95 1.25 -0.456 -0.456 -0.456 -0.456 -0.454 11.87708 11.83998-11.83435
 4.95 1.50 -0.456 -0.456 -0.456 -0.455 -0.454 12.12710 12.08991-11.58436
 4.95 1.75 -0.455 -0.455 -0.455 -0.455 -0.453 12.37708 12.33998-11.33432
 4.95 2.00 -0.455 -0.454 -0.454 -0.454 -0.453 12.62706 12.59006-11.08428
 4.95 2.25 -0.453 -0.453 -0.453 -0.453 -0.451 12.87708 12.83998-10.83432
 4.95 2.50 -0.452 -0.452 -0.452 -0.451 -0.450 13.12711 13.08991-10.58436
 4.95 2.75 -0.449 -0.449 -0.449 -0.449 -0.447 13.37704 13.33997-10.33430
 4.95 3.00 -0.445 -0.445 -0.445 -0.445 -0.443 13.62696 13.59006-10.08423
 4.95 3.20 -0.440 -0.440 -0.440 -0.440 -0.438 13.82689 13.79014 -9.88422
 4.95 3.40 -0.433 -0.433 -0.433 -0.433 -0.431 14.02682 13.99022 -9.68420
 4.95 3.60 -0.424 -0.424 -0.424 -0.423 -0.421 14.22680 14.19027 -9.48417
 4.95 3.80 -0.411 -0.411 -0.411 -0.410 -0.408 14.42682 14.39028 -9.28412
 4.95 4.00 -0.395 -0.394 -0.394 -0.393 -0.391 14.62685 14.59028 -9.08407
 4.95 4.20 -0.373 -0.373 -0.373 -0.372 -0.370 14.82683 14.79027 -8.88406
 4.95 4.40 -0.347 -0.347 -0.346 -0.345 -0.343 15.02680 14.99026 -8.68404
 4.95 4.60 -0.313 -0.313 -0.313 -0.312 -0.310 15.22676 15.19031 -8.48399
 4.95 4.80 -0.272 -0.272 -0.272 -0.271 -0.268 15.42671 15.39041 -8.28393
 4.95 5.00 -0.221 -0.221 -0.221 -0.219 -0.217 15.62665 15.59051 -8.08386
 4.95 5.20 -0.157 -0.157 -0.157 -0.156 -0.154 15.82658 15.79055 -7.88380
 4.95 5.40 -0.079 -0.079 -0.079 -0.078 -0.076 16.02650 15.99059 -7.68373
 4.95 5.60  0.014  0.014  0.014  0.015  0.017 16.22642 16.19066 -7.48366
 4.95 5.80  0.125  0.125  0.125  0.126  0.129 16.42633 16.39075 -7.28358
 4.95 6.00  0.254  0.254  0.255  0.255  0.258 16.62624 16.59084 -7.08349
 4.95 6.25  0.441  0.441  0.441  0.442  0.444 16.87602 16.84090 -6.83336
 4.95 6.50  0.650  0.651  0.651  0.652  0.653 17.12581 17.09096 -6.58319
 4.95 6.75  0.866  0.866  0.866  0.867  0.868 17.37566 17.34127 -6.33295
 4.95 7.00  1.107  1.107  1.107  1.107  1.108 17.62552 17.59162 -6.08265
 4.95 7.25  1.353  1.353  1.353  1.354  1.355 17.87524 17.84198 -5.83231
 4.95 7.50  1.606  1.606  1.606  1.606  1.607 18.12483 18.09237 -5.58187
 4.95 7.75  1.859  1.859  1.859  1.860  1.860 18.37415 18.34314 -5.33114
 4.95 8.00  2.116  2.116  2.116  2.116  2.116 18.62325 18.59417 -5.08019
 5.00-2.00 -0.459 -0.459 -0.459 -0.459 -0.458  8.57703  8.53995-15.13436
 5.00-1.50 -0.459 -0.459 -0.459 -0.459 -0.458  9.07700  9.03981-14.63433
 5.00-1.00 -0.459 -0.459 -0.459 -0.459 -0.458  9.57703  9.53995-14.13436
 5.00-0.50 -0.459 -0.459 -0.459 -0.458 -0.458 10.07700 10.03981-13.63433
 5.00 0.00 -0.459 -0.459 -0.459 -0.458 -0.457 10.57703 10.53995-13.13436
 5.00 0.50 -0.458 -0.458 -0.458 -0.458 -0.457 11.07700 11.03981-12.63433
 5.00 1.00 -0.458 -0.458 -0.457 -0.457 -0.456 11.57703 11.53995-12.13430
 5.00 1.25 -0.457 -0.457 -0.457 -0.456 -0.455 11.82702 11.78988-11.88431
 5.00 1.50 -0.456 -0.456 -0.456 -0.456 -0.454 12.07700 12.03981-11.63433
 5.00 1.75 -0.456 -0.456 -0.455 -0.455 -0.454 12.32702 12.28995-11.38431
 5.00 2.00 -0.455 -0.455 -0.455 -0.454 -0.453 12.57703 12.54008-11.13430
 5.00 2.25 -0.454 -0.454 -0.454 -0.454 -0.452 12.82703 12.79017-10.88431
 5.00 2.50 -0.453 -0.453 -0.453 -0.453 -0.451 13.07701 13.04021-10.63433
 5.00 2.75 -0.452 -0.452 -0.452 -0.451 -0.449 13.32696 13.29014-10.38429
 5.00 3.00 -0.449 -0.449 -0.449 -0.449 -0.447 13.57692 13.54008-10.13424
 5.00 3.20 -0.446 -0.446 -0.446 -0.446 -0.443 13.77695 13.74013 -9.93420
 5.00 3.40 -0.442 -0.442 -0.442 -0.441 -0.439 13.97699 13.94018 -9.73416
 5.00 3.60 -0.436 -0.436 -0.436 -0.435 -0.433 14.17700 14.14021 -9.53413
 5.00 3.80 -0.427 -0.427 -0.427 -0.426 -0.424 14.37697 14.34021 -9.33413
 5.00 4.00 -0.415 -0.415 -0.414 -0.414 -0.412 14.57692 14.54020 -9.13413
 5.00 4.20 -0.398 -0.398 -0.398 -0.397 -0.395 14.77681 14.74020 -8.93413
 5.00 4.40 -0.376 -0.376 -0.376 -0.375 -0.373 14.97670 14.94021 -8.73414
 5.00 4.60 -0.348 -0.348 -0.347 -0.347 -0.345 15.17665 15.14026 -8.53410
 5.00 4.80 -0.312 -0.312 -0.312 -0.311 -0.310 15.37667 15.34036 -8.33402
 5.00 5.00 -0.269 -0.269 -0.269 -0.268 -0.267 15.57669 15.54045 -8.13395
 5.00 5.20 -0.217 -0.217 -0.217 -0.216 -0.214 15.77668 15.74052 -7.93387
 5.00 5.40 -0.154 -0.154 -0.153 -0.152 -0.150 15.97666 15.94058 -7.73380
 5.00 5.60 -0.077 -0.077 -0.076 -0.076 -0.074 16.17659 16.14062 -7.53373
 5.00 5.80  0.015  0.015  0.015  0.015  0.017 16.37648 16.34066 -7.33366
 5.00 6.00  0.124  0.124  0.124  0.124  0.126 16.57634 16.54070 -7.13359
 5.00 6.25  0.285  0.285  0.285  0.285  0.287 16.82613 16.79083 -6.88350
 5.00 6.50  0.473  0.473  0.473  0.474  0.475 17.07591 17.04100 -6.63339
 5.00 6.75  0.680  0.681  0.681  0.681  0.682 17.32584 17.29123 -6.38318
 5.00 7.00  0.899  0.899  0.899  0.899  0.900 17.57577 17.54145 -6.13295
 5.00 7.25  1.138  1.138  1.138  1.138  1.139 17.82552 17.79162 -5.88271
 5.00 7.50  1.386  1.386  1.386  1.386  1.386 18.07518 18.04179 -5.63246
 5.00 7.75  1.634  1.634  1.634  1.635  1.635 18.32477 18.29226 -5.38198
 5.00 8.00  1.887  1.887  1.887  1.887  1.887 18.57426 18.54295 -5.13136
 5.05-2.00 -0.458 -0.458 -0.458 -0.458 -0.457  8.52711  8.48996-15.18436
 5.05-1.50 -0.458 -0.458 -0.458 -0.458 -0.457  9.02694  8.98994-14.68445
 5.05-1.00 -0.458 -0.458 -0.458 -0.458 -0.457  9.52711  9.48996-14.18436
 5.05-0.50 -0.458 -0.458 -0.458 -0.458 -0.457 10.02694  9.98994-13.68445
 5.05 0.00 -0.458 -0.458 -0.458 -0.458 -0.457 10.52711 10.48996-13.18436
 5.05 0.50 -0.458 -0.458 -0.458 -0.458 -0.457 11.02694 10.98994-12.68445
 5.05 1.00 -0.458 -0.458 -0.458 -0.458 -0.457 11.52711 11.48996-12.18436
 5.05 1.25 -0.458 -0.458 -0.458 -0.458 -0.456 11.77703 11.73997-11.93440
 5.05 1.50 -0.458 -0.458 -0.457 -0.457 -0.456 12.02694 11.98998-11.68445
 5.05 1.75 -0.457 -0.457 -0.457 -0.457 -0.455 12.27696 12.23997-11.43437
 5.05 2.00 -0.456 -0.456 -0.456 -0.456 -0.455 12.52699 12.48996-11.18429
 5.05 2.25 -0.455 -0.455 -0.455 -0.455 -0.454 12.77696 12.73999-10.93426
 5.05 2.50 -0.455 -0.455 -0.454 -0.454 -0.453 13.02694 12.99003-10.68424
 5.05 2.75 -0.453 -0.453 -0.453 -0.453 -0.452 13.27696 13.24006-10.43423
 5.05 3.00 -0.452 -0.452 -0.452 -0.451 -0.450 13.52699 13.49010-10.18422
 5.05 3.20 -0.450 -0.450 -0.450 -0.449 -0.447 13.72698 13.69009 -9.98423
 5.05 3.40 -0.447 -0.447 -0.447 -0.446 -0.444 13.92696 13.89008 -9.78424
 5.05 3.60 -0.443 -0.443 -0.443 -0.442 -0.441 14.12692 14.09011 -9.58423
 5.05 3.80 -0.438 -0.438 -0.438 -0.437 -0.435 14.32689 14.29017 -9.38420
 5.05 4.00 -0.430 -0.430 -0.430 -0.429 -0.427 14.52686 14.49024 -9.18416
 5.05 4.20 -0.419 -0.419 -0.419 -0.418 -0.416 14.72689 14.69023 -8.98411
 5.05 4.40 -0.403 -0.403 -0.403 -0.403 -0.400 14.92692 14.89021 -8.78406
 5.05 4.60 -0.382 -0.382 -0.382 -0.381 -0.379 15.12690 15.09024 -8.58402
 5.05 4.80 -0.354 -0.354 -0.353 -0.353 -0.350 15.32681 15.29031 -8.38399
 5.05 5.00 -0.317 -0.317 -0.317 -0.316 -0.314 15.52673 15.49038 -8.18396
 5.05 5.20 -0.272 -0.272 -0.272 -0.271 -0.269 15.72665 15.69040 -7.98390
 5.05 5.40 -0.217 -0.217 -0.217 -0.216 -0.214 15.92657 15.89042 -7.78385
 5.05 5.60 -0.151 -0.151 -0.151 -0.150 -0.148 16.12652 16.09048 -7.58380
 5.05 5.80 -0.072 -0.072 -0.072 -0.071 -0.069 16.32650 16.29057 -7.38374
 5.05 6.00  0.021  0.021  0.021  0.022  0.023 16.52647 16.49066 -7.18369
 5.05 6.25  0.161  0.161  0.161  0.162  0.163 16.77630 16.74077 -6.93355
 5.05 6.50  0.328  0.328  0.328  0.329  0.330 17.02612 16.99087 -6.68340
 5.05 6.75  0.521  0.521  0.521  0.521  0.522 17.27604 17.24104 -6.43325
 5.05 7.00  0.719  0.719  0.719  0.720  0.720 17.52595 17.49122 -6.18310
 5.05 7.25  0.949  0.949  0.949  0.950  0.950 17.77563 17.74141 -5.93294
 5.05 7.50  1.190  1.190  1.190  1.191  1.191 18.02530 17.99162 -5.68277
 5.05 7.75  1.435  1.435  1.435  1.435  1.436 18.27503 18.24195 -5.43243
 5.05 8.00  1.686  1.686  1.686  1.686  1.686 18.52479 18.49234 -5.18197
 5.10-2.00 -0.457 -0.457 -0.457 -0.457 -0.456  8.47712  8.43996-15.23441
 5.10-1.50 -0.457 -0.457 -0.457 -0.457 -0.456  8.97704  8.93992-14.73448
 5.10-1.00 -0.457 -0.457 -0.457 -0.457 -0.456  9.47712  9.43996-14.23433
 5.10-0.50 -0.457 -0.457 -0.457 -0.457 -0.456  9.97704  9.93992-13.73448
 5.10 0.00 -0.457 -0.457 -0.457 -0.457 -0.456 10.47712 10.43996-13.23433
 5.10 0.50 -0.457 -0.457 -0.457 -0.457 -0.456 10.97704 10.93997-12.73448
 5.10 1.00 -0.457 -0.457 -0.457 -0.457 -0.456 11.47712 11.43996-12.23433
 5.10 1.25 -0.457 -0.457 -0.457 -0.457 -0.456 11.72706 11.68997-11.98440
 5.10 1.50 -0.457 -0.457 -0.457 -0.457 -0.456 11.97699 11.93997-11.73448
 5.10 1.75 -0.457 -0.457 -0.457 -0.456 -0.455 12.22698 12.18997-11.48440
 5.10 2.00 -0.456 -0.456 -0.456 -0.456 -0.455 12.47698 12.43996-11.23433
 5.10 2.25 -0.456 -0.456 -0.456 -0.456 -0.455 12.72698 12.68998-10.98428
 5.10 2.50 -0.455 -0.455 -0.455 -0.455 -0.454 12.97699 12.94002-10.73424
 5.10 2.75 -0.455 -0.455 -0.455 -0.454 -0.454 13.22699 13.19007-10.48425
 5.10 3.00 -0.454 -0.454 -0.454 -0.453 -0.453 13.47698 13.44012-10.23426
 5.10 3.20 -0.453 -0.453 -0.453 -0.452 -0.451 13.67695 13.64010-10.03425
 5.10 3.40 -0.451 -0.451 -0.451 -0.451 -0.450 13.87692 13.84008 -9.83425
 5.10 3.60 -0.449 -0.449 -0.449 -0.448 -0.447 14.07692 14.04008 -9.63423
 5.10 3.80 -0.446 -0.446 -0.445 -0.445 -0.443 14.27695 14.24010 -9.43421
 5.10 4.00 -0.440 -0.440 -0.440 -0.439 -0.438 14.47698 14.44012 -9.23418
 5.10 4.20 -0.433 -0.433 -0.433 -0.433 -0.431 14.67691 14.64014 -9.03421
 5.10 4.40 -0.424 -0.424 -0.424 -0.423 -0.421 14.87684 14.84016 -8.83423
 5.10 4.60 -0.410 -0.409 -0.409 -0.408 -0.407 15.07681 15.04019 -8.63420
 5.10 4.80 -0.390 -0.389 -0.389 -0.389 -0.387 15.27682 15.24024 -8.43412
 5.10 5.00 -0.362 -0.362 -0.362 -0.362 -0.360 15.47683 15.44028 -8.23403
 5.10 5.20 -0.327 -0.327 -0.327 -0.326 -0.325 15.67675 15.64031 -8.03402
 5.10 5.40 -0.281 -0.281 -0.281 -0.280 -0.279 15.87667 15.84035 -7.83401
 5.10 5.60 -0.224 -0.224 -0.224 -0.223 -0.222 16.07661 16.04041 -7.63395
 5.10 5.80 -0.155 -0.155 -0.155 -0.154 -0.153 16.27658 16.24050 -7.43384
 5.10 6.00 -0.072 -0.072 -0.072 -0.072 -0.071 16.47654 16.44059 -7.23374
 5.10 6.25  0.051  0.051  0.051  0.051  0.052 16.72642 16.69068 -6.98363
 5.10 6.50  0.200  0.200  0.201  0.201  0.202 16.97631 16.94077 -6.73353
 5.10 6.75  0.376  0.376  0.376  0.376  0.377 17.22621 17.19091 -6.48342
 5.10 7.00  0.567  0.567  0.567  0.567  0.568 17.47611 17.44107 -6.23329
 5.10 7.25  0.781  0.781  0.781  0.782  0.782 17.72589 17.69123 -5.98307
 5.10 7.50  1.015  1.015  1.015  1.015  1.016 17.97566 17.94141 -5.73283
 5.10 7.75  1.256  1.256  1.256  1.256  1.256 18.22545 18.19168 -5.48258
 5.10 8.00  1.503  1.503  1.503  1.503  1.504 18.47524 18.44201 -5.23233
 5.15-2.00 -0.455 -0.455 -0.455 -0.455 -0.454  8.42716  8.38987-15.28441
 5.15-1.50 -0.455 -0.455 -0.455 -0.455 -0.454  8.92706  8.88992-14.78436
 5.15-1.00 -0.455 -0.455 -0.455 -0.455 -0.454  9.42700  9.39005-14.28433
 5.15-0.50 -0.455 -0.455 -0.455 -0.455 -0.454  9.92706  9.88992-13.78436
 5.15 0.00 -0.455 -0.455 -0.455 -0.455 -0.454 10.42700 10.39005-13.28433
 5.15 0.50 -0.455 -0.455 -0.455 -0.455 -0.454 10.92701 10.88992-12.78436
 5.15 1.00 -0.455 -0.455 -0.455 -0.455 -0.454 11.42700 11.39005-12.28433
 5.15 1.25 -0.455 -0.455 -0.455 -0.455 -0.454 11.67701 11.64001-12.03435
 5.15 1.50 -0.455 -0.455 -0.455 -0.455 -0.454 11.92701 11.88997-11.78436
 5.15 1.75 -0.455 -0.455 -0.455 -0.454 -0.454 12.17701 12.14001-11.53435
 5.15 2.00 -0.455 -0.455 -0.455 -0.454 -0.454 12.42700 12.39005-11.28433
 5.15 2.25 -0.455 -0.455 -0.454 -0.454 -0.454 12.67698 12.64001-11.03435
 5.15 2.50 -0.454 -0.454 -0.454 -0.454 -0.454 12.92696 12.88997-10.78436
 5.15 2.75 -0.454 -0.454 -0.454 -0.454 -0.453 13.17698 13.14001-10.53431
 5.15 3.00 -0.454 -0.454 -0.454 -0.453 -0.453 13.42700 13.39005-10.28425
 5.15 3.20 -0.453 -0.453 -0.453 -0.453 -0.452 13.62696 13.59004-10.08429
 5.15 3.40 -0.452 -0.452 -0.452 -0.452 -0.451 13.82693 13.79003 -9.88434
 5.15 3.60 -0.451 -0.451 -0.451 -0.451 -0.450 14.02693 13.99003 -9.68432
 5.15 3.80 -0.450 -0.450 -0.450 -0.449 -0.448 14.22696 14.19004 -9.48424
 5.15 4.00 -0.447 -0.447 -0.447 -0.446 -0.445 14.42700 14.39005 -9.28416
 5.15 4.20 -0.443 -0.443 -0.443 -0.442 -0.441 14.62694 14.59009 -9.08413
 5.15 4.40 -0.437 -0.437 -0.437 -0.436 -0.435 14.82689 14.79012 -8.88411
 5.15 4.60 -0.429 -0.429 -0.429 -0.428 -0.427 15.02685 14.99016 -8.68409
 5.15 4.80 -0.416 -0.416 -0.416 -0.416 -0.414 15.22684 15.19019 -8.48408
 5.15 5.00 -0.399 -0.399 -0.398 -0.398 -0.397 15.42684 15.39023 -8.28408
 5.15 5.20 -0.374 -0.374 -0.374 -0.374 -0.372 15.62676 15.59026 -8.08409
 5.15 5.40 -0.341 -0.341 -0.341 -0.340 -0.338 15.82669 15.79029 -7.88409
 5.15 5.60 -0.297 -0.297 -0.297 -0.296 -0.294 16.02662 15.99037 -7.68404
 5.15 5.80 -0.240 -0.240 -0.240 -0.240 -0.238 16.22656 16.19047 -7.48394
 5.15 6.00 -0.170 -0.170 -0.170 -0.170 -0.167 16.42651 16.39058 -7.28383
 5.15 6.25 -0.062 -0.062 -0.062 -0.061 -0.060 16.67645 16.64062 -7.03370
 5.15 6.50  0.070  0.070  0.070  0.071  0.072 16.92639 16.89065 -6.78357
 5.15 6.75  0.229  0.229  0.229  0.229  0.231 17.17631 17.14079 -6.53349
 5.15 7.00  0.412  0.412  0.412  0.412  0.414 17.42619 17.39094 -6.28341
 5.15 7.25  0.605  0.605  0.605  0.605  0.606 17.67602 17.64109 -6.03325
 5.15 7.50  0.829  0.829  0.829  0.830  0.830 17.92583 17.89126 -5.78304
 5.15 7.75  1.065  1.065  1.065  1.065  1.066 18.17561 18.14151 -5.53282
 5.15 8.00  1.309  1.309  1.309  1.309  1.309 18.42537 18.39182 -5.28258
 5.20-2.00 -0.452 -0.452 -0.451 -0.451 -0.450  8.37712  8.34005-15.33433
 5.20-1.50 -0.452 -0.452 -0.451 -0.451 -0.450  8.87703  8.83992-14.83446
 5.20-1.00 -0.452 -0.452 -0.452 -0.451 -0.450  9.37712  9.34005-14.33433
 5.20-0.50 -0.452 -0.452 -0.451 -0.451 -0.450  9.87703  9.83992-13.83446
 5.20 0.00 -0.452 -0.452 -0.452 -0.451 -0.450 10.37712 10.34005-13.33433
 5.20 0.50 -0.452 -0.452 -0.452 -0.451 -0.450 10.87703 10.83992-12.83446
 5.20 1.00 -0.452 -0.452 -0.452 -0.451 -0.450 11.37712 11.34005-12.33433
 5.20 1.25 -0.452 -0.452 -0.452 -0.451 -0.450 11.62708 11.59001-12.08439
 5.20 1.50 -0.452 -0.452 -0.452 -0.451 -0.450 11.87703 11.83998-11.83446
 5.20 1.75 -0.452 -0.452 -0.452 -0.451 -0.450 12.12708 12.09001-11.58439
 5.20 2.00 -0.452 -0.452 -0.451 -0.451 -0.450 12.37712 12.34005-11.33432
 5.20 2.25 -0.452 -0.452 -0.451 -0.451 -0.450 12.62705 12.59001-11.08439
 5.20 2.50 -0.451 -0.451 -0.451 -0.451 -0.450 12.87697 12.83998-10.83446
 5.20 2.75 -0.451 -0.451 -0.451 -0.451 -0.450 13.12695 13.09001-10.58440
 5.20 3.00 -0.451 -0.451 -0.451 -0.451 -0.450 13.37694 13.34005-10.33433
 5.20 3.20 -0.451 -0.451 -0.451 -0.450 -0.450 13.57695 13.54005-10.13426
 5.20 3.40 -0.450 -0.450 -0.450 -0.450 -0.449 13.77696 13.74004 -9.93420
 5.20 3.60 -0.450 -0.450 -0.450 -0.449 -0.449 13.97697 13.94004 -9.73418
 5.20 3.80 -0.449 -0.449 -0.449 -0.448 -0.448 14.17696 14.14005 -9.53420
 5.20 4.00 -0.447 -0.447 -0.447 -0.447 -0.446 14.37694 14.34005 -9.33423
 5.20 4.20 -0.446 -0.446 -0.445 -0.445 -0.445 14.57691 14.54006 -9.13420
 5.20 4.40 -0.443 -0.443 -0.443 -0.442 -0.441 14.77687 14.74009 -8.93418
 5.20 4.60 -0.438 -0.438 -0.438 -0.438 -0.437 14.97683 14.94014 -8.73415
 5.20 4.80 -0.431 -0.431 -0.431 -0.431 -0.430 15.17680 15.14019 -8.53414
 5.20 5.00 -0.421 -0.421 -0.421 -0.421 -0.420 15.37676 15.34025 -8.33414
 5.20 5.20 -0.406 -0.406 -0.406 -0.406 -0.405 15.57675 15.54027 -8.13415
 5.20 5.40 -0.386 -0.386 -0.386 -0.385 -0.384 15.77674 15.74028 -7.93416
 5.20 5.60 -0.356 -0.356 -0.356 -0.355 -0.354 15.97670 15.94032 -7.73410
 5.20 5.80 -0.316 -0.316 -0.316 -0.315 -0.313 16.17664 16.14038 -7.53398
 5.20 6.00 -0.262 -0.262 -0.262 -0.262 -0.261 16.37658 16.34044 -7.33386
 5.20 6.25 -0.177 -0.176 -0.176 -0.176 -0.174 16.62651 16.59052 -7.08386
 5.20 6.50 -0.064 -0.064 -0.064 -0.064 -0.062 16.87645 16.84061 -6.83387
 5.20 6.75  0.073  0.073  0.073  0.074  0.075 17.12633 17.09072 -6.58367
 5.20 7.00  0.237  0.237  0.237  0.238  0.239 17.37621 17.34084 -6.33348
 5.20 7.25  0.412  0.412  0.412  0.413  0.414 17.62610 17.59097 -6.08338
 5.20 7.50  0.623  0.623  0.623  0.624  0.624 17.87599 17.84111 -5.83327
 5.20 7.75  0.848  0.848  0.848  0.848  0.849 18.12584 18.09134 -5.58308
 5.20 8.00  1.085  1.085  1.085  1.085  1.086 18.37566 18.34163 -5.33283
 5.25-2.00 -0.446 -0.446 -0.446 -0.446 -0.445  8.32716  8.29004-15.38437
 5.25-1.50 -0.446 -0.446 -0.446 -0.446 -0.445  8.82705  8.78993-14.88439
 5.25-1.00 -0.446 -0.446 -0.446 -0.446 -0.445  9.32715  9.29004-14.38437
 5.25-0.50 -0.446 -0.446 -0.446 -0.446 -0.445  9.82705  9.78993-13.88439
 5.25 0.00 -0.446 -0.446 -0.446 -0.446 -0.445 10.32716 10.29003-13.38437
 5.25 0.50 -0.446 -0.446 -0.446 -0.446 -0.445 10.82705 10.78993-12.88439
 5.25 1.00 -0.446 -0.446 -0.446 -0.446 -0.445 11.32716 11.29004-12.38437
 5.25 1.25 -0.446 -0.446 -0.446 -0.446 -0.445 11.57710 11.53998-12.13438
 5.25 1.50 -0.446 -0.446 -0.446 -0.446 -0.445 11.82705 11.78993-11.88439
 5.25 1.75 -0.446 -0.446 -0.446 -0.446 -0.445 12.07700 12.03998-11.63438
 5.25 2.00 -0.446 -0.446 -0.446 -0.446 -0.445 12.32695 12.29004-11.38437
 5.25 2.25 -0.446 -0.446 -0.446 -0.446 -0.445 12.57697 12.54002-11.13438
 5.25 2.50 -0.446 -0.446 -0.446 -0.446 -0.445 12.82698 12.79000-10.88439
 5.25 2.75 -0.446 -0.446 -0.446 -0.446 -0.445 13.07697 13.04002-10.63433
 5.25 3.00 -0.446 -0.446 -0.446 -0.446 -0.445 13.32695 13.29003-10.38426
 5.25 3.20 -0.446 -0.446 -0.446 -0.445 -0.445 13.52696 13.49002-10.18431
 5.25 3.40 -0.446 -0.446 -0.445 -0.445 -0.445 13.72698 13.69001 -9.98436
 5.25 3.60 -0.445 -0.445 -0.445 -0.445 -0.444 13.92698 13.89001 -9.78436
 5.25 3.80 -0.445 -0.445 -0.445 -0.445 -0.444 14.12697 14.09002 -9.58431
 5.25 4.00 -0.444 -0.444 -0.444 -0.444 -0.443 14.32695 14.29004 -9.38426
 5.25 4.20 -0.443 -0.443 -0.443 -0.443 -0.442 14.52691 14.49005 -9.18431
 5.25 4.40 -0.442 -0.442 -0.442 -0.442 -0.441 14.72687 14.69007 -8.98436
 5.25 4.60 -0.440 -0.440 -0.439 -0.439 -0.439 14.92687 14.89011 -8.78434
 5.25 4.80 -0.436 -0.436 -0.436 -0.436 -0.435 15.12691 15.09018 -8.58425
 5.25 5.00 -0.431 -0.431 -0.431 -0.430 -0.429 15.32695 15.29026 -8.38416
 5.25 5.20 -0.422 -0.422 -0.422 -0.422 -0.421 15.52686 15.49027 -8.18412
 5.25 5.40 -0.410 -0.410 -0.410 -0.410 -0.409 15.72677 15.69028 -7.98408
 5.25 5.60 -0.392 -0.392 -0.392 -0.392 -0.391 15.92673 15.89032 -7.78404
 5.25 5.80 -0.367 -0.367 -0.367 -0.366 -0.366 16.12674 16.09040 -7.58399
 5.25 6.00 -0.332 -0.332 -0.332 -0.332 -0.331 16.32675 16.29048 -7.38395
 5.25 6.25 -0.271 -0.271 -0.271 -0.271 -0.270 16.57664 16.54049 -7.13383
 5.25 6.50 -0.187 -0.187 -0.187 -0.187 -0.186 16.82653 16.79050 -6.88372
 5.25 6.75 -0.078 -0.078 -0.078 -0.078 -0.076 17.07643 17.04059 -6.63368
 5.25 7.00  0.057  0.057  0.057  0.058  0.059 17.32634 17.29070 -6.38363
 5.25 7.25  0.217  0.217  0.217  0.218  0.219 17.57622 17.54083 -6.13353
 5.25 7.50  0.397  0.397  0.397  0.397  0.398 17.82607 17.79099 -5.88339
 5.25 7.75  0.602  0.602  0.602  0.603  0.604 18.07591 18.04117 -5.63322
 5.25 8.00  0.825  0.825  0.825  0.825  0.826 18.32572 18.29137 -5.38300
 5.30-2.00 -0.439 -0.439 -0.439 -0.438 -0.438  8.27715  8.24005-15.43439
 5.30-1.50 -0.439 -0.439 -0.439 -0.438 -0.438  8.77706  8.73989-14.93442
 5.30-1.00 -0.439 -0.439 -0.439 -0.438 -0.438  9.27715  9.24005-14.43439
 5.30-0.50 -0.439 -0.439 -0.439 -0.438 -0.438  9.77706  9.73997-13.93442
 5.30 0.00 -0.439 -0.439 -0.439 -0.438 -0.438 10.27715 10.24005-13.43439
 5.30 0.50 -0.439 -0.439 -0.439 -0.438 -0.438 10.77706 10.73997-12.93442
 5.30 1.00 -0.439 -0.439 -0.439 -0.438 -0.438 11.27715 11.24005-12.43439
 5.30 1.25 -0.439 -0.439 -0.439 -0.438 -0.438 11.52707 11.49001-12.18440
 5.30 1.50 -0.439 -0.439 -0.439 -0.438 -0.438 11.77699 11.73997-11.93442
 5.30 1.75 -0.439 -0.439 -0.439 -0.438 -0.438 12.02707 11.99001-11.68440
 5.30 2.00 -0.439 -0.439 -0.439 -0.438 -0.438 12.27715 12.24005-11.43439
 5.30 2.25 -0.439 -0.439 -0.439 -0.438 -0.438 12.52707 12.49001-11.18440
 5.30 2.50 -0.439 -0.439 -0.439 -0.438 -0.438 12.77699 12.73997-10.93442
 5.30 2.75 -0.439 -0.439 -0.439 -0.438 -0.438 13.02694 12.99001-10.68435
 5.30 3.00 -0.439 -0.439 -0.439 -0.438 -0.438 13.27692 13.24005-10.43427
 5.30 3.20 -0.439 -0.439 -0.439 -0.438 -0.438 13.47695 13.44005-10.23433
 5.30 3.40 -0.439 -0.439 -0.438 -0.438 -0.438 13.67698 13.64005-10.03439
 5.30 3.60 -0.438 -0.438 -0.438 -0.438 -0.437 13.87698 13.84005 -9.83439
 5.30 3.80 -0.438 -0.438 -0.438 -0.438 -0.437 14.07695 14.04005 -9.63433
 5.30 4.00 -0.438 -0.438 -0.438 -0.438 -0.437 14.27692 14.24005 -9.43427
 5.30 4.20 -0.437 -0.437 -0.437 -0.437 -0.436 14.47692 14.44007 -9.23433
 5.30 4.40 -0.437 -0.437 -0.437 -0.436 -0.436 14.67692 14.64011 -9.03439
 5.30 4.60 -0.435 -0.435 -0.435 -0.435 -0.434 14.87692 14.84016 -8.83437
 5.30 4.80 -0.434 -0.434 -0.434 -0.433 -0.433 15.07692 15.04023 -8.63426
 5.30 5.00 -0.431 -0.431 -0.431 -0.431 -0.430 15.27692 15.24030 -8.43415
 5.30 5.20 -0.426 -0.426 -0.426 -0.426 -0.425 15.47686 15.44026 -8.23410
 5.30 5.40 -0.420 -0.420 -0.419 -0.419 -0.418 15.67680 15.64022 -8.03406
 5.30 5.60 -0.409 -0.409 -0.409 -0.409 -0.408 15.87676 15.84022 -7.83404
 5.30 5.80 -0.395 -0.395 -0.395 -0.394 -0.394 16.07673 16.04025 -7.63403
 5.30 6.00 -0.373 -0.373 -0.373 -0.373 -0.372 16.27669 16.24030 -7.43403
 5.30 6.25 -0.335 -0.335 -0.335 -0.335 -0.334 16.52662 16.49037 -7.18404
 5.30 6.50 -0.278 -0.278 -0.278 -0.278 -0.277 16.77656 16.74044 -6.93405
 5.30 6.75 -0.200 -0.200 -0.200 -0.199 -0.198 17.02651 16.99050 -6.68387
 5.30 7.00 -0.096 -0.096 -0.096 -0.096 -0.095 17.27646 17.24055 -6.43368
 5.30 7.25  0.031  0.031  0.031  0.032  0.033 17.52633 17.49067 -6.18349
 5.30 7.50  0.176  0.176  0.177  0.177  0.178 17.77619 17.74084 -5.93330
 5.30 7.75  0.354  0.354  0.354  0.354  0.355 18.02609 17.99105 -5.68318
 5.30 8.00  0.551  0.551  0.551  0.552  0.552 18.27600 18.24130 -5.43309
