 ROSSELAND MASS ABSORPTION COEFFICIENTS [-0.2]
 logT logP  0km/s  1km/s  2km/s  4km/s  8km/s  log Ne   log Na  log rho IPloCM-1
 3.32-2.00 -5.320 -5.310 -5.293 -5.266 -5.232  5.12024 10.54008-13.12884   0.002
 3.32-1.50 -5.347 -5.335 -5.318 -5.288 -5.254  5.54802 11.04100-12.62801   0.003
 3.32-1.00 -5.384 -5.371 -5.352 -5.322 -5.287  5.95828 11.54394-12.12511   0.005
 3.32-0.50 -5.422 -5.409 -5.389 -5.358 -5.323  6.36324 12.05231-11.61690   0.008
 3.32 0.00 -5.446 -5.432 -5.412 -5.381 -5.346  6.78197 12.57345-11.09550   0.013
 3.32 0.50 -5.445 -5.431 -5.411 -5.380 -5.344  7.22402 13.11461-10.55440   0.021
 3.32 1.00 -5.427 -5.414 -5.394 -5.362 -5.326  7.65830 13.66811-10.00087   0.035
 3.32 1.25 -5.416 -5.403 -5.383 -5.352 -5.316  7.85808 13.94321 -9.72583   0.044
 3.32 1.50 -5.405 -5.391 -5.372 -5.341 -5.306  8.04688 14.21643 -9.45272   0.055
 3.32 1.75 -5.390 -5.377 -5.358 -5.329 -5.294  8.22347 14.48531 -9.18367   0.067
 3.32 2.00 -5.373 -5.361 -5.342 -5.314 -5.280  8.39322 14.75089 -8.91793   0.082
 3.32 2.25 -5.351 -5.339 -5.322 -5.295 -5.262  8.55658 15.01312 -8.65578   0.099
 3.32 2.50 -5.325 -5.313 -5.296 -5.271 -5.240  8.71933 15.27277 -8.39621   0.119
 3.32 2.75 -5.290 -5.279 -5.264 -5.240 -5.211  8.88174 15.53022 -8.13880   0.143
 3.32 3.00 -5.249 -5.239 -5.224 -5.202 -5.174  9.04415 15.78597 -7.88306   0.173
 3.32 3.20 -5.209 -5.199 -5.186 -5.165 -5.138  9.17668 15.98951 -7.67951   0.202
 3.32 3.40 -5.163 -5.154 -5.142 -5.122 -5.097  9.30921 16.19239 -7.47662   0.235
 3.32 3.60 -5.111 -5.103 -5.092 -5.073 -5.050  9.44165 16.39465 -7.27432   0.274
 3.32 3.80 -5.053 -5.045 -5.035 -5.018 -4.996  9.57359 16.59650 -7.07244   0.319
 3.32 4.00 -4.988 -4.982 -4.973 -4.958 -4.937  9.70501 16.79796 -6.87095   0.371
 3.32 4.20 -4.926 -4.920 -4.911 -4.896 -4.876  9.83252 16.99908 -6.66984   0.430
 3.32 4.40 -4.858 -4.853 -4.844 -4.830 -4.809  9.95710 17.20000 -6.46893   0.496
 3.32 4.60 -4.788 -4.782 -4.774 -4.760 -4.739 10.07820 17.40075 -6.26820   0.570
 3.32 4.80 -4.714 -4.709 -4.701 -4.686 -4.666 10.19582 17.60139 -6.06759   0.652
 3.32 5.00 -4.633 -4.628 -4.620 -4.606 -4.585 10.31048 17.80188 -5.86710   0.744
 3.32 5.20 -4.546 -4.540 -4.532 -4.518 -4.498 10.42234 18.00217 -5.66675   0.846
 3.32 5.40 -4.447 -4.442 -4.434 -4.421 -4.401 10.53213 18.20243 -5.46646   0.960
 3.32 5.60 -4.336 -4.331 -4.324 -4.311 -4.292 10.63993 18.40267 -5.26620   1.087
 3.32 5.80 -4.209 -4.205 -4.198 -4.186 -4.168 10.74631 18.60291 -5.06599   1.229
 3.32 6.00 -4.063 -4.059 -4.053 -4.042 -4.026 10.85138 18.80312 -4.86582   1.387
 3.32 6.25 -3.847 -3.844 -3.839 -3.829 -3.815 10.98126 19.05316 -4.61577   1.611
 3.32 6.50 -3.584 -3.582 -3.578 -3.570 -3.558 11.10992 19.30320 -4.36573   1.868
 3.32 6.75 -3.266 -3.264 -3.261 -3.255 -3.246 11.23762 19.55333 -4.11561   2.164
 3.32 7.00 -3.061 -3.060 -3.057 -3.052 -3.045 11.36455 19.80346 -3.86550   2.504
 3.32 7.25 -2.950 -2.948 -2.946 -2.941 -2.935 11.49088 20.05356 -3.61544   2.896
 3.32 7.50 -2.843 -2.841 -2.839 -2.835 -2.829 11.61658 20.30363 -3.36542   3.348
 3.32 7.75 -2.740 -2.738 -2.736 -2.733 -2.728 11.74168 20.55364 -3.11544   3.867
 3.32 8.00 -2.641 -2.639 -2.637 -2.634 -2.629 11.86617 20.80359 -2.86550   4.462
 3.34-2.00 -5.251 -5.242 -5.226 -5.200 -5.166  5.18526 10.51970-13.14923   0.002
 3.34-1.50 -5.267 -5.256 -5.239 -5.211 -5.175  5.62900 11.01995-12.64898   0.003
 3.34-1.00 -5.283 -5.271 -5.252 -5.221 -5.184  6.06296 11.52088-12.14807   0.005
 3.34-0.50 -5.303 -5.290 -5.269 -5.236 -5.198  6.47900 12.02366-11.64532   0.009
 3.34 0.00 -5.317 -5.302 -5.280 -5.247 -5.207  6.88587 12.53173-11.13727   0.014
 3.34 0.50 -5.306 -5.291 -5.269 -5.234 -5.195  7.29951 13.05231-10.61654   0.023
 3.34 1.00 -5.260 -5.244 -5.222 -5.187 -5.147  7.73448 13.59306-10.07588   0.037
 3.34 1.25 -5.226 -5.211 -5.189 -5.154 -5.115  7.95208 13.86975 -9.79923   0.048
 3.34 1.50 -5.191 -5.176 -5.154 -5.120 -5.081  8.16967 14.14644 -9.52259   0.062
 3.34 1.75 -5.156 -5.141 -5.120 -5.087 -5.049  8.37239 14.42163 -9.24737   0.078
 3.34 2.00 -5.123 -5.109 -5.088 -5.057 -5.020  8.56455 14.69504 -8.97388   0.097
 3.34 2.25 -5.091 -5.077 -5.057 -5.027 -4.991  8.74371 14.96414 -8.70479   0.120
 3.34 2.50 -5.059 -5.045 -5.026 -4.998 -4.963  8.91503 15.22994 -8.43902   0.146
 3.34 2.75 -5.024 -5.011 -4.993 -4.966 -4.933  9.07929 15.49238 -8.17665   0.176
 3.34 3.00 -4.986 -4.974 -4.957 -4.931 -4.900  9.24130 15.75220 -7.91686   0.212
 3.34 3.20 -4.950 -4.939 -4.923 -4.899 -4.869  9.36960 15.95835 -7.71066   0.246
 3.34 3.40 -4.911 -4.900 -4.885 -4.863 -4.835  9.49790 16.16341 -7.50555   0.285
 3.34 3.60 -4.865 -4.856 -4.842 -4.821 -4.795  9.62703 16.36744 -7.30147   0.331
 3.34 3.80 -4.813 -4.805 -4.793 -4.774 -4.749  9.75699 16.57074 -7.09814   0.385
 3.34 4.00 -4.755 -4.749 -4.739 -4.722 -4.698  9.88694 16.77335 -6.89551   0.447
 3.34 4.20 -4.701 -4.694 -4.685 -4.668 -4.645 10.01662 16.97531 -6.69353   0.519
 3.34 4.40 -4.642 -4.636 -4.626 -4.610 -4.588 10.14586 17.17693 -6.49192   0.602
 3.34 4.60 -4.583 -4.577 -4.568 -4.552 -4.530 10.27350 17.37827 -6.29065   0.697
 3.34 4.80 -4.524 -4.518 -4.509 -4.493 -4.471 10.39795 17.57940 -6.08959   0.804
 3.34 5.00 -4.462 -4.456 -4.448 -4.432 -4.411 10.51983 17.78032 -5.88874   0.925
 3.34 5.20 -4.401 -4.395 -4.387 -4.372 -4.350 10.63810 17.98097 -5.68809   1.060
 3.34 5.40 -4.337 -4.332 -4.323 -4.309 -4.288 10.75363 18.18150 -5.48755   1.211
 3.34 5.60 -4.272 -4.267 -4.259 -4.245 -4.224 10.86634 18.38193 -5.28709   1.379
 3.34 5.80 -4.205 -4.200 -4.193 -4.179 -4.159 10.97680 18.58228 -5.08670   1.566
 3.34 6.00 -4.137 -4.132 -4.125 -4.112 -4.092 11.08529 18.78255 -4.88639   1.775
 3.34 6.25 -4.051 -4.046 -4.039 -4.027 -4.008 11.21867 19.03270 -4.63622   2.069
 3.34 6.50 -3.963 -3.959 -3.952 -3.940 -3.922 11.35005 19.28285 -4.38605   2.407
 3.34 6.75 -3.874 -3.870 -3.864 -3.853 -3.836 11.47975 19.53305 -4.13589   2.795
 3.34 7.00 -3.785 -3.781 -3.776 -3.765 -3.749 11.60821 19.78326 -3.88572   3.240
 3.34 7.25 -3.696 -3.692 -3.687 -3.677 -3.662 11.73575 20.03328 -3.63568   3.752
 3.34 7.50 -3.607 -3.603 -3.598 -3.588 -3.575 11.86243 20.28330 -3.38563   4.341
 3.34 7.75 -3.517 -3.514 -3.509 -3.500 -3.488 11.98840 20.53337 -3.13553   5.018
 3.34 8.00 -3.428 -3.425 -3.420 -3.412 -3.401 12.11361 20.78348 -2.88539   5.796
 3.36-2.00 -5.145 -5.136 -5.121 -5.095 -5.062  5.31112 10.49969-13.16935   0.002
 3.36-1.50 -5.190 -5.181 -5.164 -5.137 -5.102  5.70919 10.99970-12.66918   0.004
 3.36-1.00 -5.209 -5.198 -5.180 -5.150 -5.113  6.13862 11.50010-12.16896   0.006
 3.36-0.50 -5.213 -5.201 -5.181 -5.148 -5.108  6.57229 12.00087-11.66797   0.010
 3.36 0.00 -5.207 -5.193 -5.171 -5.136 -5.094  6.99269 12.50379-11.16520   0.016
 3.36 0.50 -5.179 -5.163 -5.140 -5.103 -5.060  7.40243 13.01199-10.65699   0.025
 3.36 1.00 -5.113 -5.097 -5.073 -5.035 -4.992  7.81478 13.53314-10.13579   0.040
 3.36 1.25 -5.066 -5.049 -5.025 -4.988 -4.945  8.02865 13.80168 -9.86722   0.051
 3.36 1.50 -5.011 -4.994 -4.970 -4.933 -4.891  8.24403 14.07408 -9.59482   0.066
 3.36 1.75 -4.951 -4.934 -4.911 -4.876 -4.834  8.46050 14.35088 -9.31808   0.085
 3.36 2.00 -4.891 -4.875 -4.852 -4.818 -4.778  8.67697 14.62767 -9.04134   0.108
 3.36 2.25 -4.833 -4.818 -4.796 -4.763 -4.725  8.88064 14.90271 -8.76627   0.137
 3.36 2.50 -4.781 -4.766 -4.745 -4.714 -4.677  9.07445 15.17580 -8.49309   0.171
 3.36 2.75 -4.731 -4.717 -4.697 -4.667 -4.632  9.25518 15.44485 -8.22400   0.211
 3.36 3.00 -4.684 -4.671 -4.652 -4.624 -4.591  9.42749 15.71063 -7.95821   0.257
 3.36 3.20 -4.645 -4.633 -4.615 -4.589 -4.557  9.55933 15.92061 -7.74826   0.299
 3.36 3.40 -4.606 -4.594 -4.578 -4.553 -4.523  9.68922 16.12894 -7.53995   0.347
 3.36 3.60 -4.563 -4.552 -4.538 -4.515 -4.486  9.81705 16.33570 -7.33316   0.403
 3.36 3.80 -4.515 -4.506 -4.493 -4.472 -4.445  9.94428 16.54129 -7.12752   0.466
 3.36 4.00 -4.463 -4.456 -4.445 -4.427 -4.402 10.07151 16.74578 -6.92300   0.540
 3.36 4.20 -4.414 -4.408 -4.397 -4.379 -4.355 10.19921 16.94928 -6.71954   0.625
 3.36 4.40 -4.361 -4.354 -4.345 -4.328 -4.304 10.32691 17.15215 -6.51672   0.724
 3.36 4.60 -4.306 -4.300 -4.290 -4.274 -4.251 10.45450 17.35444 -6.31449   0.838
 3.36 4.80 -4.250 -4.244 -4.235 -4.219 -4.197 10.58159 17.55634 -6.11263   0.970
 3.36 5.00 -4.190 -4.185 -4.176 -4.161 -4.138 10.70817 17.75785 -5.91116   1.123
 3.36 5.20 -4.129 -4.124 -4.116 -4.101 -4.080 10.83177 17.95900 -5.71002   1.295
 3.36 5.40 -4.066 -4.061 -4.054 -4.039 -4.018 10.95306 18.15993 -5.50910   1.489
 3.36 5.60 -4.001 -3.996 -3.989 -3.975 -3.955 11.07168 18.36068 -5.30836   1.707
 3.36 5.80 -3.934 -3.930 -3.923 -3.910 -3.890 11.18750 18.56130 -5.10776   1.950
 3.36 6.00 -3.865 -3.861 -3.855 -3.843 -3.824 11.30081 18.76178 -4.90728   2.222
 3.36 6.25 -3.778 -3.775 -3.769 -3.757 -3.739 11.43894 19.01215 -4.65685   2.605
 3.36 6.50 -3.690 -3.687 -3.681 -3.670 -3.653 11.57415 19.26245 -4.40649   3.044
 3.36 6.75 -3.601 -3.598 -3.593 -3.582 -3.567 11.70691 19.51274 -4.15616   3.547
 3.36 7.00 -3.512 -3.509 -3.504 -3.494 -3.480 11.83778 19.76298 -3.90588   4.124
 3.36 7.25 -3.422 -3.420 -3.415 -3.406 -3.393 11.96712 20.01307 -3.65580   4.786
 3.36 7.50 -3.333 -3.331 -3.326 -3.318 -3.306 12.09517 20.26316 -3.40572   5.546
 3.36 7.75 -3.245 -3.242 -3.238 -3.231 -3.220 12.22220 20.51329 -3.15563   6.420
 3.36 8.00 -3.157 -3.154 -3.151 -3.144 -3.134 12.34811 20.76343 -2.90553   7.422
 3.38-2.00 -4.976 -4.968 -4.953 -4.929 -4.897  5.53441 10.47958-13.18936   0.003
 3.38-1.50 -5.061 -5.052 -5.036 -5.009 -4.975  5.87483 10.97959-12.68931   0.004
 3.38-1.00 -5.117 -5.107 -5.090 -5.061 -5.024  6.24601 11.47972-12.18923   0.006
 3.38-0.50 -5.137 -5.126 -5.108 -5.076 -5.036  6.65389 11.98005-11.68888   0.010
 3.38 0.00 -5.124 -5.111 -5.091 -5.056 -5.013  7.08027 12.48101-11.18796   0.017
 3.38 0.50 -5.078 -5.064 -5.041 -5.003 -4.958  7.50174 12.98403-10.68487   0.027
 3.38 1.00 -4.989 -4.973 -4.948 -4.909 -4.862  7.91397 13.49290-10.17614   0.044
 3.38 1.25 -4.927 -4.911 -4.886 -4.847 -4.801  8.12029 13.75192 -9.91701   0.056
 3.38 1.50 -4.855 -4.838 -4.812 -4.773 -4.728  8.32695 14.01494 -9.65384   0.071
 3.38 1.75 -4.776 -4.759 -4.734 -4.696 -4.652  8.53925 14.28437 -9.38453   0.091
 3.38 2.00 -4.692 -4.675 -4.651 -4.614 -4.571  8.75282 14.55739 -9.11160   0.116
 3.38 2.25 -4.607 -4.590 -4.567 -4.533 -4.492  8.96733 14.83416 -8.83479   0.148
 3.38 2.50 -4.525 -4.509 -4.487 -4.454 -4.415  9.18184 15.11093 -8.55799   0.189
 3.38 2.75 -4.448 -4.433 -4.413 -4.382 -4.345  9.38502 15.38579 -8.28315   0.239
 3.38 3.00 -4.379 -4.366 -4.347 -4.318 -4.283  9.57898 15.65858 -8.01042   0.299
 3.38 3.20 -4.327 -4.315 -4.298 -4.271 -4.237  9.72448 15.87364 -7.79533   0.353
 3.38 3.40 -4.280 -4.269 -4.253 -4.227 -4.196  9.86451 16.08660 -7.58235   0.415
 3.38 3.60 -4.233 -4.223 -4.209 -4.185 -4.155  9.99876 16.29738 -7.37160   0.485
 3.38 3.80 -4.185 -4.177 -4.164 -4.143 -4.115 10.12954 16.50633 -7.16273   0.564
 3.38 4.00 -4.137 -4.130 -4.119 -4.101 -4.075 10.25792 16.71366 -6.95546   0.654
 3.38 4.20 -4.092 -4.086 -4.076 -4.059 -4.034 10.38413 16.91951 -6.74954   0.756
 3.38 4.40 -4.045 -4.040 -4.030 -4.014 -3.990 10.51016 17.12433 -6.54466   0.874
 3.38 4.60 -3.998 -3.993 -3.984 -3.968 -3.945 10.63610 17.32817 -6.34080   1.011
 3.38 4.80 -3.949 -3.944 -3.936 -3.921 -3.898 10.76197 17.53132 -6.13766   1.168
 3.38 5.00 -3.896 -3.891 -3.883 -3.869 -3.847 10.88767 17.73384 -5.93517   1.350
 3.38 5.20 -3.841 -3.837 -3.829 -3.815 -3.794 11.01287 17.93580 -5.73322   1.559
 3.38 5.40 -3.783 -3.778 -3.771 -3.758 -3.738 11.13729 18.13739 -5.53164   1.799
 3.38 5.60 -3.721 -3.717 -3.710 -3.697 -3.678 11.26024 18.33863 -5.33036   2.073
 3.38 5.80 -3.656 -3.652 -3.646 -3.634 -3.616 11.38069 18.53964 -5.12931   2.381
 3.38 6.00 -3.589 -3.586 -3.580 -3.569 -3.551 11.49900 18.74044 -4.92849   2.728
 3.38 6.25 -3.503 -3.500 -3.495 -3.484 -3.468 11.64289 18.99121 -4.67781   3.220
 3.38 6.50 -3.416 -3.413 -3.408 -3.398 -3.383 11.78326 19.24179 -4.42725   3.785
 3.38 6.75 -3.327 -3.325 -3.320 -3.311 -3.297 11.92029 19.49223 -4.17671   4.431
 3.38 7.00 -3.239 -3.236 -3.232 -3.224 -3.211 12.05461 19.74257 -3.92628   5.172
 3.38 7.25 -3.150 -3.147 -3.143 -3.136 -3.124 12.18654 19.99284 -3.67613   6.021
 3.38 7.50 -3.061 -3.059 -3.055 -3.048 -3.038 12.31660 20.24304 -3.42597   6.994
 3.38 7.75 -2.973 -2.971 -2.968 -2.961 -2.952 12.44528 20.49319 -3.17577   8.111
 3.38 8.00 -2.887 -2.884 -2.881 -2.875 -2.867 12.57241 20.74327 -2.92555   9.389
 3.40-2.00 -4.783 -4.776 -4.763 -4.740 -4.712  5.78183 10.45954-13.20936   0.004
 3.40-1.50 -4.883 -4.875 -4.860 -4.835 -4.803  6.11059 10.95957-12.70930   0.005
 3.40-1.00 -4.970 -4.961 -4.944 -4.916 -4.881  6.44107 11.45969-12.20929   0.008
 3.40-0.50 -5.028 -5.018 -5.000 -4.969 -4.930  6.79176 11.95976-11.70930   0.012
 3.40 0.00 -5.040 -5.029 -5.009 -4.975 -4.932  7.17667 12.46015-11.20887   0.018
 3.40 0.50 -4.997 -4.984 -4.962 -4.925 -4.879  7.58939 12.96118-10.70774   0.030
 3.40 1.00 -4.893 -4.879 -4.855 -4.816 -4.768  8.00775 13.46464-10.20433   0.048
 3.40 1.25 -4.819 -4.804 -4.780 -4.740 -4.692  8.21443 13.71841 -9.95059   0.061
 3.40 1.50 -4.730 -4.714 -4.690 -4.650 -4.602  8.42111 13.97437 -9.69465   0.077
 3.40 1.75 -4.631 -4.615 -4.590 -4.552 -4.505  8.62807 14.23439 -9.43461   0.098
 3.40 2.00 -4.523 -4.507 -4.482 -4.445 -4.399  8.83550 14.49859 -9.17037   0.124
 3.40 2.25 -4.414 -4.398 -4.375 -4.339 -4.296  9.04746 14.76894 -8.90000   0.158
 3.40 2.50 -4.306 -4.291 -4.269 -4.235 -4.194  9.25959 15.04258 -8.62635   0.202
 3.40 2.75 -4.202 -4.188 -4.168 -4.137 -4.098  9.47182 15.31948 -8.34944   0.258
 3.40 3.00 -4.105 -4.092 -4.074 -4.046 -4.010  9.68404 15.59638 -8.07253   0.330
 3.40 3.20 -4.033 -4.022 -4.006 -3.979 -3.945  9.84588 15.81608 -7.85283   0.398
 3.40 3.40 -3.968 -3.958 -3.943 -3.919 -3.888 10.00210 16.03422 -7.63470   0.476
 3.40 3.60 -3.908 -3.899 -3.886 -3.864 -3.835 10.15127 16.25021 -7.41874   0.565
 3.40 3.80 -3.852 -3.845 -3.834 -3.814 -3.787 10.29354 16.46366 -7.20532   0.665
 3.40 4.00 -3.800 -3.794 -3.784 -3.767 -3.742 10.43040 16.67505 -6.99396   0.779
 3.40 4.20 -3.754 -3.749 -3.740 -3.724 -3.701 10.56186 16.88434 -6.78466   0.906
 3.40 4.40 -3.709 -3.704 -3.696 -3.681 -3.659 10.69073 17.09207 -6.57693   1.051
 3.40 4.60 -3.666 -3.662 -3.654 -3.640 -3.619 10.81700 17.29827 -6.37080   1.216
 3.40 4.80 -3.623 -3.619 -3.612 -3.599 -3.578 10.94215 17.50334 -6.16580   1.404
 3.40 5.00 -3.578 -3.574 -3.567 -3.554 -3.534 11.06670 17.70740 -5.96178   1.621
 3.40 5.20 -3.532 -3.528 -3.521 -3.509 -3.490 11.19115 17.91060 -5.75849   1.871
 3.40 5.40 -3.481 -3.477 -3.471 -3.459 -3.441 11.31513 18.11322 -5.55580   2.158
 3.40 5.60 -3.426 -3.423 -3.417 -3.406 -3.388 11.43862 18.31532 -5.35374   2.487
 3.40 5.80 -3.367 -3.364 -3.359 -3.348 -3.331 11.56120 18.51705 -5.15210   2.864
 3.40 6.00 -3.305 -3.302 -3.297 -3.287 -3.271 11.68278 18.71842 -4.95078   3.294
 3.40 6.25 -3.224 -3.221 -3.217 -3.207 -3.193 11.83157 18.96968 -4.69947   3.910
 3.40 6.50 -3.140 -3.137 -3.133 -3.124 -3.111 11.97722 19.22063 -4.44843   4.624
 3.40 6.75 -3.054 -3.051 -3.047 -3.039 -3.027 12.11908 19.47134 -4.19756   5.444
 3.40 7.00 -2.966 -2.964 -2.961 -2.953 -2.942 12.25768 19.72189 -3.94692   6.386
 3.40 7.25 -2.879 -2.877 -2.874 -2.867 -2.857 12.39307 19.97236 -3.69664   7.464
 3.40 7.50 -2.791 -2.790 -2.787 -2.781 -2.772 12.52595 20.22272 -3.44636   8.698
 3.40 7.75 -2.705 -2.703 -2.700 -2.695 -2.687 12.65691 20.47294 -3.19607  10.113
 3.40 8.00 -2.619 -2.618 -2.615 -2.610 -2.603 12.78576 20.72305 -2.94577  11.729
 3.42-2.00 -4.609 -4.602 -4.591 -4.570 -4.544  5.98798 10.43965-13.22930   0.005
 3.42-1.50 -4.697 -4.690 -4.677 -4.654 -4.624  6.34282 10.93962-12.72932   0.007
 3.42-1.00 -4.789 -4.781 -4.766 -4.740 -4.706  6.67642 11.43965-12.22930   0.010
 3.42-0.50 -4.868 -4.858 -4.841 -4.812 -4.774  7.00303 11.93972-11.72932   0.015
 3.42 0.00 -4.912 -4.901 -4.882 -4.849 -4.807  7.34025 12.43981-11.22907   0.022
 3.42 0.50 -4.898 -4.886 -4.864 -4.828 -4.781  7.70492 12.94027-10.72862   0.033
 3.42 1.00 -4.806 -4.793 -4.770 -4.731 -4.680  8.10106 13.44154-10.22738   0.052
 3.42 1.25 -4.728 -4.715 -4.692 -4.652 -4.601  8.30627 13.69303 -9.97595   0.066
 3.42 1.50 -4.632 -4.619 -4.595 -4.556 -4.505  8.51215 13.94552 -9.72354   0.084
 3.42 1.75 -4.519 -4.505 -4.482 -4.443 -4.394  8.71817 14.19992 -9.46910   0.106
 3.42 2.00 -4.393 -4.379 -4.356 -4.318 -4.271  8.92469 14.45682 -9.21211   0.135
 3.42 2.25 -4.260 -4.246 -4.224 -4.188 -4.143  9.13201 14.71812 -8.95087   0.171
 3.42 2.50 -4.124 -4.111 -4.090 -4.056 -4.014  9.34044 14.98376 -8.68529   0.217
 3.42 2.75 -3.995 -3.982 -3.963 -3.933 -3.894  9.55201 15.25576 -8.41321   0.277
 3.42 3.00 -3.872 -3.860 -3.844 -3.815 -3.780  9.76358 15.53033 -8.13859   0.353
 3.42 3.20 -3.780 -3.770 -3.755 -3.730 -3.697  9.93214 15.75174 -7.91716   0.429
 3.42 3.40 -3.695 -3.687 -3.673 -3.650 -3.620 10.09963 15.97315 -7.69574   0.520
 3.42 3.60 -3.617 -3.609 -3.597 -3.577 -3.550 10.26357 16.19365 -7.47526   0.629
 3.42 3.80 -3.545 -3.538 -3.528 -3.511 -3.486 10.42058 16.41190 -7.25705   0.753
 3.42 4.00 -3.480 -3.475 -3.466 -3.451 -3.428 10.57206 16.62839 -7.04063   0.896
 3.42 4.20 -3.424 -3.420 -3.412 -3.398 -3.377 10.71551 16.84202 -6.82699   1.057
 3.42 4.40 -3.374 -3.370 -3.363 -3.350 -3.330 10.85375 17.05363 -6.61538   1.239
 3.42 4.60 -3.328 -3.325 -3.319 -3.306 -3.288 10.98649 17.26317 -6.40580   1.444
 3.42 4.80 -3.286 -3.283 -3.277 -3.265 -3.247 11.11570 17.47108 -6.19786   1.676
 3.42 5.00 -3.245 -3.242 -3.236 -3.225 -3.207 11.24229 17.67752 -5.99140   1.939
 3.42 5.20 -3.204 -3.201 -3.195 -3.184 -3.168 11.36691 17.88267 -5.78626   2.238
 3.42 5.40 -3.160 -3.158 -3.152 -3.142 -3.126 11.49058 18.08689 -5.58205   2.581
 3.42 5.60 -3.114 -3.111 -3.106 -3.096 -3.081 11.61359 18.29022 -5.37874   2.973
 3.42 5.80 -3.063 -3.061 -3.056 -3.047 -3.032 11.73611 18.49295 -5.17603   3.424
 3.42 6.00 -3.009 -3.007 -3.002 -2.993 -2.980 11.85787 18.69513 -4.97388   3.939
 3.42 6.25 -2.936 -2.934 -2.930 -2.922 -2.909 12.00891 18.94730 -4.72177   4.687
 3.42 6.50 -2.859 -2.856 -2.853 -2.845 -2.833 12.15806 19.19893 -4.47019   5.564
 3.42 6.75 -2.777 -2.775 -2.772 -2.765 -2.754 12.30396 19.45008 -4.21907   6.583
 3.42 7.00 -2.694 -2.692 -2.689 -2.683 -2.673 12.44685 19.70096 -3.96819   7.761
 3.42 7.25 -2.609 -2.607 -2.605 -2.599 -2.590 12.58631 19.95168 -3.71745   9.112
 3.42 7.50 -2.524 -2.523 -2.520 -2.515 -2.507 12.72280 20.20222 -3.46686  10.662
 3.42 7.75 -2.439 -2.438 -2.435 -2.431 -2.424 12.85660 20.45258 -3.21644  12.437
 3.42 8.00 -2.356 -2.354 -2.352 -2.348 -2.341 12.98762 20.70278 -2.96617  14.462
 3.44-2.00 -4.476 -4.471 -4.460 -4.441 -4.417  6.12678 10.41963-13.24934   0.005
 3.44-1.50 -4.539 -4.532 -4.520 -4.499 -4.471  6.52453 10.91960-12.74934   0.008
 3.44-1.00 -4.613 -4.605 -4.592 -4.567 -4.536  6.89109 11.41963-12.24934   0.013
 3.44-0.50 -4.687 -4.678 -4.663 -4.635 -4.599  7.23147 11.91965-11.74934   0.019
 3.44 0.00 -4.742 -4.732 -4.713 -4.682 -4.640  7.55811 12.41979-11.24926   0.027
 3.44 0.50 -4.751 -4.739 -4.718 -4.682 -4.635  7.88734 12.91986-10.74909   0.040
 3.44 1.00 -4.687 -4.674 -4.651 -4.612 -4.560  8.23654 13.42045-10.24857   0.060
 3.44 1.25 -4.620 -4.607 -4.584 -4.544 -4.490  8.42293 13.67102 -9.99794   0.074
 3.44 1.50 -4.531 -4.517 -4.494 -4.454 -4.400  8.61563 13.92195 -9.74690   0.092
 3.44 1.75 -4.417 -4.404 -4.381 -4.342 -4.289  8.81458 14.17379 -9.49509   0.116
 3.44 2.00 -4.285 -4.272 -4.251 -4.213 -4.162  9.01662 14.42684 -9.24215   0.146
 3.44 2.25 -4.138 -4.126 -4.106 -4.070 -4.022  9.22043 14.68208 -8.98693   0.185
 3.44 2.50 -3.984 -3.973 -3.954 -3.921 -3.877  9.42619 14.94017 -8.72886   0.234
 3.44 2.75 -3.830 -3.820 -3.802 -3.772 -3.733  9.63375 15.20328 -8.46576   0.297
 3.44 3.00 -3.680 -3.671 -3.655 -3.628 -3.593  9.84286 15.47085 -8.19819   0.378
 3.44 3.20 -3.568 -3.560 -3.546 -3.522 -3.490 10.01174 15.68975 -7.97923   0.459
 3.44 3.40 -3.464 -3.456 -3.444 -3.423 -3.393 10.18062 15.90963 -7.75930   0.558
 3.44 3.60 -3.366 -3.360 -3.349 -3.331 -3.305 10.34885 16.13051 -7.53841   0.677
 3.44 3.80 -3.277 -3.272 -3.263 -3.247 -3.223 10.51481 16.35163 -7.31728   0.820
 3.44 4.00 -3.195 -3.191 -3.184 -3.170 -3.149 10.67861 16.57276 -7.09615   0.990
 3.44 4.20 -3.125 -3.121 -3.114 -3.102 -3.083 10.83571 16.79096 -6.87792   1.186
 3.44 4.40 -3.061 -3.058 -3.052 -3.041 -3.024 10.98732 17.00721 -6.66165   1.413
 3.44 4.60 -3.006 -3.003 -2.998 -2.987 -2.971 11.13241 17.22122 -6.44765   1.670
 3.44 4.80 -2.957 -2.954 -2.949 -2.940 -2.924 11.27136 17.43297 -6.23594   1.959
 3.44 5.00 -2.912 -2.909 -2.905 -2.895 -2.881 11.40535 17.64276 -6.02618   2.286
 3.44 5.20 -2.871 -2.869 -2.864 -2.855 -2.841 11.53454 17.85062 -5.81833   2.653
 3.44 5.40 -2.830 -2.828 -2.824 -2.815 -2.802 11.66118 18.05712 -5.61181   3.070
 3.44 5.60 -2.789 -2.787 -2.783 -2.774 -2.761 11.78547 18.26237 -5.40654   3.541
 3.44 5.80 -2.745 -2.743 -2.739 -2.731 -2.719 11.90844 18.46670 -5.20217   4.080
 3.44 6.00 -2.699 -2.697 -2.693 -2.686 -2.674 12.03019 18.67015 -4.99870   4.693
 3.44 6.25 -2.636 -2.635 -2.631 -2.624 -2.613 12.18148 18.92334 -4.74552   5.586
 3.44 6.50 -2.568 -2.567 -2.563 -2.557 -2.547 12.33122 19.17580 -4.49309   6.638
 3.44 6.75 -2.495 -2.494 -2.491 -2.485 -2.475 12.47942 19.42780 -4.24117   7.873
 3.44 7.00 -2.418 -2.417 -2.414 -2.408 -2.400 12.62552 19.67934 -3.98970   9.316
 3.44 7.25 -2.339 -2.337 -2.335 -2.330 -2.322 12.76853 19.93046 -3.73865  10.983
 3.44 7.50 -2.258 -2.256 -2.254 -2.249 -2.242 12.90859 20.18127 -3.48785  12.904
 3.44 7.75 -2.176 -2.175 -2.173 -2.169 -2.162 13.04548 20.43188 -3.23720  15.107
 3.44 8.00 -2.096 -2.094 -2.092 -2.088 -2.082 13.17927 20.68224 -2.98674  17.624
 3.46-2.00 -4.387 -4.381 -4.371 -4.354 -4.331  6.20358 10.39950-13.26938   0.006
 3.46-1.50 -4.422 -4.416 -4.404 -4.384 -4.359  6.64038 10.89955-12.76930   0.009
 3.46-1.00 -4.469 -4.462 -4.449 -4.426 -4.396  7.04961 11.39967-12.26938   0.015
 3.46-0.50 -4.520 -4.512 -4.497 -4.471 -4.436  7.42684 11.89960-11.76930   0.023
 3.46 0.00 -4.561 -4.551 -4.534 -4.504 -4.464  7.77517 12.39967-11.26930   0.034
 3.46 0.50 -4.569 -4.558 -4.538 -4.503 -4.457  8.10415 12.89971-10.76930   0.050
 3.46 1.00 -4.520 -4.508 -4.485 -4.446 -4.394  8.42943 13.40002-10.26906   0.073
 3.46 1.25 -4.465 -4.452 -4.429 -4.389 -4.335  8.59636 13.65023-10.01885   0.088
 3.46 1.50 -4.388 -4.375 -4.352 -4.311 -4.256  8.76760 13.90053 -9.76853   0.107
 3.46 1.75 -4.286 -4.273 -4.251 -4.210 -4.155  8.94657 14.15129 -9.51775   0.132
 3.46 2.00 -4.163 -4.150 -4.128 -4.089 -4.036  9.13194 14.40261 -9.26640   0.163
 3.46 2.25 -4.019 -4.007 -3.987 -3.950 -3.900  9.32426 14.65489 -9.01413   0.203
 3.46 2.50 -3.861 -3.851 -3.832 -3.799 -3.753  9.52140 14.90859 -8.76045   0.255
 3.46 2.75 -3.696 -3.686 -3.670 -3.640 -3.599  9.72231 15.16515 -8.50389   0.322
 3.46 3.00 -3.529 -3.521 -3.506 -3.480 -3.444  9.92650 15.42505 -8.24397   0.407
 3.46 3.20 -3.399 -3.392 -3.379 -3.356 -3.323 10.09230 15.63691 -8.03212   0.492
 3.46 3.40 -3.274 -3.268 -3.257 -3.236 -3.208 10.25907 15.85157 -7.81746   0.597
 3.46 3.60 -3.157 -3.152 -3.142 -3.124 -3.099 10.42691 16.07026 -7.59875   0.724
 3.46 3.80 -3.049 -3.045 -3.036 -3.021 -3.000 10.59509 16.29087 -7.37810   0.879
 3.46 4.00 -2.950 -2.946 -2.939 -2.926 -2.908 10.76328 16.51148 -7.15745   1.067
 3.46 4.20 -2.863 -2.860 -2.854 -2.842 -2.826 10.92836 16.73209 -6.93684   1.290
 3.46 4.40 -2.784 -2.781 -2.776 -2.766 -2.751 11.09039 16.95267 -6.71631   1.555
 3.46 4.60 -2.714 -2.711 -2.707 -2.698 -2.684 11.24786 17.17176 -6.49725   1.863
 3.46 4.80 -2.653 -2.651 -2.646 -2.638 -2.625 11.39896 17.38779 -6.28117   2.217
 3.46 5.00 -2.598 -2.596 -2.592 -2.584 -2.572 11.54456 17.60173 -6.06717   2.622
 3.46 5.20 -2.550 -2.548 -2.544 -2.537 -2.525 11.68333 17.81325 -5.85566   3.076
 3.46 5.40 -2.506 -2.504 -2.500 -2.493 -2.482 11.81750 18.02294 -5.64597   3.590
 3.46 5.60 -2.464 -2.462 -2.459 -2.452 -2.441 11.94702 18.23082 -5.43810   4.168
 3.46 5.80 -2.423 -2.421 -2.418 -2.411 -2.401 12.07342 18.43731 -5.23160   4.820
 3.46 6.00 -2.381 -2.379 -2.376 -2.370 -2.360 12.19728 18.64256 -5.02636   5.559
 3.46 6.25 -2.327 -2.325 -2.322 -2.316 -2.307 12.34958 18.89773 -4.77130   6.625
 3.46 6.50 -2.268 -2.267 -2.264 -2.258 -2.250 12.49982 19.15168 -4.51741   7.877
 3.46 6.75 -2.205 -2.204 -2.201 -2.196 -2.188 12.64884 19.40462 -4.26443   9.351
 3.46 7.00 -2.137 -2.136 -2.133 -2.128 -2.121 12.79609 19.65687 -4.01216  11.078
 3.46 7.25 -2.065 -2.064 -2.062 -2.057 -2.050 12.94136 19.90858 -3.76047  13.093
 3.46 7.50 -1.991 -1.990 -1.987 -1.983 -1.976 13.08422 20.15987 -3.50920  15.433
 3.46 7.75 -1.915 -1.913 -1.911 -1.907 -1.901 13.22388 20.41083 -3.25821  18.125
 3.46 8.00 -1.838 -1.837 -1.835 -1.831 -1.825 13.36059 20.66143 -3.00753  21.217
 3.48-2.00 -4.336 -4.331 -4.322 -4.307 -4.287  6.22866 10.37931-13.28971   0.006
 3.48-1.50 -4.345 -4.339 -4.329 -4.310 -4.287  6.70036 10.87921-12.78968   0.010
 3.48-1.00 -4.365 -4.359 -4.346 -4.325 -4.297  7.14706 11.37931-12.28971   0.016
 3.48-0.50 -4.389 -4.381 -4.367 -4.342 -4.309  7.56585 11.87927-11.78968   0.026
 3.48 0.00 -4.402 -4.393 -4.376 -4.347 -4.308  7.95371 12.37931-11.28963   0.041
 3.48 0.50 -4.388 -4.377 -4.358 -4.324 -4.278  8.31006 12.87933-10.78968   0.062
 3.48 1.00 -4.329 -4.317 -4.295 -4.257 -4.205  8.64335 13.37949-10.28954   0.091
 3.48 1.25 -4.276 -4.263 -4.241 -4.201 -4.147  8.80517 13.62957-10.03948   0.110
 3.48 1.50 -4.204 -4.192 -4.169 -4.128 -4.074  8.96699 13.87967 -9.78941   0.132
 3.48 1.75 -4.112 -4.099 -4.077 -4.036 -3.982  9.13096 14.12999 -9.53903   0.159
 3.48 2.00 -4.000 -3.988 -3.966 -3.927 -3.874  9.29754 14.38057 -9.28836   0.193
 3.48 2.25 -3.869 -3.857 -3.837 -3.800 -3.750  9.47040 14.63157 -9.03733   0.235
 3.48 2.50 -3.722 -3.711 -3.692 -3.659 -3.612  9.64914 14.88321 -8.78569   0.289
 3.48 2.75 -3.561 -3.552 -3.535 -3.505 -3.463  9.83530 15.13617 -8.53275   0.358
 3.48 3.00 -3.393 -3.385 -3.371 -3.344 -3.308 10.02735 15.39094 -8.27802   0.447
 3.48 3.20 -3.257 -3.249 -3.237 -3.213 -3.181 10.18490 15.59716 -8.07183   0.536
 3.48 3.40 -3.121 -3.115 -3.104 -3.083 -3.055 10.34535 15.80581 -7.86319   0.644
 3.48 3.60 -2.989 -2.984 -2.974 -2.957 -2.932 10.50947 16.01775 -7.65126   0.778
 3.48 3.80 -2.863 -2.859 -2.851 -2.836 -2.815 10.67547 16.23304 -7.43595   0.942
 3.48 4.00 -2.745 -2.741 -2.735 -2.723 -2.705 10.84198 16.45086 -7.21810   1.141
 3.48 4.20 -2.640 -2.637 -2.631 -2.621 -2.605 11.00884 16.67208 -6.99684   1.383
 3.48 4.40 -2.544 -2.541 -2.536 -2.527 -2.514 11.17569 16.89329 -6.77558   1.675
 3.48 4.60 -2.458 -2.456 -2.452 -2.444 -2.432 11.34078 17.11422 -6.55463   2.026
 3.48 4.80 -2.383 -2.381 -2.377 -2.369 -2.358 11.50128 17.33416 -6.33475   2.437
 3.48 5.00 -2.314 -2.312 -2.309 -2.302 -2.292 11.65801 17.55316 -6.11589   2.919
 3.48 5.20 -2.255 -2.253 -2.250 -2.244 -2.234 11.80831 17.76887 -5.90010   3.470
 3.48 5.40 -2.202 -2.200 -2.197 -2.191 -2.181 11.95323 17.98248 -5.68642   4.100
 3.48 5.60 -2.153 -2.152 -2.149 -2.143 -2.134 12.09211 18.19390 -5.47499   4.811
 3.48 5.80 -2.109 -2.108 -2.105 -2.099 -2.090 12.22582 18.40346 -5.26549   5.612
 3.48 6.00 -2.067 -2.065 -2.063 -2.057 -2.049 12.35526 18.61130 -5.05769   6.515
 3.48 6.25 -2.015 -2.014 -2.011 -2.006 -1.998 12.51202 18.86893 -4.80002   7.804
 3.48 6.50 -1.963 -1.962 -1.959 -1.955 -1.947 12.66502 19.12483 -4.54409   9.307
 3.48 6.75 -1.908 -1.907 -1.905 -1.900 -1.893 12.81530 19.37939 -4.28956  11.065
 3.48 7.00 -1.850 -1.849 -1.846 -1.842 -1.835 12.96327 19.63286 -4.03612  13.119
 3.48 7.25 -1.787 -1.786 -1.784 -1.780 -1.773 13.10963 19.88541 -3.78359  15.526
 3.48 7.50 -1.721 -1.720 -1.718 -1.714 -1.708 13.25382 20.13735 -3.53165  18.329
 3.48 7.75 -1.652 -1.651 -1.649 -1.645 -1.639 13.39541 20.38890 -3.28010  21.575
 3.48 8.00 -1.582 -1.580 -1.578 -1.575 -1.569 13.53453 20.63998 -3.02900  25.325
 3.50-2.00 -4.312 -4.308 -4.302 -4.290 -4.275  6.22324 10.35946-13.30945   0.005
 3.50-1.50 -4.305 -4.300 -4.291 -4.275 -4.255  6.71374 10.85956-12.80939   0.010
 3.50-1.00 -4.300 -4.294 -4.283 -4.264 -4.239  7.19117 11.35965-12.30936   0.017
 3.50-0.50 -4.298 -4.290 -4.277 -4.254 -4.223  7.64523 11.85956-11.80939   0.028
 3.50 0.00 -4.282 -4.274 -4.258 -4.230 -4.193  8.07115 12.35965-11.30936   0.046
 3.50 0.50 -4.236 -4.225 -4.207 -4.174 -4.130  8.46627 12.85962-10.80939   0.072
 3.50 1.00 -4.148 -4.136 -4.115 -4.077 -4.027  8.82924 13.35965-10.30927   0.110
 3.50 1.25 -4.085 -4.073 -4.051 -4.012 -3.960  8.99989 13.60970-10.05920   0.134
 3.50 1.50 -4.007 -3.995 -3.973 -3.933 -3.880  9.16613 13.85980 -9.80911   0.162
 3.50 1.75 -3.914 -3.902 -3.880 -3.841 -3.788  9.32791 14.10996 -9.55896   0.195
 3.50 2.00 -3.806 -3.794 -3.773 -3.736 -3.684  9.48968 14.36022 -9.30874   0.235
 3.50 2.25 -3.683 -3.672 -3.652 -3.616 -3.568  9.65213 14.61064 -9.05836   0.283
 3.50 2.50 -3.547 -3.537 -3.519 -3.487 -3.442  9.81564 14.86136 -8.80771   0.342
 3.50 2.75 -3.400 -3.391 -3.375 -3.345 -3.304  9.98470 15.11277 -8.55630   0.416
 3.50 3.00 -3.243 -3.235 -3.221 -3.195 -3.159 10.15897 15.36511 -8.30391   0.508
 3.50 3.20 -3.112 -3.105 -3.092 -3.069 -3.037 10.30359 15.56815 -8.10083   0.600
 3.50 3.40 -2.978 -2.972 -2.960 -2.940 -2.912 10.45235 15.77266 -7.89627   0.712
 3.50 3.60 -2.843 -2.837 -2.828 -2.810 -2.786 10.60555 15.97918 -7.68972   0.849
 3.50 3.80 -2.709 -2.704 -2.696 -2.681 -2.661 10.76266 16.18866 -7.48023   1.018
 3.50 4.00 -2.578 -2.574 -2.568 -2.556 -2.539 10.92319 16.40088 -7.26801   1.225
 3.50 4.20 -2.457 -2.454 -2.449 -2.438 -2.424 11.08850 16.61758 -7.05138   1.482
 3.50 4.40 -2.343 -2.341 -2.336 -2.328 -2.315 11.25381 16.83616 -6.83284   1.792
 3.50 4.60 -2.241 -2.239 -2.235 -2.227 -2.216 11.41903 17.05689 -6.61210   2.167
 3.50 4.80 -2.149 -2.147 -2.143 -2.137 -2.126 11.58378 17.27836 -6.39059   2.620
 3.50 5.00 -2.066 -2.064 -2.061 -2.055 -2.045 11.74803 17.49982 -6.16909   3.165
 3.50 5.20 -1.993 -1.991 -1.989 -1.983 -1.974 11.90678 17.71926 -5.94965   3.800
 3.50 5.40 -1.928 -1.926 -1.923 -1.918 -1.910 12.06117 17.93705 -5.73187   4.539
 3.50 5.60 -1.869 -1.868 -1.865 -1.860 -1.852 12.21029 18.15266 -5.51630   5.390
 3.50 5.80 -1.817 -1.815 -1.813 -1.808 -1.800 12.35356 18.36577 -5.30322   6.357
 3.50 6.00 -1.769 -1.768 -1.765 -1.760 -1.753 12.49164 18.57680 -5.09221   7.452
 3.50 6.25 -1.714 -1.713 -1.711 -1.706 -1.699 12.65660 18.83768 -4.83127   9.010
 3.50 6.50 -1.663 -1.661 -1.659 -1.655 -1.648 12.81551 19.09621 -4.57268  10.819
 3.50 6.75 -1.612 -1.611 -1.609 -1.604 -1.598 12.96937 19.35287 -4.31604  12.915
 3.50 7.00 -1.560 -1.559 -1.557 -1.553 -1.546 13.11959 19.60799 -4.06093  15.353
 3.50 7.25 -1.506 -1.504 -1.502 -1.499 -1.492 13.26714 19.86173 -3.80713  18.196
 3.50 7.50 -1.448 -1.447 -1.445 -1.441 -1.435 13.41212 20.11461 -3.55424  21.503
 3.50 7.75 -1.387 -1.386 -1.384 -1.381 -1.375 13.55492 20.36696 -3.30195  25.346
 3.50 8.00 -1.325 -1.323 -1.322 -1.318 -1.312 13.69539 20.61868 -3.05037  29.795
 3.52-2.00 -4.291 -4.289 -4.284 -4.276 -4.267  6.21378 10.33945-13.32948   0.005
 3.52-1.50 -4.284 -4.280 -4.274 -4.263 -4.249  6.70586 10.83948-12.82944   0.009
 3.52-1.00 -4.269 -4.264 -4.255 -4.240 -4.220  7.19728 11.33965-12.32938   0.016
 3.52-0.50 -4.245 -4.239 -4.227 -4.206 -4.179  7.67888 11.83954-11.82945   0.029
 3.52 0.00 -4.204 -4.196 -4.181 -4.155 -4.121  8.13925 12.33965-11.32938   0.049
 3.52 0.50 -4.127 -4.117 -4.099 -4.068 -4.026  8.57159 12.83960-10.82944   0.080
 3.52 1.00 -4.003 -3.991 -3.971 -3.935 -3.886  8.97336 13.33965-10.32929   0.127
 3.52 1.25 -3.923 -3.911 -3.890 -3.852 -3.801  9.16159 13.58966-10.07922   0.158
 3.52 1.50 -3.830 -3.818 -3.797 -3.758 -3.706  9.34223 13.83967 -9.82915   0.194
 3.52 1.75 -3.725 -3.714 -3.693 -3.655 -3.603  9.51516 14.08973 -9.57913   0.237
 3.52 2.00 -3.610 -3.599 -3.578 -3.542 -3.492  9.68287 14.33985 -9.32911   0.287
 3.52 2.25 -3.485 -3.474 -3.455 -3.421 -3.374  9.84505 14.59006 -9.07892   0.346
 3.52 2.50 -3.352 -3.343 -3.325 -3.294 -3.251 10.00689 14.84042 -8.82857   0.417
 3.52 2.75 -3.212 -3.203 -3.188 -3.160 -3.121 10.16855 15.09110 -8.57790   0.502
 3.52 3.00 -3.066 -3.059 -3.045 -3.020 -2.985 10.33021 15.34223 -8.32680   0.605
 3.52 3.20 -2.944 -2.937 -2.925 -2.903 -2.872 10.46285 15.54365 -8.12540   0.705
 3.52 3.40 -2.819 -2.813 -2.802 -2.783 -2.755 10.59830 15.74583 -7.92324   0.823
 3.52 3.60 -2.691 -2.685 -2.676 -2.659 -2.635 10.73731 15.94907 -7.72000   0.966
 3.52 3.80 -2.560 -2.555 -2.547 -2.533 -2.513 10.88100 16.15425 -7.51477   1.140
 3.52 4.00 -2.429 -2.425 -2.419 -2.407 -2.389 11.02898 16.36135 -7.30759   1.352
 3.52 4.20 -2.301 -2.298 -2.293 -2.282 -2.268 11.18257 16.57191 -7.09709   1.613
 3.52 4.40 -2.177 -2.175 -2.170 -2.162 -2.149 11.33981 16.78532 -6.88373   1.934
 3.52 4.60 -2.061 -2.058 -2.055 -2.047 -2.036 11.50171 17.00270 -6.66635   2.330
 3.52 4.80 -1.953 -1.951 -1.948 -1.941 -1.931 11.66554 17.22245 -6.44653   2.813
 3.52 5.00 -1.853 -1.852 -1.849 -1.843 -1.834 11.82937 17.44295 -6.22600   3.397
 3.52 5.20 -1.766 -1.764 -1.762 -1.756 -1.748 11.99198 17.66395 -6.00498   4.096
 3.52 5.40 -1.686 -1.685 -1.683 -1.678 -1.670 12.15305 17.88496 -5.78397   4.931
 3.52 5.60 -1.616 -1.614 -1.612 -1.607 -1.600 12.31082 18.10470 -5.56423   5.914
 3.52 5.80 -1.552 -1.551 -1.549 -1.545 -1.538 12.46294 18.32169 -5.34726   7.046
 3.52 6.00 -1.496 -1.494 -1.492 -1.488 -1.481 12.61034 18.53668 -5.13230   8.349
 3.52 6.25 -1.432 -1.431 -1.429 -1.425 -1.419 12.78610 18.80190 -4.86716  10.221
 3.52 6.50 -1.376 -1.375 -1.373 -1.369 -1.363 12.95419 19.06409 -4.60502  12.403
 3.52 6.75 -1.324 -1.323 -1.321 -1.317 -1.311 13.11473 19.32342 -4.34560  14.922
 3.52 7.00 -1.274 -1.273 -1.271 -1.268 -1.262 13.26975 19.58070 -4.08826  17.839
 3.52 7.25 -1.225 -1.224 -1.222 -1.218 -1.213 13.42032 19.83631 -3.83267  21.214
 3.52 7.50 -1.174 -1.173 -1.171 -1.168 -1.162 13.56726 20.09061 -3.57840  25.122
 3.52 7.75 -1.121 -1.120 -1.118 -1.115 -1.109 13.71148 20.34397 -3.32504  29.659
 3.52 8.00 -1.066 -1.065 -1.063 -1.060 -1.054 13.85266 20.59627 -3.07273  34.895
 3.54-2.00 -4.242 -4.241 -4.238 -4.233 -4.226  6.23880 10.31952-13.34940   0.005
 3.54-1.50 -4.256 -4.254 -4.250 -4.243 -4.234  6.70475 10.81948-12.84955   0.009
 3.54-1.00 -4.249 -4.246 -4.240 -4.229 -4.216  7.19033 11.31952-12.34940   0.016
 3.54-0.50 -4.223 -4.218 -4.209 -4.193 -4.173  7.68052 11.81954-11.84955   0.028
 3.54 0.00 -4.166 -4.159 -4.147 -4.124 -4.095  8.16435 12.31952-11.34940   0.049
 3.54 0.50 -4.063 -4.054 -4.038 -4.009 -3.971  8.62931 12.81954-10.84955   0.083
 3.54 1.00 -3.905 -3.894 -3.874 -3.840 -3.794  9.06707 13.31973-10.34930   0.138
 3.54 1.25 -3.806 -3.794 -3.774 -3.738 -3.690  9.27428 13.56967-10.09927   0.175
 3.54 1.50 -3.694 -3.682 -3.662 -3.625 -3.575  9.47349 13.81961 -9.84924   0.220
 3.54 1.75 -3.572 -3.561 -3.540 -3.504 -3.454  9.66422 14.06965 -9.59923   0.274
 3.54 2.00 -3.441 -3.430 -3.411 -3.375 -3.327  9.84714 14.31973 -9.34921   0.339
 3.54 2.25 -3.305 -3.295 -3.276 -3.243 -3.198 10.02189 14.56984 -9.09911   0.414
 3.54 2.50 -3.165 -3.155 -3.138 -3.108 -3.067 10.19089 14.82000 -8.84894   0.503
 3.54 2.75 -3.021 -3.013 -2.998 -2.971 -2.933 10.35427 15.07029 -8.59864   0.607
 3.54 3.00 -2.877 -2.869 -2.856 -2.832 -2.799 10.51601 15.32077 -8.34814   0.732
 3.54 3.20 -2.759 -2.752 -2.740 -2.718 -2.689 10.64446 15.52147 -8.14743   0.849
 3.54 3.40 -2.639 -2.633 -2.623 -2.604 -2.577 10.77292 15.72257 -7.94630   0.984
 3.54 3.60 -2.518 -2.513 -2.504 -2.487 -2.464 10.90245 15.92420 -7.74466   1.142
 3.54 3.80 -2.394 -2.390 -2.382 -2.368 -2.348 11.03494 16.12686 -7.54201   1.330
 3.54 4.00 -2.270 -2.266 -2.260 -2.248 -2.231 11.16997 16.33062 -7.33828   1.554
 3.54 4.20 -2.145 -2.142 -2.137 -2.126 -2.111 11.30964 16.53655 -7.13236   1.825
 3.54 4.40 -2.021 -2.019 -2.014 -2.005 -1.993 11.45363 16.74486 -6.92405   2.154
 3.54 4.60 -1.900 -1.898 -1.894 -1.887 -1.876 11.60299 16.95639 -6.71257   2.558
 3.54 4.80 -1.784 -1.782 -1.779 -1.772 -1.762 11.75706 17.17130 -6.49772   3.054
 3.54 5.00 -1.673 -1.671 -1.668 -1.663 -1.654 11.91456 17.38881 -6.28025   3.662
 3.54 5.20 -1.571 -1.570 -1.568 -1.562 -1.554 12.07613 17.60993 -6.05914   4.411
 3.54 5.40 -1.478 -1.477 -1.474 -1.470 -1.462 12.23770 17.83105 -5.83802   5.313
 3.54 5.60 -1.394 -1.392 -1.390 -1.386 -1.379 12.39839 18.05194 -5.61712   6.393
 3.54 5.80 -1.318 -1.317 -1.315 -1.311 -1.304 12.55634 18.27200 -5.39704   7.667
 3.54 6.00 -1.251 -1.249 -1.247 -1.243 -1.237 12.71181 18.49122 -5.17777   9.169
 3.54 6.25 -1.176 -1.175 -1.173 -1.169 -1.163 12.89767 18.76093 -4.90798  11.358
 3.54 6.50 -1.110 -1.109 -1.108 -1.104 -1.098 13.07591 19.02735 -4.64149  13.947
 3.54 6.75 -1.053 -1.052 -1.050 -1.046 -1.041 13.24564 19.29037 -4.37849  16.955
 3.54 7.00 -1.000 -0.999 -0.997 -0.994 -0.988 13.40824 19.55072 -4.11822  20.444
 3.54 7.25 -0.951 -0.950 -0.948 -0.945 -0.940 13.56404 19.80869 -3.86039  24.461
 3.54 7.50 -0.904 -0.903 -0.901 -0.897 -0.892 13.71467 20.06483 -3.60432  29.093
 3.54 7.75 -0.856 -0.855 -0.854 -0.850 -0.845 13.86143 20.31961 -3.34950  34.447
 3.54 8.00 -0.808 -0.807 -0.805 -0.802 -0.796 14.00389 20.57287 -3.09610  40.583
 3.56-2.00 -4.114 -4.112 -4.111 -4.107 -4.103  6.37438 10.29951-13.36957   0.006
 3.56-1.50 -4.182 -4.180 -4.178 -4.173 -4.166  6.76671 10.79941-12.86967   0.010
 3.56-1.00 -4.210 -4.208 -4.204 -4.197 -4.188  7.20602 11.29951-12.36947   0.016
 3.56-0.50 -4.202 -4.199 -4.193 -4.182 -4.168  7.67825 11.79941-11.86967   0.027
 3.56 0.00 -4.152 -4.147 -4.138 -4.122 -4.101  8.16435 12.29951-11.36947   0.048
 3.56 0.50 -4.041 -4.034 -4.021 -3.997 -3.966  8.64836 12.79948-10.86967   0.083
 3.56 1.00 -3.856 -3.846 -3.829 -3.798 -3.758  9.11661 13.29951-10.36947   0.143
 3.56 1.25 -3.739 -3.729 -3.710 -3.677 -3.634  9.34084 13.54952-10.11940   0.185
 3.56 1.50 -3.607 -3.596 -3.577 -3.543 -3.496  9.55787 13.79955 -9.86934   0.237
 3.56 1.75 -3.467 -3.456 -3.437 -3.402 -3.356  9.76707 14.04964 -9.61936   0.302
 3.56 2.00 -3.317 -3.307 -3.288 -3.254 -3.208  9.96825 14.29973 -9.36937   0.381
 3.56 2.25 -3.164 -3.154 -3.137 -3.105 -3.062 10.16072 14.54974 -9.11937   0.475
 3.56 2.50 -3.009 -3.000 -2.983 -2.954 -2.914 10.34518 14.79976 -8.86934   0.587
 3.56 2.75 -2.854 -2.846 -2.831 -2.805 -2.769 10.52134 15.04989 -8.61917   0.719
 3.56 3.00 -2.701 -2.694 -2.681 -2.657 -2.625 10.69135 15.30016 -8.36886   0.875
 3.56 3.20 -2.580 -2.573 -2.561 -2.540 -2.511 10.82266 15.50049 -8.16854   1.018
 3.56 3.40 -2.459 -2.453 -2.443 -2.424 -2.398 10.95259 15.70101 -7.96805   1.182
 3.56 3.60 -2.338 -2.333 -2.324 -2.308 -2.284 11.08108 15.90179 -7.76727   1.370
 3.56 3.80 -2.218 -2.213 -2.205 -2.191 -2.171 11.20917 16.10316 -7.56586   1.588
 3.56 4.00 -2.097 -2.093 -2.087 -2.075 -2.057 11.33726 16.30514 -7.36381   1.841
 3.56 4.20 -1.976 -1.973 -1.968 -1.957 -1.941 11.46766 16.50828 -7.16071   2.139
 3.56 4.40 -1.856 -1.853 -1.849 -1.840 -1.826 11.60035 16.71294 -6.95611   2.493
 3.56 4.60 -1.737 -1.735 -1.731 -1.723 -1.711 11.73638 16.91967 -6.74942   2.915
 3.56 4.80 -1.619 -1.618 -1.614 -1.607 -1.597 11.87726 17.12937 -6.53968   3.428
 3.56 5.00 -1.505 -1.503 -1.501 -1.495 -1.485 12.02243 17.34183 -6.32716   4.052
 3.56 5.20 -1.397 -1.395 -1.393 -1.387 -1.379 12.17412 17.55869 -6.11024   4.825
 3.56 5.40 -1.294 -1.292 -1.290 -1.285 -1.278 12.32850 17.77740 -5.89151   5.763
 3.56 5.60 -1.199 -1.197 -1.195 -1.191 -1.184 12.48594 17.99820 -5.67074   6.908
 3.56 5.80 -1.112 -1.111 -1.109 -1.105 -1.098 12.64439 18.21971 -5.44928   8.291
 3.56 6.00 -1.033 -1.032 -1.030 -1.026 -1.020 12.80284 18.44122 -5.22783   9.950
 3.56 6.25 -0.946 -0.945 -0.943 -0.939 -0.933 12.99552 18.71507 -4.95397  12.422
 3.56 6.50 -0.869 -0.868 -0.866 -0.863 -0.857 13.18299 18.98623 -4.68277  15.415
 3.56 6.75 -0.802 -0.801 -0.799 -0.796 -0.791 13.36184 19.25338 -4.41560  18.939
 3.56 7.00 -0.743 -0.742 -0.741 -0.737 -0.732 13.53314 19.51733 -4.15163  23.067
 3.56 7.25 -0.691 -0.690 -0.688 -0.685 -0.680 13.69631 19.77815 -3.89077  27.833
 3.56 7.50 -0.643 -0.642 -0.640 -0.637 -0.631 13.85279 20.03663 -3.63227  33.327
 3.56 7.75 -0.597 -0.596 -0.595 -0.591 -0.586 14.00367 20.29336 -3.37555  39.650
 3.56 8.00 -0.553 -0.552 -0.550 -0.547 -0.541 14.14860 20.54815 -3.12079  46.851
 3.58-2.00 -3.888 -3.887 -3.886 -3.883 -3.879  6.63829 10.27944-13.38955   0.008
 3.58-1.50 -4.013 -4.012 -4.010 -4.006 -4.002  6.95847 10.77938-12.88941   0.012
 3.58-1.00 -4.103 -4.101 -4.098 -4.093 -4.086  7.31597 11.27944-12.38955   0.018
 3.58-0.50 -4.145 -4.143 -4.139 -4.131 -4.122  7.72214 11.77945-11.88941   0.028
 3.58 0.00 -4.129 -4.125 -4.119 -4.108 -4.093  8.17348 12.27944-11.38945   0.047
 3.58 0.50 -4.037 -4.031 -4.022 -4.005 -3.983  8.65021 12.77945-10.88941   0.082
 3.58 1.00 -3.849 -3.841 -3.828 -3.804 -3.772  9.13194 13.27944-10.38945   0.142
 3.58 1.25 -3.720 -3.712 -3.697 -3.670 -3.634  9.36871 13.52947-10.13943   0.186
 3.58 1.50 -3.573 -3.563 -3.546 -3.517 -3.478  9.60130 13.77952 -9.88941   0.244
 3.58 1.75 -3.413 -3.404 -3.386 -3.356 -3.315  9.82664 14.02960 -9.63943   0.316
 3.58 2.00 -3.244 -3.234 -3.217 -3.186 -3.145 10.04493 14.27967 -9.38945   0.406
 3.58 2.25 -3.073 -3.063 -3.047 -3.017 -2.977 10.25516 14.52963 -9.13944   0.517
 3.58 2.50 -2.899 -2.890 -2.874 -2.846 -2.808 10.45728 14.77960 -8.88941   0.653
 3.58 2.75 -2.728 -2.720 -2.706 -2.680 -2.645 10.65067 15.02971 -8.63931   0.816
 3.58 3.00 -2.560 -2.553 -2.540 -2.517 -2.485 10.83594 15.27989 -8.38913   1.010
 3.58 3.20 -2.429 -2.422 -2.410 -2.390 -2.361 10.97790 15.48007 -8.18891   1.190
 3.58 3.40 -2.300 -2.294 -2.284 -2.265 -2.239 11.11582 15.68031 -7.98860   1.394
 3.58 3.60 -2.174 -2.169 -2.159 -2.143 -2.119 11.24931 15.88069 -7.78818   1.626
 3.58 3.80 -2.049 -2.045 -2.037 -2.022 -2.002 11.38018 16.08138 -7.58752   1.890
 3.58 4.00 -1.927 -1.923 -1.916 -1.904 -1.885 11.50947 16.28240 -7.38658   2.193
 3.58 4.20 -1.806 -1.803 -1.797 -1.786 -1.769 11.63735 16.48404 -7.18493   2.541
 3.58 4.40 -1.686 -1.683 -1.678 -1.669 -1.654 11.76523 16.68657 -6.98237   2.945
 3.58 4.60 -1.568 -1.565 -1.561 -1.553 -1.540 11.89399 16.89027 -6.77863   3.416
 3.58 4.80 -1.451 -1.449 -1.445 -1.438 -1.427 12.02533 17.09603 -6.57285   3.973
 3.58 5.00 -1.336 -1.335 -1.331 -1.325 -1.315 12.15897 17.30384 -6.36502   4.633
 3.58 5.20 -1.225 -1.224 -1.221 -1.215 -1.207 12.29772 17.51539 -6.15350   5.436
 3.58 5.40 -1.118 -1.117 -1.115 -1.110 -1.102 12.44055 17.72978 -5.93915   6.407
 3.58 5.60 -1.018 -1.017 -1.014 -1.010 -1.003 12.58899 17.94818 -5.72079   7.602
 3.58 5.80 -0.924 -0.923 -0.921 -0.917 -0.910 12.74094 18.16859 -5.50041   9.055
 3.58 6.00 -0.837 -0.836 -0.834 -0.830 -0.824 12.89415 18.38917 -5.27984  10.802
 3.58 6.25 -0.738 -0.737 -0.736 -0.732 -0.726 13.08679 18.66499 -5.00400  13.484
 3.58 6.50 -0.651 -0.650 -0.648 -0.644 -0.639 13.27944 18.94081 -4.72816  16.832
 3.58 6.75 -0.574 -0.573 -0.572 -0.568 -0.563 13.46499 19.21222 -4.45675  20.840
 3.58 7.00 -0.507 -0.506 -0.504 -0.501 -0.496 13.64444 19.48044 -4.18856  25.622
 3.58 7.25 -0.448 -0.447 -0.445 -0.442 -0.437 13.81535 19.74493 -3.92420  31.195
 3.58 7.50 -0.396 -0.395 -0.393 -0.390 -0.385 13.97887 20.00647 -3.66274  37.657
 3.58 7.75 -0.350 -0.349 -0.347 -0.343 -0.338 14.13534 20.26557 -3.40358  45.088
 3.58 8.00 -0.307 -0.306 -0.304 -0.300 -0.294 14.28466 20.52205 -3.14691  53.541
 3.60-2.00 -3.601 -3.600 -3.598 -3.595 -3.591  6.96974 10.25935-13.40972   0.012
 3.60-1.50 -3.763 -3.762 -3.760 -3.757 -3.752  7.25310 10.75937-12.90974   0.016
 3.60-1.00 -3.901 -3.900 -3.897 -3.893 -3.887  7.55364 11.25936-12.40949   0.023
 3.60-0.50 -4.003 -4.001 -3.998 -3.992 -3.984  7.88298 11.75944-11.90939   0.033
 3.60 0.00 -4.048 -4.045 -4.041 -4.033 -4.022  8.25576 12.25959-11.40949   0.051
 3.60 0.50 -4.007 -4.003 -3.996 -3.985 -3.968  8.67879 12.75944-10.90939   0.082
 3.60 1.00 -3.850 -3.844 -3.834 -3.818 -3.794  9.14019 13.25959-10.40949   0.140
 3.60 1.25 -3.726 -3.720 -3.708 -3.688 -3.662  9.37828 13.50956-10.15944   0.184
 3.60 1.50 -3.576 -3.568 -3.556 -3.533 -3.503  9.61637 13.75952 -9.90939   0.242
 3.60 1.75 -3.406 -3.398 -3.384 -3.360 -3.327  9.85197 14.00956 -9.65938   0.318
 3.60 2.00 -3.221 -3.213 -3.198 -3.173 -3.138 10.08458 14.25959 -9.40938   0.416
 3.60 2.25 -3.032 -3.023 -3.009 -2.983 -2.949 10.31008 14.50959 -9.15939   0.539
 3.60 2.50 -2.839 -2.831 -2.816 -2.791 -2.757 10.52879 14.75959 -8.90939   0.693
 3.60 2.75 -2.650 -2.642 -2.629 -2.605 -2.573 10.73933 15.00971 -8.65934   0.883
 3.60 3.00 -2.464 -2.457 -2.444 -2.422 -2.391 10.94171 15.25983 -8.40927   1.115
 3.60 3.20 -2.319 -2.313 -2.301 -2.281 -2.253 11.09717 15.45992 -8.20920   1.334
 3.60 3.40 -2.178 -2.172 -2.162 -2.143 -2.117 11.24740 15.66000 -8.00910   1.586
 3.60 3.60 -2.041 -2.036 -2.026 -2.009 -1.985 11.39211 15.86015 -7.80892   1.873
 3.60 3.80 -1.908 -1.903 -1.895 -1.879 -1.858 11.53215 16.06050 -7.60852   2.200
 3.60 4.00 -1.778 -1.774 -1.766 -1.753 -1.733 11.66811 16.26103 -7.40794   2.573
 3.60 4.20 -1.651 -1.648 -1.641 -1.629 -1.612 11.79966 16.46190 -7.20705   2.994
 3.60 4.40 -1.527 -1.524 -1.519 -1.508 -1.492 11.92972 16.66329 -7.00569   3.478
 3.60 4.60 -1.406 -1.403 -1.398 -1.389 -1.375 12.05821 16.86533 -6.80369   4.032
 3.60 4.80 -1.286 -1.284 -1.280 -1.272 -1.260 12.18625 17.06862 -6.60040   4.673
 3.60 5.00 -1.170 -1.168 -1.164 -1.158 -1.147 12.31429 17.27323 -6.39577   5.415
 3.60 5.20 -1.056 -1.055 -1.052 -1.046 -1.036 12.44484 17.48037 -6.18857   6.293
 3.60 5.40 -0.946 -0.945 -0.943 -0.937 -0.929 12.57777 17.69011 -5.97877   7.334
 3.60 5.60 -0.842 -0.841 -0.839 -0.834 -0.826 12.71435 17.90336 -5.76551   8.583
 3.60 5.80 -0.744 -0.743 -0.741 -0.736 -0.729 12.85543 18.11988 -5.54904  10.097
 3.60 6.00 -0.652 -0.651 -0.649 -0.645 -0.638 13.00000 18.33866 -5.33031  11.926
 3.60 6.25 -0.547 -0.546 -0.544 -0.540 -0.534 13.18747 18.61546 -5.05354  14.798
 3.60 6.50 -0.452 -0.451 -0.449 -0.445 -0.439 13.37493 18.89226 -4.77676  18.361
 3.60 6.75 -0.367 -0.366 -0.364 -0.360 -0.354 13.56145 19.16703 -4.50200  22.758
 3.60 7.00 -0.291 -0.290 -0.288 -0.285 -0.279 13.74648 19.43965 -4.22937  28.161
 3.60 7.25 -0.225 -0.224 -0.223 -0.219 -0.213 13.92366 19.70795 -3.96102  34.530
 3.60 7.50 -0.168 -0.167 -0.165 -0.161 -0.155 14.09412 19.97299 -3.69594  42.015
 3.60 7.75 -0.117 -0.116 -0.114 -0.110 -0.104 14.25645 20.23509 -3.43385  50.653
 3.60 8.00 -0.073 -0.072 -0.069 -0.065 -0.059 14.41111 20.49415 -3.17483  60.537
 3.62-2.00 -3.282 -3.281 -3.279 -3.276 -3.271  7.32408 10.23905-13.43004   0.017
 3.62-1.50 -3.468 -3.467 -3.465 -3.461 -3.455  7.59140 10.73918-12.92996   0.023
 3.62-1.00 -3.636 -3.635 -3.632 -3.628 -3.622  7.86570 11.23930-12.42969   0.032
 3.62-0.50 -3.778 -3.776 -3.773 -3.768 -3.760  8.15229 11.73934-11.92959   0.044
 3.62 0.00 -3.876 -3.873 -3.870 -3.863 -3.853  8.46090 12.23955-11.42957   0.063
 3.62 0.50 -3.899 -3.896 -3.891 -3.881 -3.868  8.80468 12.73942-10.92959   0.093
 3.62 1.00 -3.806 -3.802 -3.795 -3.782 -3.764  9.19700 13.23955-10.42957   0.146
 3.62 1.25 -3.707 -3.702 -3.694 -3.679 -3.659  9.41268 13.48948-10.17958   0.188
 3.62 1.50 -3.575 -3.569 -3.560 -3.543 -3.520  9.63679 13.73941 -9.92959   0.243
 3.62 1.75 -3.413 -3.407 -3.396 -3.378 -3.352  9.86978 13.98948 -9.67953   0.318
 3.62 2.00 -3.229 -3.222 -3.211 -3.191 -3.163 10.10278 14.23955 -9.42946   0.415
 3.62 2.25 -3.030 -3.024 -3.012 -2.991 -2.962 10.33537 14.48952 -9.17953   0.542
 3.62 2.50 -2.825 -2.818 -2.805 -2.784 -2.755 10.56726 14.73949 -8.92959   0.708
 3.62 2.75 -2.619 -2.612 -2.600 -2.579 -2.550 10.79196 14.98951 -8.67947   0.917
 3.62 3.00 -2.415 -2.408 -2.396 -2.376 -2.347 11.01030 15.23955 -8.42934   1.179
 3.62 3.20 -2.256 -2.250 -2.239 -2.219 -2.192 11.17892 15.43960 -8.22929   1.432
 3.62 3.40 -2.101 -2.095 -2.084 -2.066 -2.040 11.34234 15.63968 -8.02925   1.728
 3.62 3.60 -1.950 -1.945 -1.935 -1.917 -1.893 11.50030 15.83980 -7.82916   2.072
 3.62 3.80 -1.804 -1.799 -1.790 -1.774 -1.752 11.65277 16.04000 -7.62895   2.470
 3.62 4.00 -1.662 -1.658 -1.650 -1.635 -1.614 11.80003 16.24030 -7.42864   2.927
 3.62 4.20 -1.525 -1.521 -1.514 -1.501 -1.482 11.94156 16.44078 -7.22819   3.445
 3.62 4.40 -1.392 -1.389 -1.383 -1.371 -1.354 12.07914 16.64154 -7.02747   4.037
 3.62 4.60 -1.263 -1.261 -1.255 -1.245 -1.230 12.21227 16.84266 -6.82639   4.705
 3.62 4.80 -1.138 -1.136 -1.131 -1.122 -1.109 12.34299 17.04455 -6.62451   5.469
 3.62 5.00 -1.016 -1.014 -1.010 -1.003 -0.991 12.47246 17.24724 -6.42182   6.348
 3.62 5.20 -0.898 -0.897 -0.893 -0.886 -0.876 12.60094 17.45143 -6.21757   7.360
 3.62 5.40 -0.784 -0.782 -0.780 -0.774 -0.764 12.72941 17.65751 -6.01142   8.533
 3.62 5.60 -0.675 -0.674 -0.671 -0.666 -0.657 12.85911 17.86616 -5.80273   9.907
 3.62 5.80 -0.572 -0.571 -0.568 -0.564 -0.556 12.99187 18.07811 -5.59080  11.542
 3.62 6.00 -0.475 -0.474 -0.472 -0.467 -0.460 13.12711 18.29292 -5.37603  13.486
 3.62 6.25 -0.364 -0.363 -0.361 -0.357 -0.350 13.30246 18.56717 -5.10173  16.503
 3.62 6.50 -0.264 -0.263 -0.261 -0.256 -0.250 13.48144 18.84267 -4.82623  20.281
 3.62 6.75 -0.173 -0.172 -0.170 -0.166 -0.160 13.66417 19.11900 -4.54996  25.031
 3.62 7.00 -0.092 -0.091 -0.089 -0.085 -0.079 13.84689 19.39533 -4.27368  30.893
 3.62 7.25 -0.021 -0.020 -0.018 -0.013 -0.007 14.02609 19.66746 -4.00158  37.971
 3.62 7.50  0.042  0.043  0.045  0.049  0.055 14.20140 19.93646 -3.73259  46.460
 3.62 7.75  0.097  0.098  0.100  0.105  0.111 14.36863 20.20189 -3.46715  56.325
 3.62 8.00  0.145  0.146  0.148  0.153  0.159 14.52917 20.46389 -3.20509  67.765
 3.64-2.00 -2.948 -2.946 -2.944 -2.940 -2.934  7.67852 10.21827-13.45063   0.025
 3.64-1.50 -3.151 -3.149 -3.147 -3.142 -3.136  7.93817 10.71875-12.95001   0.034
 3.64-1.00 -3.339 -3.338 -3.335 -3.330 -3.323  8.20112 11.21906-12.44989   0.045
 3.64-0.50 -3.506 -3.504 -3.501 -3.495 -3.487  8.46923 11.71925-11.94962   0.062
 3.64 0.00 -3.636 -3.634 -3.630 -3.623 -3.613  8.74663 12.21932-11.44953   0.085
 3.64 0.50 -3.703 -3.700 -3.695 -3.687 -3.675  9.04021 12.71941-10.94962   0.119
 3.64 1.00 -3.670 -3.666 -3.660 -3.650 -3.634  9.36229 13.21959-10.44953   0.173
 3.64 1.25 -3.606 -3.602 -3.595 -3.583 -3.566  9.53874 13.46954-10.19957   0.212
 3.64 1.50 -3.509 -3.504 -3.496 -3.483 -3.464  9.72665 13.71950 -9.94962   0.263
 3.64 1.75 -3.377 -3.372 -3.364 -3.349 -3.327  9.92863 13.96954 -9.69951   0.332
 3.64 2.00 -3.217 -3.211 -3.202 -3.186 -3.163 10.14114 14.21958 -9.44940   0.424
 3.64 2.25 -3.032 -3.026 -3.016 -2.999 -2.974 10.36511 14.46954 -9.19951   0.548
 3.64 2.50 -2.830 -2.824 -2.814 -2.796 -2.771 10.59195 14.71950 -8.94962   0.712
 3.64 2.75 -2.619 -2.613 -2.603 -2.584 -2.559 10.82078 14.96954 -8.69951   0.927
 3.64 3.00 -2.405 -2.399 -2.388 -2.369 -2.344 11.04961 15.21958 -8.44940   1.206
 3.64 3.20 -2.235 -2.229 -2.218 -2.200 -2.175 11.22809 15.41962 -8.24934   1.481
 3.64 3.40 -2.067 -2.061 -2.051 -2.033 -2.008 11.40292 15.61965 -8.04927   1.811
 3.64 3.60 -1.902 -1.897 -1.887 -1.870 -1.846 11.57337 15.81972 -7.84919   2.203
 3.64 3.80 -1.742 -1.737 -1.728 -1.712 -1.689 11.73833 16.01989 -7.64907   2.664
 3.64 4.00 -1.587 -1.582 -1.574 -1.558 -1.537 11.89818 16.22011 -7.44892   3.203
 3.64 4.20 -1.437 -1.433 -1.425 -1.411 -1.391 12.05215 16.42035 -7.24868   3.824
 3.64 4.40 -1.291 -1.288 -1.281 -1.268 -1.250 12.20098 16.62070 -7.04831   4.539
 3.64 4.60 -1.151 -1.148 -1.142 -1.131 -1.114 12.34428 16.82123 -6.84773   5.353
 3.64 4.80 -1.016 -1.014 -1.009 -0.999 -0.983 12.48309 17.02225 -6.64668   6.281
 3.64 5.00 -0.886 -0.884 -0.879 -0.870 -0.857 12.61815 17.22375 -6.44515   7.337
 3.64 5.20 -0.760 -0.758 -0.755 -0.747 -0.735 12.74898 17.42623 -6.24269   8.529
 3.64 5.40 -0.639 -0.637 -0.634 -0.628 -0.617 12.87907 17.62997 -6.03899   9.907
 3.64 5.60 -0.523 -0.522 -0.519 -0.513 -0.504 13.00846 17.83536 -5.83362  11.499
 3.64 5.80 -0.414 -0.413 -0.410 -0.405 -0.396 13.13770 18.04333 -5.62563  13.344
 3.64 6.00 -0.311 -0.310 -0.307 -0.302 -0.294 13.26694 18.25382 -5.41510  15.486
 3.64 6.25 -0.192 -0.191 -0.189 -0.184 -0.176 13.43315 18.52269 -5.14619  18.751
 3.64 6.50 -0.085 -0.084 -0.082 -0.077 -0.070 13.60282 18.79532 -4.87354  22.795
 3.64 6.75  0.009  0.010  0.013  0.017  0.024 13.77808 19.07211 -4.59683  27.892
 3.64 7.00  0.095  0.096  0.098  0.102  0.109 13.95381 19.34889 -4.32012  34.146
 3.64 7.25  0.170  0.171  0.173  0.178  0.185 14.12980 19.62389 -4.04515  41.815
 3.64 7.50  0.237  0.238  0.241  0.245  0.252 14.30578 19.89691 -3.77211  51.206
 3.64 7.75  0.296  0.297  0.300  0.305  0.312 14.47507 20.16583 -3.50321  62.225
 3.64 8.00  0.347  0.349  0.351  0.356  0.364 14.63988 20.43136 -3.23770  75.227
 3.66-2.00 -2.607 -2.605 -2.603 -2.598 -2.592  8.02612 10.19673-13.47237   0.036
 3.66-1.50 -2.823 -2.821 -2.818 -2.813 -2.806  8.28240 10.69784-12.97102   0.049
 3.66-1.00 -3.027 -3.025 -3.021 -3.016 -3.008  8.54008 11.19866-12.47044   0.066
 3.66-0.50 -3.211 -3.209 -3.205 -3.199 -3.189  8.80003 11.69897-11.97021   0.088
 3.66 0.00 -3.363 -3.360 -3.356 -3.348 -3.337  9.06371 12.19921-11.46980   0.120
 3.66 0.50 -3.456 -3.453 -3.448 -3.439 -3.426  9.33465 12.69932-10.96980   0.164
 3.66 1.00 -3.457 -3.454 -3.448 -3.437 -3.422  9.61815 13.19948-10.46954   0.227
 3.66 1.25 -3.416 -3.413 -3.406 -3.394 -3.378  9.76748 13.44944-10.21945   0.269
 3.66 1.50 -3.347 -3.343 -3.336 -3.323 -3.305  9.92361 13.69940 -9.96940   0.322
 3.66 1.75 -3.248 -3.244 -3.236 -3.222 -3.203 10.08910 13.94944 -9.71947   0.390
 3.66 2.00 -3.123 -3.119 -3.110 -3.095 -3.075 10.26482 14.19948 -9.46954   0.477
 3.66 2.25 -2.973 -2.967 -2.958 -2.943 -2.921 10.45362 14.44949 -9.21947   0.593
 3.66 2.50 -2.800 -2.795 -2.785 -2.769 -2.746 10.65370 14.69949 -8.96940   0.747
 3.66 2.75 -2.609 -2.603 -2.593 -2.576 -2.552 10.86664 14.94949 -8.71941   0.955
 3.66 3.00 -2.404 -2.398 -2.388 -2.370 -2.346 11.08529 15.19948 -8.46942   1.228
 3.66 3.20 -2.234 -2.228 -2.218 -2.200 -2.176 11.26417 15.39951 -8.26942   1.509
 3.66 3.40 -2.061 -2.055 -2.045 -2.028 -2.004 11.44306 15.59955 -8.06941   1.853
 3.66 3.60 -1.889 -1.883 -1.873 -1.856 -1.832 11.62067 15.79960 -7.86937   2.273
 3.66 3.80 -1.718 -1.713 -1.704 -1.687 -1.664 11.79478 15.99967 -7.66929   2.778
 3.66 4.00 -1.551 -1.546 -1.537 -1.521 -1.499 11.96591 16.19976 -7.46916   3.384
 3.66 4.20 -1.388 -1.383 -1.375 -1.360 -1.339 12.13144 16.39990 -7.26899   4.095
 3.66 4.40 -1.229 -1.225 -1.218 -1.204 -1.184 12.29205 16.60013 -7.06875   4.926
 3.66 4.60 -1.076 -1.073 -1.066 -1.053 -1.035 12.44734 16.80047 -6.86840   5.890
 3.66 4.80 -0.928 -0.925 -0.920 -0.908 -0.892 12.59725 17.00107 -6.66782   7.000
 3.66 5.00 -0.786 -0.783 -0.778 -0.768 -0.753 12.74218 17.20194 -6.46699   8.270
 3.66 5.20 -0.650 -0.648 -0.643 -0.635 -0.621 12.88149 17.40337 -6.26564   9.710
 3.66 5.40 -0.519 -0.517 -0.513 -0.506 -0.494 13.01747 17.60558 -6.06352  11.356
 3.66 5.60 -0.394 -0.393 -0.390 -0.383 -0.372 13.14948 17.80882 -5.86032  13.219
 3.66 5.80 -0.277 -0.276 -0.273 -0.267 -0.257 13.27993 18.01391 -5.65515  15.359
 3.66 6.00 -0.166 -0.164 -0.162 -0.156 -0.147 13.41027 18.22089 -5.44806  17.845
 3.66 6.25 -0.037 -0.036 -0.034 -0.028 -0.020 13.57314 18.48436 -5.18469  21.526
 3.66 6.50  0.078  0.079  0.082  0.087  0.095 13.73600 18.75228 -4.91686  25.966
 3.66 6.75  0.182  0.183  0.185  0.190  0.199 13.90316 19.02645 -4.64255  31.477
 3.66 7.00  0.273  0.274  0.276  0.282  0.290 14.07225 19.30190 -4.36704  38.243
 3.66 7.25  0.352  0.353  0.356  0.361  0.369 14.24345 19.57819 -4.09075  46.574
 3.66 7.50  0.422  0.423  0.426  0.431  0.439 14.41464 19.85449 -3.81446  56.720
 3.66 7.75  0.483  0.484  0.487  0.493  0.501 14.58255 20.12664 -3.54235  68.815
 3.66 8.00  0.537  0.538  0.541  0.546  0.555 14.74827 20.39602 -3.27303  83.279
 3.68-2.00 -2.267 -2.265 -2.263 -2.258 -2.251  8.35984 10.17290-13.49607   0.052
 3.68-1.50 -2.492 -2.490 -2.487 -2.482 -2.474  8.61521 10.67578-12.99311   0.070
 3.68-1.00 -2.707 -2.705 -2.701 -2.695 -2.686  8.87070 11.17754-12.49160   0.094
 3.68-0.50 -2.905 -2.902 -2.898 -2.891 -2.881  9.12710 11.67834-11.99055   0.126
 3.68 0.00 -3.073 -3.070 -3.065 -3.056 -3.044  9.38489 12.17898-11.49013   0.169
 3.68 0.50 -3.185 -3.181 -3.175 -3.166 -3.152  9.64581 12.67916-10.98970   0.229
 3.68 1.00 -3.207 -3.203 -3.197 -3.185 -3.169  9.91217 13.17927-10.48972   0.311
 3.68 1.25 -3.179 -3.174 -3.167 -3.155 -3.138 10.04869 13.42930-10.23972   0.364
 3.68 1.50 -3.124 -3.119 -3.112 -3.099 -3.080 10.18837 13.67934 -9.98970   0.427
 3.68 1.75 -3.044 -3.040 -3.032 -3.018 -2.998 10.33257 13.92945 -9.73958   0.504
 3.68 2.00 -2.943 -2.938 -2.930 -2.915 -2.894 10.48230 14.17955 -9.48946   0.599
 3.68 2.25 -2.822 -2.817 -2.808 -2.792 -2.770 10.63964 14.42949 -9.23958   0.718
 3.68 2.50 -2.683 -2.677 -2.668 -2.652 -2.630 10.80571 14.67943 -8.98970   0.870
 3.68 2.75 -2.526 -2.520 -2.511 -2.494 -2.471 10.98341 14.92949 -8.73958   1.067
 3.68 3.00 -2.353 -2.347 -2.337 -2.320 -2.297 11.17202 15.17955 -8.48946   1.326
 3.68 3.20 -2.203 -2.197 -2.187 -2.169 -2.146 11.33264 15.37954 -8.28937   1.595
 3.68 3.40 -2.044 -2.038 -2.028 -2.011 -1.987 11.49809 15.57953 -8.08930   1.930
 3.68 3.60 -1.879 -1.873 -1.864 -1.846 -1.822 11.66934 15.77952 -7.88929   2.350
 3.68 3.80 -1.710 -1.704 -1.695 -1.678 -1.654 11.84277 15.97953 -7.68930   2.869
 3.68 4.00 -1.539 -1.534 -1.525 -1.508 -1.485 12.01620 16.17955 -7.48932   3.503
 3.68 4.20 -1.368 -1.364 -1.355 -1.339 -1.317 12.18763 16.37966 -7.28919   4.267
 3.68 4.40 -1.200 -1.196 -1.188 -1.173 -1.152 12.35692 16.57985 -7.08898   5.186
 3.68 4.60 -1.036 -1.032 -1.025 -1.011 -0.991 12.52270 16.78010 -6.88873   6.277
 3.68 4.80 -0.875 -0.872 -0.866 -0.853 -0.835 12.68314 16.98047 -6.68841   7.551
 3.68 5.00 -0.720 -0.717 -0.712 -0.701 -0.684 12.83897 17.18099 -6.48798   9.035
 3.68 5.20 -0.572 -0.569 -0.564 -0.555 -0.540 12.98909 17.38182 -6.28718  10.739
 3.68 5.40 -0.428 -0.426 -0.422 -0.414 -0.401 13.13452 17.58312 -6.08589  12.696
 3.68 5.60 -0.293 -0.291 -0.288 -0.280 -0.268 13.27474 17.78507 -5.88395  14.920
 3.68 5.80 -0.166 -0.164 -0.161 -0.154 -0.143 13.41118 17.98831 -5.68075  17.459
 3.68 6.00 -0.044 -0.043 -0.040 -0.034 -0.023 13.54481 18.19285 -5.47625  20.364
 3.68 6.25  0.094  0.096  0.098  0.105  0.114 13.70802 18.45186 -5.21726  24.573
 3.68 6.50  0.222  0.224  0.226  0.232  0.242 13.87122 18.71483 -4.95429  29.652
 3.68 6.75  0.337  0.338  0.341  0.347  0.356 14.03473 18.98408 -4.68499  35.795
 3.68 7.00  0.438  0.439  0.442  0.447  0.456 14.19866 19.25696 -4.41206  43.233
 3.68 7.25  0.524  0.525  0.528  0.534  0.543 14.36468 19.53373 -4.13531  52.336
 3.68 7.50  0.598  0.599  0.602  0.608  0.617 14.53071 19.81050 -3.85855  63.356
 3.68 7.75  0.661  0.663  0.665  0.671  0.681 14.69506 20.08512 -3.58391  76.553
 3.68 8.00  0.716  0.717  0.720  0.727  0.736 14.85830 20.35832 -3.31069  92.383
 3.70-2.00 -1.933 -1.931 -1.929 -1.924 -1.916  8.67706 10.14489-13.52404   0.073
 3.70-1.50 -2.163 -2.162 -2.159 -2.153 -2.144  8.93500 10.65118-13.01777   0.099
 3.70-1.00 -2.385 -2.383 -2.380 -2.373 -2.363  9.19089 11.15473-12.51414   0.132
 3.70-0.50 -2.593 -2.591 -2.586 -2.579 -2.567  9.44592 11.65687-12.01216   0.178
 3.70 0.00 -2.774 -2.771 -2.765 -2.756 -2.743  9.70131 12.15806-11.51103   0.238
 3.70 0.50 -2.901 -2.897 -2.891 -2.881 -2.865  9.95780 12.65858-11.01037   0.320
 3.70 1.00 -2.941 -2.937 -2.930 -2.917 -2.899 10.21669 13.15897-10.50990   0.431
 3.70 1.25 -2.921 -2.916 -2.908 -2.895 -2.876 10.34752 13.40907-10.25985   0.501
 3.70 1.50 -2.875 -2.870 -2.862 -2.847 -2.827 10.47972 13.65915-10.00979   0.584
 3.70 1.75 -2.805 -2.800 -2.791 -2.776 -2.755 10.61401 13.90922 -9.75971   0.682
 3.70 2.00 -2.716 -2.711 -2.702 -2.686 -2.665 10.75089 14.15927 -9.50962   0.798
 3.70 2.25 -2.611 -2.606 -2.596 -2.580 -2.557 10.89131 14.40931 -9.25962   0.938
 3.70 2.50 -2.492 -2.487 -2.477 -2.460 -2.437 11.03623 14.65935 -9.00962   1.108
 3.70 2.75 -2.361 -2.355 -2.345 -2.328 -2.304 11.18758 14.90946 -8.75955   1.319
 3.70 3.00 -2.218 -2.212 -2.202 -2.184 -2.160 11.34635 15.15957 -8.50948   1.583
 3.70 3.20 -2.093 -2.087 -2.077 -2.059 -2.035 11.48039 15.35952 -8.30950   1.847
 3.70 3.40 -1.961 -1.955 -1.945 -1.927 -1.903 11.62079 15.55947 -8.10952   2.172
 3.70 3.60 -1.820 -1.814 -1.804 -1.786 -1.762 11.76876 15.75946 -7.90949   2.575
 3.70 3.80 -1.670 -1.665 -1.655 -1.637 -1.613 11.92349 15.95951 -7.70942   3.077
 3.70 4.00 -1.514 -1.508 -1.499 -1.481 -1.457 12.08350 16.15957 -7.50934   3.700
 3.70 4.20 -1.350 -1.345 -1.336 -1.319 -1.296 12.25025 16.35962 -7.30931   4.483
 3.70 4.40 -1.184 -1.179 -1.171 -1.155 -1.132 12.41700 16.55969 -7.10928   5.431
 3.70 4.60 -1.016 -1.012 -1.004 -0.989 -0.968 12.58355 16.75982 -6.90920   6.579
 3.70 4.80 -0.849 -0.845 -0.838 -0.825 -0.805 12.74918 16.96008 -6.70898   7.961
 3.70 5.00 -0.684 -0.681 -0.675 -0.663 -0.644 12.91387 17.16047 -6.50864   9.624
 3.70 5.20 -0.525 -0.522 -0.517 -0.506 -0.489 13.07301 17.36097 -6.30813  11.559
 3.70 5.40 -0.369 -0.367 -0.363 -0.353 -0.338 13.22795 17.56172 -6.10734  13.816
 3.70 5.60 -0.222 -0.220 -0.216 -0.208 -0.194 13.37801 17.76285 -5.90615  16.421
 3.70 5.80 -0.083 -0.081 -0.078 -0.070 -0.057 13.52320 17.96481 -5.70414  19.409
 3.70 6.00  0.049  0.051  0.054  0.061  0.073 13.66417 18.16761 -5.50128  22.830
 3.70 6.25  0.202  0.203  0.206  0.213  0.224 13.83425 18.42351 -5.24534  27.771
 3.70 6.50  0.343  0.344  0.347  0.354  0.365 14.00087 18.68251 -4.98632  33.645
 3.70 6.75  0.470  0.471  0.474  0.481  0.491 14.16463 18.94671 -4.72210  40.623
 3.70 7.00  0.583  0.584  0.587  0.594  0.604 14.32777 19.21537 -4.45346  49.014
 3.70 7.25  0.680  0.681  0.684  0.690  0.701 14.49077 19.49026 -4.17869  59.129
 3.70 7.50  0.762  0.763  0.766  0.773  0.783 14.65321 19.76589 -3.90309  71.287
 3.70 7.75  0.830  0.831  0.834  0.841  0.851 14.81409 20.04177 -3.62721  85.792
 3.70 8.00  0.887  0.888  0.891  0.898  0.909 14.97373 20.31806 -3.35086 103.104
 3.73-2.00 -1.451 -1.449 -1.447 -1.441 -1.433  9.10653 10.08636-13.58270   0.116
 3.73-1.50 -1.683 -1.681 -1.678 -1.672 -1.662  9.37785 10.60455-13.06449   0.159
 3.73-1.00 -1.909 -1.907 -1.903 -1.897 -1.886  9.64048 11.11528-12.55377   0.215
 3.73-0.50 -2.124 -2.121 -2.117 -2.110 -2.098  9.89823 11.62138-12.04760   0.289
 3.73 0.00 -2.316 -2.313 -2.308 -2.299 -2.285 10.15382 12.12483-11.54409   0.388
 3.73 0.50 -2.461 -2.458 -2.451 -2.440 -2.424 10.40858 12.62685-11.04206   0.520
 3.73 1.00 -2.524 -2.520 -2.512 -2.499 -2.480 10.66342 13.12808-10.54091   0.697
 3.73 1.25 -2.516 -2.511 -2.503 -2.488 -2.468 10.79114 13.37843-10.29057   0.807
 3.73 1.50 -2.481 -2.476 -2.467 -2.452 -2.430 10.91918 13.62870-10.04029   0.935
 3.73 1.75 -2.422 -2.417 -2.408 -2.392 -2.369 11.04783 13.87890 -9.79004   1.084
 3.73 2.00 -2.345 -2.339 -2.330 -2.313 -2.290 11.17725 14.12905 -9.53985   1.259
 3.73 2.25 -2.252 -2.247 -2.237 -2.220 -2.196 11.30786 14.37913 -9.28979   1.464
 3.73 2.50 -2.149 -2.143 -2.133 -2.115 -2.091 11.43996 14.62921 -9.03972   1.704
 3.73 2.75 -2.036 -2.030 -2.019 -2.001 -1.976 11.57411 14.87929 -8.78964   1.988
 3.73 3.00 -1.915 -1.910 -1.899 -1.881 -1.855 11.71088 15.12937 -8.53955   2.327
 3.73 3.20 -1.814 -1.808 -1.797 -1.779 -1.753 11.82290 15.32938 -8.33954   2.647
 3.73 3.40 -1.708 -1.702 -1.691 -1.673 -1.647 11.93783 15.52940 -8.13953   3.022
 3.73 3.60 -1.597 -1.591 -1.580 -1.562 -1.536 12.05604 15.72947 -7.93950   3.463
 3.73 3.80 -1.480 -1.474 -1.464 -1.445 -1.419 12.17875 15.92958 -7.73945   3.989
 3.73 4.00 -1.358 -1.352 -1.342 -1.323 -1.298 12.30600 16.12969 -7.53940   4.618
 3.73 4.20 -1.227 -1.222 -1.212 -1.194 -1.169 12.43944 16.32966 -7.33940   5.385
 3.73 4.40 -1.091 -1.085 -1.076 -1.059 -1.034 12.57844 16.52963 -7.13939   6.319
 3.73 4.60 -0.946 -0.941 -0.933 -0.916 -0.892 12.72407 16.72966 -6.93936   7.473
 3.73 4.80 -0.794 -0.790 -0.782 -0.767 -0.744 12.87478 16.92981 -6.73926   8.889
 3.73 5.00 -0.638 -0.635 -0.628 -0.614 -0.592 13.02898 17.13001 -6.53910  10.616
 3.73 5.20 -0.478 -0.475 -0.469 -0.456 -0.437 13.18688 17.33023 -6.33885  12.732
 3.73 5.40 -0.317 -0.315 -0.310 -0.298 -0.280 13.34479 17.53054 -6.13845  15.269
 3.73 5.60 -0.160 -0.157 -0.153 -0.143 -0.127 13.50184 17.73106 -5.93788  18.295
 3.73 5.80 -0.007 -0.005  0.000  0.008  0.023 13.65639 17.93206 -5.73691  21.858
 3.73 6.00  0.142  0.143  0.147  0.155  0.169 13.80875 18.13354 -5.53551  26.050
 3.73 6.25  0.313  0.315  0.318  0.326  0.340 13.99248 18.38655 -5.28246  32.186
 3.73 6.50  0.475  0.476  0.480  0.488  0.501 14.17056 18.64137 -5.02757  39.508
 3.73 6.75  0.622  0.624  0.628  0.635  0.648 14.34250 18.89974 -4.76925  48.157
 3.73 7.00  0.757  0.758  0.762  0.769  0.782 14.51028 19.16197 -4.50710  58.419
 3.73 7.25  0.874  0.876  0.879  0.887  0.899 14.67495 19.43007 -4.23902  70.615
 3.73 7.50  0.974  0.976  0.979  0.987  0.999 14.83664 19.70209 -3.96698  85.065
 3.73 7.75  1.056  1.058  1.061  1.069  1.081 14.99580 19.97705 -3.69196 102.172
 3.73 8.00  1.123  1.124  1.128  1.135  1.148 15.15229 20.25527 -3.41364 122.340
 3.76-2.00 -1.011 -1.010 -1.007 -1.001 -0.992  9.44979  9.98954-13.67944   0.166
 3.76-1.50 -1.228 -1.226 -1.223 -1.217 -1.207  9.75929 10.53186-13.13715   0.238
 3.76-1.00 -1.447 -1.446 -1.442 -1.436 -1.425 10.04376 11.05956-12.60942   0.330
 3.76-0.50 -1.660 -1.658 -1.654 -1.647 -1.635 10.31345 11.57646-12.09254   0.450
 3.76 0.00 -1.854 -1.851 -1.847 -1.838 -1.825 10.57507 12.08636-11.58253   0.608
 3.76 0.50 -2.007 -2.004 -1.999 -1.988 -1.972 10.83232 12.59207-11.07691   0.818
 3.76 1.00 -2.088 -2.084 -2.077 -2.064 -2.045 11.08743 13.09517-10.57365   1.097
 3.76 1.25 -2.092 -2.087 -2.079 -2.065 -2.045 11.21463 13.34628-10.32264   1.270
 3.76 1.50 -2.069 -2.064 -2.056 -2.041 -2.019 11.34183 13.59715-10.07186   1.470
 3.76 1.75 -2.023 -2.018 -2.009 -1.993 -1.970 11.46904 13.84781 -9.82122   1.702
 3.76 2.00 -1.956 -1.951 -1.942 -1.926 -1.902 11.59627 14.09830 -9.57073   1.970
 3.76 2.25 -1.874 -1.869 -1.860 -1.843 -1.818 11.72384 14.34859 -9.32044   2.282
 3.76 2.50 -1.781 -1.776 -1.766 -1.749 -1.724 11.85181 14.59879 -9.07022   2.645
 3.76 2.75 -1.679 -1.673 -1.663 -1.646 -1.621 11.98044 14.84889 -8.82006   3.067
 3.76 3.00 -1.570 -1.565 -1.555 -1.537 -1.511 12.10992 15.09899 -8.56993   3.560
 3.76 3.20 -1.479 -1.474 -1.464 -1.445 -1.419 12.21441 15.29908 -8.36983   4.015
 3.76 3.40 -1.385 -1.380 -1.370 -1.351 -1.325 12.31994 15.49918 -8.16975   4.534
 3.76 3.60 -1.288 -1.283 -1.273 -1.254 -1.228 12.42664 15.69925 -7.96969   5.126
 3.76 3.80 -1.188 -1.183 -1.173 -1.154 -1.127 12.53508 15.89929 -7.76964   5.808
 3.76 4.00 -1.085 -1.080 -1.070 -1.051 -1.024 12.64532 16.09934 -7.56960   6.593
 3.76 4.20 -0.977 -0.972 -0.962 -0.944 -0.917 12.75804 16.29938 -7.36957   7.507
 3.76 4.40 -0.866 -0.861 -0.851 -0.833 -0.807 12.87369 16.49943 -7.16953   8.576
 3.76 4.60 -0.749 -0.744 -0.735 -0.718 -0.692 12.99271 16.69948 -6.96948   9.835
 3.76 4.80 -0.626 -0.622 -0.613 -0.597 -0.572 13.11602 16.89957 -6.76939  11.336
 3.76 5.00 -0.499 -0.495 -0.487 -0.472 -0.448 13.24353 17.09968 -6.56928  13.128
 3.76 5.20 -0.364 -0.360 -0.353 -0.339 -0.317 13.37655 17.29981 -6.36915  15.301
 3.76 5.40 -0.223 -0.220 -0.214 -0.202 -0.181 13.51379 17.49999 -6.16896  17.920
 3.76 5.60 -0.080 -0.077 -0.072 -0.060 -0.042 13.65624 17.70025 -5.96869  21.114
 3.76 5.80  0.065  0.068  0.072  0.083  0.100 13.80165 17.90072 -5.76821  24.961
 3.76 6.00  0.213  0.215  0.220  0.229  0.245 13.94827 18.10140 -5.56751  29.550
 3.76 6.25  0.390  0.392  0.396  0.405  0.421 14.13264 18.35299 -5.31596  36.539
 3.76 6.50  0.563  0.565  0.569  0.578  0.593 14.31702 18.60563 -5.06339  45.180
 3.76 6.75  0.727  0.729  0.733  0.742  0.756 14.49680 18.86018 -4.80878  55.569
 3.76 7.00  0.881  0.883  0.887  0.896  0.910 14.67274 19.11727 -4.55160  68.046
 3.76 7.25  1.020  1.021  1.025  1.034  1.048 14.84356 19.37891 -4.28999  82.838
 3.76 7.50  1.142  1.144  1.148  1.156  1.171 15.00988 19.64493 -4.02402 100.324
 3.76 7.75  1.244  1.246  1.250  1.259  1.273 15.17192 19.91604 -3.75290 120.896
 3.76 8.00  1.328  1.330  1.334  1.342  1.356 15.32960 20.19201 -3.47690 144.950
 3.79-2.00 -0.686 -0.684 -0.681 -0.675 -0.665  9.64856  9.86261-13.80632   0.202
 3.79-1.50 -0.835 -0.833 -0.830 -0.824 -0.813 10.03623 10.41913-13.24980   0.316
 3.79-1.00 -1.020 -1.018 -1.015 -1.008 -0.998 10.37365 10.97192-12.69702   0.466
 3.79-0.50 -1.214 -1.212 -1.209 -1.202 -1.190 10.67541 11.51028-12.15870   0.659
 3.79 0.00 -1.397 -1.395 -1.391 -1.383 -1.370 10.95521 12.03503-11.63414   0.910
 3.79 0.50 -1.546 -1.543 -1.539 -1.529 -1.515 11.22246 12.54949-11.11947   1.238
 3.79 1.00 -1.634 -1.631 -1.625 -1.614 -1.596 11.48259 13.05805-10.61083   1.670
 3.79 1.25 -1.647 -1.644 -1.637 -1.624 -1.605 11.61105 13.31085-10.35807   1.936
 3.79 1.50 -1.637 -1.633 -1.626 -1.612 -1.592 11.73894 13.56301-10.10596   2.243
 3.79 1.75 -1.604 -1.600 -1.592 -1.578 -1.556 11.86638 13.81470 -9.85433   2.598
 3.79 2.00 -1.551 -1.547 -1.539 -1.524 -1.502 11.99361 14.06595 -9.60310   3.008
 3.79 2.25 -1.482 -1.478 -1.469 -1.454 -1.431 12.12067 14.31678 -9.35221   3.481
 3.79 2.50 -1.400 -1.396 -1.387 -1.371 -1.348 12.24773 14.56738 -9.10155   4.029
 3.79 2.75 -1.309 -1.304 -1.296 -1.280 -1.256 12.37484 14.81782 -8.85105   4.664
 3.79 3.00 -1.211 -1.206 -1.197 -1.181 -1.157 12.50202 15.06819 -8.60067   5.400
 3.79 3.20 -1.128 -1.123 -1.114 -1.098 -1.073 12.60406 15.26844 -8.40045   6.073
 3.79 3.40 -1.043 -1.038 -1.029 -1.012 -0.987 12.70641 15.46868 -8.20026   6.833
 3.79 3.60 -0.955 -0.950 -0.940 -0.923 -0.898 12.80915 15.66890 -8.00009   7.692
 3.79 3.80 -0.864 -0.859 -0.850 -0.832 -0.807 12.91255 15.86911 -7.79994   8.664
 3.79 4.00 -0.772 -0.767 -0.757 -0.739 -0.713 13.01662 16.06930 -7.59981   9.767
 3.79 4.20 -0.676 -0.671 -0.661 -0.643 -0.617 13.12160 16.26928 -7.39976  11.022
 3.79 4.40 -0.577 -0.573 -0.563 -0.545 -0.519 13.22775 16.46926 -7.19971  12.454
 3.79 4.60 -0.476 -0.471 -0.462 -0.445 -0.419 13.33520 16.66934 -6.99964  14.094
 3.79 4.80 -0.370 -0.366 -0.357 -0.340 -0.315 13.44454 16.86950 -6.79955  15.985
 3.79 5.00 -0.262 -0.258 -0.250 -0.234 -0.209 13.55582 17.06967 -6.59946  18.170
 3.79 5.20 -0.148 -0.144 -0.137 -0.122 -0.098 13.66972 17.26969 -6.39938  20.716
 3.79 5.40 -0.030 -0.027 -0.020 -0.006  0.014 13.78650 17.46971 -6.19929  23.696
 3.79 5.60  0.091  0.093  0.099  0.112  0.132 13.90656 17.66979 -5.99915  27.207
 3.79 5.80  0.216  0.218  0.223  0.235  0.254 14.03031 17.87003 -5.79885  31.371
 3.79 6.00  0.345  0.347  0.351  0.361  0.379 14.15746 18.07041 -5.59843  36.315
 3.79 6.25  0.502  0.504  0.509  0.519  0.536 14.32189 18.32120 -5.34766  43.888
 3.79 6.50  0.663  0.665  0.669  0.679  0.696 14.49010 18.57253 -5.09642  53.270
 3.79 6.75  0.824  0.825  0.830  0.840  0.856 14.66229 18.82492 -4.84402  64.948
 3.79 7.00  0.982  0.984  0.988  0.998  1.014 14.83448 19.07882 -4.59007  79.187
 3.79 7.25  1.132  1.134  1.138  1.148  1.164 15.00549 19.33566 -4.33326  96.417
 3.79 7.50  1.272  1.274  1.278  1.288  1.303 15.17493 19.59594 -4.07304 117.186
 3.79 7.75  1.394  1.396  1.400  1.410  1.425 15.33953 19.86158 -3.80745 141.639
 3.79 8.00  1.499  1.501  1.505  1.514  1.530 15.50037 20.13194 -3.53715 170.459
 3.82-2.00 -0.550 -0.548 -0.545 -0.538 -0.526  9.69819  9.77576-13.89313   0.207
 3.82-1.50 -0.593 -0.592 -0.588 -0.581 -0.569 10.16227 10.30363-13.36542   0.353
 3.82-1.00 -0.684 -0.682 -0.679 -0.671 -0.660 10.58377 10.85260-12.81645   0.573
 3.82-0.50 -0.816 -0.815 -0.811 -0.804 -0.793 10.95177 11.40976-12.25916   0.876
 3.82 0.00 -0.962 -0.960 -0.957 -0.950 -0.938 11.27439 11.95780-11.71130   1.269
 3.82 0.50 -1.090 -1.088 -1.084 -1.075 -1.062 11.56667 12.49066-11.17836   1.777
 3.82 1.00 -1.172 -1.169 -1.164 -1.154 -1.139 11.84098 13.01115-10.65777   2.437
 3.82 1.25 -1.188 -1.185 -1.180 -1.169 -1.152 11.97399 13.26798-10.40098   2.840
 3.82 1.50 -1.186 -1.183 -1.177 -1.165 -1.147 12.10517 13.52323-10.14575   3.303
 3.82 1.75 -1.165 -1.162 -1.155 -1.143 -1.124 12.23488 13.77717 -9.89172   3.835
 3.82 2.00 -1.126 -1.123 -1.116 -1.103 -1.083 12.36361 14.03020 -9.63865   4.448
 3.82 2.25 -1.072 -1.068 -1.061 -1.047 -1.027 12.49159 14.28251 -9.38641   5.155
 3.82 2.50 -1.004 -1.001 -0.993 -0.979 -0.958 12.61909 14.53428 -9.13472   5.970
 3.82 2.75 -0.926 -0.923 -0.915 -0.901 -0.880 12.74620 14.78563 -8.88343   6.911
 3.82 3.00 -0.841 -0.837 -0.829 -0.814 -0.793 12.87321 15.03663 -8.63246   7.999
 3.82 3.20 -0.767 -0.763 -0.755 -0.740 -0.719 12.97477 15.23717 -8.43187   8.991
 3.82 3.40 -0.690 -0.686 -0.678 -0.663 -0.641 13.07633 15.43763 -8.23138  10.106
 3.82 3.60 -0.611 -0.607 -0.599 -0.583 -0.560 13.17794 15.63801 -8.03099  11.360
 3.82 3.80 -0.529 -0.525 -0.516 -0.500 -0.477 13.27972 15.83835 -7.83067  12.772
 3.82 4.00 -0.445 -0.440 -0.432 -0.416 -0.392 13.38166 16.03862 -7.63041  14.363
 3.82 4.20 -0.357 -0.353 -0.345 -0.328 -0.304 13.48395 16.23875 -7.43024  16.159
 3.82 4.40 -0.269 -0.264 -0.256 -0.239 -0.214 13.58667 16.43888 -7.23008  18.187
 3.82 4.60 -0.177 -0.173 -0.164 -0.148 -0.123 13.68989 16.63904 -7.02993  20.483
 3.82 4.80 -0.082 -0.078 -0.070 -0.054 -0.029 13.79388 16.83923 -6.82979  23.087
 3.82 5.00  0.014  0.018  0.025  0.041  0.066 13.89867 17.03941 -6.62967  26.047
 3.82 5.20  0.115  0.119  0.126  0.141  0.165 14.00456 17.23943 -6.42962  29.423
 3.82 5.40  0.219  0.222  0.229  0.243  0.266 14.11175 17.43945 -6.22956  33.287
 3.82 5.60  0.326  0.329  0.335  0.348  0.369 14.22039 17.63949 -6.02949  37.721
 3.82 5.80  0.436  0.439  0.444  0.456  0.476 14.33095 17.83961 -5.82933  42.840
 3.82 6.00  0.549  0.551  0.556  0.566  0.585 14.44342 18.03981 -5.62912  48.763
 3.82 6.25  0.686  0.688  0.693  0.703  0.721 14.58745 18.29024 -5.37870  57.560
 3.82 6.50  0.827  0.829  0.833  0.843  0.861 14.73520 18.54096 -5.12802  68.238
 3.82 6.75  0.969  0.971  0.976  0.986  1.004 14.88729 18.79216 -4.87677  81.307
 3.82 7.00  1.114  1.116  1.120  1.131  1.148 15.04258 19.04415 -4.62470  97.228
 3.82 7.25  1.258  1.260  1.264  1.274  1.291 15.20168 19.29786 -4.37103 116.756
 3.82 7.50  1.398  1.400  1.405  1.415  1.432 15.36078 19.55376 -4.11521 140.207
 3.82 7.75  1.529  1.531  1.535  1.545  1.562 15.51933 19.81382 -3.85516 168.282
 3.82 8.00  1.648  1.650  1.654  1.664  1.680 15.67752 20.07737 -3.59159 201.911
 3.85-2.00 -0.521 -0.519 -0.516 -0.508 -0.495  9.68458  9.73159-13.93742   0.197
 3.85-1.50 -0.517 -0.515 -0.511 -0.502 -0.488 10.17696 10.23830-13.43074   0.347
 3.85-1.00 -0.519 -0.517 -0.513 -0.505 -0.491 10.65543 10.75618-12.91293   0.601
 3.85-0.50 -0.544 -0.542 -0.538 -0.530 -0.518 11.10209 11.29425-12.37479   1.006
 3.85 0.00 -0.601 -0.599 -0.595 -0.588 -0.576 11.49872 11.84960-11.81930   1.588
 3.85 0.50 -0.670 -0.668 -0.664 -0.657 -0.645 11.84373 12.40398-11.26496   2.362
 3.85 1.00 -0.720 -0.718 -0.714 -0.705 -0.692 12.15045 12.94498-10.72400   3.362
 3.85 1.25 -0.730 -0.728 -0.723 -0.714 -0.700 12.29388 13.20980-10.45920   3.966
 3.85 1.50 -0.728 -0.725 -0.720 -0.710 -0.695 12.43297 13.47159-10.19743   4.655
 3.85 1.75 -0.712 -0.709 -0.704 -0.694 -0.678 12.56870 13.73065 -9.93834   5.442
 3.85 2.00 -0.683 -0.680 -0.674 -0.664 -0.647 12.70191 13.98767 -9.68131   6.344
 3.85 2.25 -0.641 -0.638 -0.633 -0.621 -0.604 12.83307 14.24298 -9.42603   7.378
 3.85 2.50 -0.589 -0.585 -0.579 -0.568 -0.550 12.96289 14.49707 -9.17199   8.568
 3.85 2.75 -0.526 -0.523 -0.517 -0.504 -0.486 13.09173 14.75022 -8.91890   9.937
 3.85 3.00 -0.455 -0.452 -0.445 -0.433 -0.414 13.21985 15.00260 -8.66655  11.516
 3.85 3.20 -0.392 -0.389 -0.383 -0.370 -0.351 13.32186 15.20398 -8.46512  12.951
 3.85 3.40 -0.326 -0.323 -0.316 -0.303 -0.283 13.42367 15.40510 -8.26396  14.562
 3.85 3.60 -0.257 -0.254 -0.247 -0.233 -0.213 13.52528 15.60599 -8.06306  16.370
 3.85 3.80 -0.184 -0.181 -0.174 -0.160 -0.139 13.62682 15.80673 -7.86232  18.400
 3.85 4.00 -0.109 -0.106 -0.099 -0.084 -0.063 13.72836 16.00732 -7.66174  20.682
 3.85 4.20 -0.031 -0.028 -0.020 -0.006  0.015 13.82992 16.20773 -7.46130  23.248
 3.85 4.40  0.048  0.051  0.059  0.074  0.097 13.93154 16.40810 -7.26093  26.134
 3.85 4.60  0.130  0.134  0.142  0.157  0.180 14.03330 16.60844 -7.06062  29.383
 3.85 4.80  0.216  0.220  0.227  0.242  0.265 14.13540 16.80875 -6.86036  33.047
 3.85 5.00  0.304  0.307  0.314  0.329  0.352 14.23779 17.00903 -6.66015  37.181
 3.85 5.20  0.395  0.398  0.405  0.420  0.442 14.34060 17.20910 -6.46002  41.853
 3.85 5.40  0.489  0.492  0.498  0.512  0.534 14.44395 17.40917 -6.25990  47.143
 3.85 5.60  0.586  0.588  0.594  0.607  0.628 14.54794 17.60924 -6.05974  53.139
 3.85 5.80  0.685  0.687  0.693  0.705  0.725 14.65285 17.80934 -5.85955  59.960
 3.85 6.00  0.787  0.789  0.793  0.804  0.823 14.75869 18.00945 -5.65936  67.728
 3.85 6.25  0.911  0.913  0.917  0.928  0.946 14.89262 18.25973 -5.40912  79.020
 3.85 6.50  1.038  1.040  1.044  1.054  1.072 15.02857 18.51014 -5.15889  92.409
 3.85 6.75  1.165  1.167  1.172  1.182  1.200 15.16707 18.76070 -4.90826 108.380
 3.85 7.00  1.295  1.297  1.302  1.312  1.330 15.30792 19.01157 -4.65718 127.458
 3.85 7.25  1.427  1.429  1.433  1.443  1.461 15.45154 19.26343 -4.40537 150.374
 3.85 7.50  1.559  1.560  1.565  1.575  1.592 15.59671 19.51654 -4.15243 177.730
 3.85 7.75  1.686  1.688  1.692  1.702  1.719 15.74284 19.77213 -3.89681 210.299
 3.85 8.00  1.808  1.810  1.814  1.824  1.840 15.89014 20.02979 -3.63903 249.173
 3.88-2.00 -0.521 -0.520 -0.516 -0.509 -0.497  9.65753  9.69888-13.97021   0.184
 3.88-1.50 -0.507 -0.505 -0.500 -0.491 -0.477 10.15594 10.20030-13.46878   0.327
 3.88-1.00 -0.482 -0.479 -0.475 -0.465 -0.448 10.65138 10.70441-12.96457   0.578
 3.88-0.50 -0.443 -0.440 -0.436 -0.426 -0.410 11.13767 11.21617-12.45284   1.012
 3.88 0.00 -0.395 -0.393 -0.388 -0.380 -0.366 11.60097 11.74453-11.92445   1.725
 3.88 0.50 -0.355 -0.353 -0.349 -0.341 -0.329 12.02119 12.29381-11.37510   2.799
 3.88 1.00 -0.326 -0.324 -0.320 -0.312 -0.300 12.38828 12.85108-10.81787   4.271
 3.88 1.25 -0.311 -0.309 -0.305 -0.297 -0.284 12.55367 13.12633-10.54264   5.167
 3.88 1.50 -0.292 -0.290 -0.286 -0.277 -0.264 12.71003 13.39863-10.27035   6.186
 3.88 1.75 -0.268 -0.266 -0.262 -0.253 -0.240 12.85864 13.66664-10.00238   7.342
 3.88 2.00 -0.238 -0.236 -0.232 -0.223 -0.209 13.00173 13.93126 -9.73779   8.657
 3.88 2.25 -0.202 -0.200 -0.195 -0.186 -0.171 13.14049 14.19261 -9.47642  10.155
 3.88 2.50 -0.159 -0.156 -0.151 -0.142 -0.127 13.27600 14.45148 -9.21753  11.868
 3.88 2.75 -0.108 -0.106 -0.101 -0.091 -0.075 13.40887 14.70825 -8.96074  13.831
 3.88 3.00 -0.051 -0.049 -0.044 -0.033 -0.017 13.53995 14.96346 -8.70553  16.085
 3.88 3.20 -0.001  0.000  0.006  0.017  0.033 13.64382 15.16669 -8.50235  18.127
 3.88 3.40  0.052  0.055  0.060  0.072  0.089 13.74706 15.36932 -8.29975  20.415
 3.88 3.60  0.110  0.113  0.119  0.130  0.148 13.84966 15.57137 -8.09768  22.976
 3.88 3.80  0.171  0.174  0.180  0.192  0.210 13.95188 15.77302 -7.89599  25.847
 3.88 4.00  0.236  0.239  0.245  0.257  0.276 14.05385 15.97433 -7.69465  29.068
 3.88 4.20  0.303  0.306  0.313  0.325  0.345 14.15559 16.17536 -7.49363  32.680
 3.88 4.40  0.373  0.376  0.383  0.396  0.416 14.25730 16.37619 -7.29280  36.738
 3.88 4.60  0.446  0.449  0.456  0.469  0.490 14.35897 16.57687 -7.09217  41.299
 3.88 4.80  0.522  0.525  0.532  0.545  0.566 14.46063 16.77742 -6.89165  46.425
 3.88 5.00  0.600  0.603  0.610  0.623  0.645 14.56229 16.97786 -6.69122  52.188
 3.88 5.20  0.682  0.685  0.691  0.704  0.726 14.66414 17.17818 -6.49087  58.679
 3.88 5.40  0.766  0.769  0.775  0.788  0.808 14.76616 17.37845 -6.29057  65.990
 3.88 5.60  0.853  0.855  0.861  0.873  0.894 14.86841 17.57869 -6.09033  74.236
 3.88 5.80  0.943  0.945  0.950  0.962  0.982 14.97105 17.77891 -5.89013  83.552
 3.88 6.00  1.035  1.037  1.042  1.053  1.071 15.07408 17.97909 -5.68994  94.082
 3.88 6.25  1.150  1.152  1.156  1.166  1.185 15.20375 18.22926 -5.43972 109.231
 3.88 6.50  1.267  1.269  1.273  1.283  1.301 15.33445 18.47943 -5.18950 126.965
 3.88 6.75  1.384  1.386  1.390  1.400  1.418 15.46652 18.72978 -4.93916 147.802
 3.88 7.00  1.503  1.505  1.509  1.519  1.537 15.59988 18.98032 -4.68867 172.318
 3.88 7.25  1.625  1.627  1.631  1.641  1.658 15.73474 19.23115 -4.43788 201.268
 3.88 7.50  1.748  1.750  1.754  1.764  1.781 15.87070 19.48244 -4.18662 235.381
 3.88 7.75  1.871  1.872  1.876  1.886  1.903 16.00749 19.73502 -3.93406 275.533
 3.88 8.00  1.991  1.993  1.997  2.006  2.022 16.14520 19.98860 -3.68048 322.873
 3.91-2.00 -0.527 -0.526 -0.523 -0.517 -0.507  9.62808  9.66839-14.00061   0.172
 3.91-1.50 -0.513 -0.511 -0.508 -0.499 -0.486 10.12775 10.16879-13.50031   0.306
 3.91-1.00 -0.486 -0.484 -0.479 -0.469 -0.452 10.62675 10.66960-12.99957   0.543
 3.91-0.50 -0.434 -0.431 -0.426 -0.414 -0.396 11.12353 11.17231-12.49662   0.962
 3.91 0.00 -0.344 -0.341 -0.336 -0.325 -0.307 11.61426 11.68061-11.98843   1.693
 3.91 0.50 -0.214 -0.212 -0.207 -0.197 -0.182 12.08778 12.20194-11.46699   2.920
 3.91 1.00 -0.067 -0.065 -0.061 -0.052 -0.039 12.52556 12.74445-10.92445   4.833
 3.91 1.25  0.000  0.002  0.006  0.014  0.027 12.72482 13.02285-10.64615   6.079
 3.91 1.50  0.063  0.065  0.069  0.076  0.089 12.91137 13.30125-10.36785   7.536
 3.91 1.75  0.117  0.119  0.123  0.131  0.144 13.08457 13.57822-10.09089   9.199
 3.91 2.00  0.168  0.170  0.174  0.182  0.194 13.24748 13.85345 -9.81559  11.097
 3.91 2.25  0.214  0.216  0.220  0.228  0.241 13.40133 14.12412 -9.54489  13.247
 3.91 2.50  0.261  0.263  0.267  0.275  0.288 13.54851 14.39129 -9.27770  15.693
 3.91 2.75  0.307  0.309  0.314  0.322  0.336 13.69023 14.65479 -9.01417  18.473
 3.91 3.00  0.357  0.359  0.363  0.372  0.386 13.82802 14.91545 -8.75350  21.648
 3.91 3.20  0.398  0.401  0.405  0.414  0.429 13.93594 15.12213 -8.54686  24.511
 3.91 3.40  0.443  0.445  0.450  0.459  0.474 14.04245 15.32762 -8.34141  27.708
 3.91 3.60  0.490  0.492  0.497  0.507  0.522 14.14762 15.53197 -8.13709  31.274
 3.91 3.80  0.540  0.543  0.548  0.558  0.574 14.25193 15.73554 -7.93355  35.265
 3.91 4.00  0.593  0.596  0.601  0.612  0.628 14.35545 15.93837 -7.73072  39.729
 3.91 4.20  0.650  0.652  0.658  0.668  0.685 14.45831 16.14057 -7.52846  44.726
 3.91 4.40  0.709  0.711  0.717  0.728  0.746 14.56082 16.34236 -7.32661  50.331
 3.91 4.60  0.771  0.774  0.779  0.791  0.809 14.66299 16.54380 -7.12517  56.614
 3.91 4.80  0.836  0.839  0.844  0.856  0.874 14.76500 16.74501 -6.92401  63.668
 3.91 5.00  0.904  0.906  0.912  0.924  0.943 14.86688 16.94596 -6.72308  71.591
 3.91 5.20  0.975  0.977  0.983  0.994  1.014 14.96862 17.14666 -6.52234  80.491
 3.91 5.40  1.048  1.051  1.056  1.068  1.087 15.07036 17.34723 -6.32174  90.498
 3.91 5.60  1.125  1.128  1.133  1.144  1.163 15.17218 17.54769 -6.12126 101.755
 3.91 5.80  1.205  1.208  1.212  1.223  1.242 15.27420 17.74809 -5.92087 114.434
 3.91 6.00  1.289  1.290  1.295  1.305  1.323 15.37640 17.94841 -5.72056 128.716
 3.91 6.25  1.393  1.395  1.399  1.409  1.426 15.50449 18.19874 -5.47030 149.169
 3.91 6.50  1.501  1.503  1.507  1.516  1.533 15.63306 18.44901 -5.22004 172.971
 3.91 6.75  1.609  1.611  1.615  1.624  1.641 15.76238 18.69925 -4.96975 200.736
 3.91 7.00  1.720  1.721  1.725  1.735  1.751 15.89243 18.94949 -4.71942 233.152
 3.91 7.25  1.833  1.835  1.839  1.848  1.865 16.02342 19.19981 -4.46908 271.082
 3.91 7.50  1.949  1.951  1.955  1.964  1.980 16.15503 19.45025 -4.21868 315.415
 3.91 7.75  2.067  2.068  2.072  2.081  2.097 16.28708 19.70123 -3.96776 367.204
 3.91 8.00  2.185  2.187  2.190  2.199  2.214 16.41962 19.95260 -3.71647 427.762
 3.94-2.00 -0.531 -0.530 -0.528 -0.523 -0.516  9.59846  9.63799-14.03096   0.161
 3.94-1.50 -0.521 -0.520 -0.517 -0.510 -0.499 10.09830 10.13830-13.53077   0.285
 3.94-1.00 -0.499 -0.498 -0.493 -0.484 -0.469 10.59791 10.63849-13.03044   0.507
 3.94-0.50 -0.453 -0.450 -0.445 -0.434 -0.415 11.09726 11.13925-12.52988   0.901
 3.94 0.00 -0.361 -0.358 -0.352 -0.339 -0.319 11.59484 11.64128-12.02770   1.599
 3.94 0.50 -0.206 -0.203 -0.197 -0.185 -0.166 12.08778 12.14737-11.52158   2.821
 3.94 1.00  0.013  0.015  0.021  0.031  0.048 12.56785 12.66417-11.00480   4.901
 3.94 1.25  0.137  0.140  0.144  0.154  0.170 12.79733 12.93002-10.73902   6.383
 3.94 1.50  0.261  0.263  0.268  0.277  0.292 13.01745 13.20058-10.46852   8.226
 3.94 1.75  0.375  0.376  0.381  0.389  0.403 13.22425 13.47775-10.19141  10.437
 3.94 2.00  0.474  0.476  0.480  0.489  0.502 13.41847 13.75511 -9.91400  13.052
 3.94 2.25  0.557  0.559  0.563  0.571  0.584 13.59851 14.03259 -9.63641  16.058
 3.94 2.50  0.628  0.630  0.634  0.642  0.655 13.76730 14.31006 -9.35882  19.502
 3.94 2.75  0.689  0.690  0.694  0.702  0.715 13.92578 14.58285 -9.08605  23.406
 3.94 3.00  0.744  0.746  0.750  0.758  0.771 14.07664 14.85224 -8.81673  27.846
 3.94 3.20  0.786  0.787  0.791  0.800  0.813 14.19263 15.06478 -8.60424  31.824
 3.94 3.40  0.827  0.829  0.833  0.841  0.855 14.30571 15.27532 -8.39372  36.249
 3.94 3.60  0.868  0.870  0.874  0.883  0.897 14.41602 15.48387 -8.18515  41.157
 3.94 3.80  0.911  0.913  0.917  0.926  0.940 14.52451 15.69091 -7.97808  46.632
 3.94 4.00  0.955  0.957  0.962  0.971  0.986 14.63134 15.89658 -7.77237  52.735
 3.94 4.20  1.002  1.004  1.008  1.018  1.033 14.73687 16.10111 -7.56786  59.546
 3.94 4.40  1.051  1.053  1.057  1.067  1.083 14.84150 16.30482 -7.36418  67.169
 3.94 4.60  1.102  1.104  1.109  1.119  1.135 14.94528 16.50775 -7.16127  75.693
 3.94 4.80  1.156  1.158  1.163  1.173  1.190 15.04855 16.71015 -6.95887  85.249
 3.94 5.00  1.213  1.215  1.220  1.230  1.247 15.15137 16.91206 -6.75696  95.962
 3.94 5.20  1.273  1.275  1.280  1.290  1.308 15.25382 17.11358 -6.55548 107.972
 3.94 5.40  1.336  1.338  1.343  1.353  1.370 15.35612 17.31481 -6.35427 121.468
 3.94 5.60  1.403  1.405  1.409  1.419  1.436 15.45827 17.51574 -6.15327 136.629
 3.94 5.80  1.473  1.474  1.479  1.488  1.505 15.56037 17.71649 -5.95243 153.675
 3.94 6.00  1.546  1.547  1.551  1.560  1.577 15.66247 17.91709 -5.75178 172.849
 3.94 6.25  1.639  1.641  1.645  1.654  1.669 15.79031 18.16767 -5.50131 200.251
 3.94 6.50  1.737  1.739  1.742  1.751  1.766 15.91835 18.41814 -5.25088 232.046
 3.94 6.75  1.835  1.837  1.840  1.849  1.864 16.04672 18.66851 -5.00046 269.023
 3.94 7.00  1.937  1.939  1.942  1.951  1.966 16.17551 18.91882 -4.75007 312.042
 3.94 7.25  2.043  2.045  2.048  2.056  2.071 16.30500 19.16906 -4.49990 362.172
 3.94 7.50  2.152  2.154  2.157  2.165  2.180 16.43489 19.41929 -4.24972 420.552
 3.94 7.75  2.264  2.266  2.269  2.277  2.291 16.56503 19.66963 -3.99935 488.526
 3.94 8.00  2.379  2.380  2.383  2.391  2.404 16.69548 19.92002 -3.74885 567.718
 3.97-2.00 -0.529 -0.528 -0.526 -0.523 -0.517  9.57019  9.60638-14.06258   0.150
 3.97-1.50 -0.525 -0.524 -0.522 -0.516 -0.508 10.06893 10.10755-13.56146   0.267
 3.97-1.00 -0.511 -0.509 -0.506 -0.498 -0.486 10.56820 10.60820-13.06078   0.474
 3.97-0.50 -0.476 -0.473 -0.469 -0.459 -0.442 11.06781 11.10857-12.56051   0.842
 3.97 0.00 -0.398 -0.395 -0.389 -0.377 -0.356 11.56714 11.60917-12.05978   1.496
 3.97 0.50 -0.251 -0.248 -0.241 -0.227 -0.205 12.06521 12.11093-11.55815   2.655
 3.97 1.00 -0.018 -0.015 -0.009  0.004  0.026 12.55955 12.61595-11.05301   4.690
 3.97 1.25  0.128  0.130  0.137  0.149  0.170 12.80318 12.87148-10.79753   6.209
 3.97 1.50  0.290  0.292  0.298  0.310  0.329 13.04297 13.13001-10.53910   8.183
 3.97 1.75  0.455  0.458  0.463  0.474  0.492 13.27593 13.39357-10.27550  10.700
 3.97 2.00  0.615  0.618  0.622  0.633  0.649 13.50065 13.66181-10.00718  13.859
 3.97 2.25  0.758  0.760  0.765  0.774  0.790 13.71268 13.93671 -9.73227  17.691
 3.97 2.50  0.882  0.884  0.888  0.897  0.911 13.91244 14.21352 -9.45544  22.265
 3.97 2.75  0.982  0.984  0.988  0.996  1.010 14.09780 14.49174 -9.17719  27.561
 3.97 3.00  1.065  1.067  1.071  1.080  1.093 14.27138 14.76997 -8.89894  33.657
 3.97 3.20  1.121  1.123  1.127  1.135  1.149 14.40191 14.98950 -8.67944  39.116
 3.97 3.40  1.171  1.173  1.177  1.185  1.199 14.52711 15.20696 -8.46202  45.182
 3.97 3.60  1.217  1.219  1.223  1.231  1.245 14.64715 15.42202 -8.24702  51.878
 3.97 3.80  1.260  1.262  1.266  1.274  1.288 14.76357 15.63467 -8.03443  59.318
 3.97 4.00  1.302  1.304  1.308  1.316  1.330 14.87674 15.84522 -7.82391  67.573
 3.97 4.20  1.344  1.345  1.349  1.358  1.372 14.98721 16.05376 -7.61532  76.744
 3.97 4.40  1.386  1.388  1.392  1.400  1.415 15.09587 16.26082 -7.40822  86.976
 3.97 4.60  1.430  1.432  1.435  1.444  1.459 15.20284 16.46646 -7.20256  98.375
 3.97 4.80  1.475  1.477  1.481  1.490  1.505 15.30873 16.67108 -6.99794 111.126
 3.97 5.00  1.523  1.525  1.529  1.538  1.553 15.41364 16.87477 -6.79426 125.387
 3.97 5.20  1.574  1.575  1.579  1.588  1.603 15.51775 17.07772 -6.59132 141.347
 3.97 5.40  1.627  1.629  1.633  1.641  1.656 15.62139 17.28012 -6.38893 159.254
 3.97 5.60  1.683  1.685  1.689  1.697  1.712 15.72454 17.48201 -6.18707 179.331
 3.97 5.80  1.743  1.744  1.748  1.756  1.771 15.82744 17.68354 -5.98557 201.888
 3.97 6.00  1.806  1.807  1.810  1.818  1.833 15.93019 17.88474 -5.78436 227.245
 3.97 6.25  1.887  1.889  1.892  1.900  1.914 16.05843 18.13583 -5.53317 263.423
 3.97 6.50  1.974  1.976  1.979  1.986  1.999 16.18667 18.38668 -5.28225 305.360
 3.97 6.75  2.062  2.063  2.066  2.074  2.087 16.31531 18.63739 -5.03150 354.068
 3.97 7.00  2.155  2.156  2.159  2.166  2.180 16.44420 18.88795 -4.78094 410.651
 3.97 7.25  2.252  2.253  2.256  2.263  2.276 16.57334 19.13834 -4.53061 476.491
 3.97 7.50  2.353  2.354  2.357  2.364  2.377 16.70278 19.38863 -4.28034 553.095
 3.97 7.75  2.458  2.459  2.462  2.469  2.482 16.83257 19.63889 -4.03010 642.248
 3.97 8.00  2.567  2.568  2.571  2.577  2.589 16.96270 19.88908 -3.77989 746.047
 4.00-2.00 -0.513 -0.512 -0.511 -0.507 -0.503  9.54949  9.56808-14.10084   0.142
 4.00-1.50 -0.518 -0.517 -0.515 -0.511 -0.504 10.04376 10.07335-13.59551   0.250
 4.00-1.00 -0.514 -0.513 -0.510 -0.504 -0.494 10.54033 10.57669-13.09227   0.443
 4.00-0.50 -0.491 -0.490 -0.486 -0.477 -0.464 11.03862 11.07809-12.59091   0.787
 4.00 0.00 -0.433 -0.431 -0.426 -0.415 -0.396 11.53807 11.57887-12.09012   1.398
 4.00 0.50 -0.309 -0.306 -0.300 -0.286 -0.263 12.03743 12.07954-11.58956   2.483
 4.00 1.00 -0.093 -0.089 -0.082 -0.067 -0.042 12.53555 12.58104-11.08788   4.408
 4.00 1.25  0.052  0.055  0.062  0.078  0.102 12.78365 12.83279-10.83621   5.865
 4.00 1.50  0.221  0.224  0.231  0.246  0.271 13.03060 13.08565-10.58353   7.793
 4.00 1.75  0.406  0.409  0.416  0.430  0.453 13.27506 13.34042-10.32869  10.326
 4.00 2.00  0.600  0.603  0.609  0.623  0.645 13.51614 13.59781-10.07114  13.630
 4.00 2.25  0.792  0.794  0.800  0.812  0.832 13.75099 13.85996 -9.80894  17.861
 4.00 2.50  0.972  0.975  0.980  0.991  1.010 13.97823 14.12678 -9.54212  23.202
 4.00 2.75  1.131  1.134  1.138  1.149  1.166 14.19353 14.40044 -9.26847  29.729
 4.00 3.00  1.268  1.270  1.274  1.284  1.300 14.39690 14.67669 -8.99225  37.572
 4.00 3.20  1.357  1.359  1.363  1.373  1.388 14.54891 14.89942 -8.76958  44.758
 4.00 3.40  1.434  1.436  1.440  1.449  1.464 14.69320 15.12214 -8.54691  52.846
 4.00 3.60  1.499  1.501  1.505  1.513  1.528 14.82956 15.34383 -8.32526  61.828
 4.00 3.80  1.555  1.557  1.561  1.569  1.583 14.95954 15.56306 -8.10605  71.805
 4.00 4.00  1.605  1.607  1.611  1.619  1.633 15.08386 15.78039 -7.88874  82.852
 4.00 4.20  1.650  1.652  1.655  1.663  1.677 15.20326 15.99479 -7.67429  95.062
 4.00 4.40  1.692  1.694  1.698  1.706  1.719 15.31919 16.20706 -7.46199 108.636
 4.00 4.60  1.734  1.735  1.739  1.747  1.760 15.43178 16.41714 -7.25192 123.676
 4.00 4.80  1.775  1.776  1.780  1.788  1.801 15.54217 16.62547 -7.04361 140.443
 4.00 5.00  1.817  1.818  1.822  1.829  1.843 15.65060 16.83225 -6.83684 159.120
 4.00 5.20  1.860  1.861  1.865  1.873  1.886 15.75747 17.03768 -6.63134 179.954
 4.00 5.40  1.905  1.907  1.910  1.917  1.931 15.86330 17.24214 -6.42684 203.268
 4.00 5.60  1.953  1.954  1.957  1.965  1.978 15.96814 17.44568 -6.22330 229.336
 4.00 5.80  2.003  2.005  2.008  2.015  2.028 16.07238 17.64859 -6.02043 258.568
 4.00 6.00  2.057  2.058  2.061  2.068  2.080 16.17609 17.85089 -5.81816 291.360
 4.00 6.25  2.128  2.129  2.131  2.138  2.150 16.30507 18.10304 -5.56595 338.034
 4.00 6.50  2.203  2.204  2.207  2.213  2.225 16.43393 18.35468 -5.31426 392.109
 4.00 6.75  2.281  2.282  2.285  2.291  2.303 16.56273 18.60599 -5.06292 454.776
 4.00 7.00  2.364  2.365  2.368  2.374  2.385 16.69152 18.85697 -4.81192 527.458
 4.00 7.25  2.453  2.454  2.456  2.462  2.474 16.82060 19.10761 -4.56129 611.950
 4.00 7.50  2.546  2.547  2.550  2.556  2.567 16.94998 19.35813 -4.31078 710.226
 4.00 7.75  2.645  2.646  2.648  2.654  2.664 17.08001 19.60858 -4.06033 824.906
 4.00 8.00  2.748  2.749  2.751  2.757  2.767 17.21059 19.85896 -3.80995 958.696
 4.05-2.00 -0.492 -0.491 -0.489 -0.486 -0.480  9.50840  9.50947-14.15958   0.128
 4.05-1.50 -0.491 -0.490 -0.488 -0.484 -0.477 10.00732 10.01072-13.65837   0.226
 4.05-1.00 -0.491 -0.490 -0.487 -0.482 -0.474 10.50433 10.51348-13.15546   0.401
 4.05-0.50 -0.487 -0.486 -0.483 -0.476 -0.465 10.99904 11.01870-12.65053   0.709
 4.05 0.00 -0.465 -0.463 -0.459 -0.450 -0.435 11.49346 11.52388-12.14515   1.254
 4.05 0.50 -0.394 -0.392 -0.386 -0.374 -0.355 11.98998 12.02694-11.64207   2.220
 4.05 1.00 -0.237 -0.234 -0.227 -0.212 -0.187 12.48827 12.52866-11.14038   3.941
 4.05 1.25 -0.116 -0.113 -0.106 -0.089 -0.063 12.73763 12.77923-10.88980   5.251
 4.05 1.50  0.032  0.036  0.044  0.061  0.089 12.98700 13.02979-10.63922   6.997
 4.05 1.75  0.210  0.214  0.222  0.239  0.268 13.23601 13.28068-10.38833   9.320
 4.05 2.00  0.410  0.414  0.422  0.439  0.468 13.48458 13.53199-10.13703  12.409
 4.05 2.25  0.623  0.627  0.635  0.652  0.680 13.73203 13.78424 -9.88477  16.499
 4.05 2.50  0.844  0.847  0.855  0.871  0.898 13.97791 14.03783 -9.63116  21.896
 4.05 2.75  1.064  1.067  1.073  1.088  1.113 14.22062 14.29411 -9.37488  28.955
 4.05 3.00  1.277  1.280  1.286  1.300  1.322 14.45909 14.55364 -9.11537  38.104
 4.05 3.20  1.437  1.439  1.445  1.457  1.478 14.64445 14.76519 -8.90382  47.169
 4.05 3.40  1.584  1.587  1.592  1.603  1.622 14.82414 14.97974 -8.68927  58.009
 4.05 3.60  1.716  1.718  1.723  1.733  1.750 14.99693 15.19848 -8.47048  70.775
 4.05 3.80  1.831  1.833  1.837  1.846  1.862 15.16115 15.41962 -8.24930  85.501
 4.05 4.00  1.930  1.932  1.935  1.944  1.959 15.31744 15.64138 -8.02757 102.354
 4.05 4.20  2.012  2.014  2.017  2.025  2.039 15.46424 15.86352 -7.80549 121.207
 4.05 4.40  2.083  2.084  2.087  2.095  2.108 15.60382 16.08566 -7.58341 142.342
 4.05 4.60  2.143  2.144  2.147  2.154  2.167 15.73609 16.30639 -7.36268 165.758
 4.05 4.80  2.196  2.197  2.200  2.206  2.218 15.86275 16.52409 -7.14489 191.778
 4.05 5.00  2.244  2.245  2.248  2.254  2.265 15.98444 16.73965 -6.92922 220.614
 4.05 5.20  2.288  2.289  2.292  2.298  2.309 16.10190 16.95253 -6.71638 252.550
 4.05 5.40  2.331  2.332  2.335  2.341  2.351 16.21640 17.16342 -6.50555 288.130
 4.05 5.60  2.374  2.375  2.377  2.383  2.393 16.32804 17.37230 -6.29670 327.654
 4.05 5.80  2.417  2.418  2.420  2.426  2.436 16.43784 17.57965 -6.08935 371.821
 4.05 6.00  2.462  2.463  2.465  2.470  2.479 16.54605 17.78562 -5.88339 421.163
 4.05 6.25  2.520  2.521  2.523  2.527  2.536 16.67961 18.04150 -5.62754 491.157
 4.05 6.50  2.582  2.582  2.584  2.588  2.597 16.81198 18.29601 -5.37304 572.004
 4.05 6.75  2.646  2.647  2.648  2.653  2.661 16.94335 18.54934 -5.11967 665.410
 4.05 7.00  2.715  2.716  2.717  2.722  2.730 17.07445 18.80188 -4.86710 773.827
 4.05 7.25  2.790  2.791  2.792  2.796  2.804 17.20536 19.05385 -4.61518 899.716
 4.05 7.50  2.871  2.872  2.873  2.877  2.885 17.33626 19.30535 -4.363711046.085
 4.05 7.75  2.958  2.959  2.960  2.964  2.971 17.46772 19.55650 -4.112531216.988
 4.05 8.00  3.051  3.052  3.053  3.057  3.063 17.59956 19.80726 -3.861701416.371
 4.10-2.00 -0.483 -0.482 -0.480 -0.475 -0.465  9.45894  9.45879-14.21014   0.114
 4.10-1.50 -0.480 -0.479 -0.477 -0.471 -0.461  9.95890  9.95890-13.70997   0.202
 4.10-1.00 -0.477 -0.475 -0.473 -0.466 -0.455 10.45864 10.45924-13.20979   0.360
 4.10-0.50 -0.470 -0.468 -0.465 -0.458 -0.446 10.95799 10.95976-12.70930   0.639
 4.10 0.00 -0.454 -0.452 -0.448 -0.440 -0.426 11.45637 11.46150-12.20754   1.134
 4.10 0.50 -0.414 -0.412 -0.408 -0.397 -0.379 11.95255 11.96515-11.70377   2.008
 4.10 1.00 -0.321 -0.319 -0.313 -0.300 -0.277 12.44685 12.47071-11.19825   3.547
 4.10 1.25 -0.242 -0.239 -0.233 -0.218 -0.193 12.69415 12.72321-10.94577   4.715
 4.10 1.50 -0.135 -0.132 -0.125 -0.109 -0.082 12.94166 12.97543-10.69357   6.270
 4.10 1.75  0.001  0.005  0.012  0.030  0.059 13.19006 13.22700-10.44200   8.345
 4.10 2.00  0.168  0.172  0.180  0.198  0.228 13.43870 13.47828-10.19071  11.111
 4.10 2.25  0.363  0.367  0.375  0.393  0.424 13.68753 13.72930 -9.93969  14.797
 4.10 2.50  0.578  0.581  0.589  0.608  0.638 13.93636 13.98032 -9.68867  19.706
 4.10 2.75  0.806  0.810  0.818  0.835  0.865 14.18474 14.23180 -9.43718  26.229
 4.10 3.00  1.042  1.046  1.053  1.070  1.098 14.43249 14.48387 -9.18509  34.886
 4.10 3.20  1.230  1.233  1.239  1.255  1.281 14.62940 14.68657 -8.98237  43.764
 4.10 3.40  1.415  1.418  1.424  1.438  1.463 14.82475 14.89054 -8.77839  54.803
 4.10 3.60  1.596  1.599  1.604  1.617  1.639 15.01809 15.09624 -8.57270  68.467
 4.10 3.80  1.770  1.772  1.777  1.788  1.808 15.20773 15.30469 -8.36430  85.175
 4.10 4.00  1.933  1.935  1.940  1.950  1.967 15.39358 15.51574 -8.15329 105.495
 4.10 4.20  2.082  2.084  2.088  2.097  2.112 15.57277 15.73105 -7.93793 129.665
 4.10 4.40  2.217  2.218  2.221  2.229  2.243 15.74515 15.94892 -7.72003 158.127
 4.10 4.60  2.333  2.335  2.337  2.344  2.356 15.90957 16.17005 -7.49890 191.075
 4.10 4.80  2.433  2.434  2.437  2.443  2.454 16.06522 16.39252 -7.27644 228.571
 4.10 5.00  2.520  2.520  2.523  2.528  2.538 16.21299 16.61500 -7.05399 270.954
 4.10 5.20  2.592  2.592  2.594  2.599  2.609 16.35227 16.83627 -6.83275 318.086
 4.10 5.40  2.655  2.656  2.657  2.662  2.671 16.48531 17.05629 -6.61274 370.743
 4.10 5.60  2.711  2.712  2.714  2.718  2.726 16.61218 17.27427 -6.39479 429.048
 4.10 5.80  2.763  2.763  2.765  2.769  2.776 16.73459 17.48950 -6.17959 493.973
 4.10 6.00  2.812  2.812  2.814  2.817  2.824 16.85303 17.70252 -5.96658 566.144
 4.10 6.25  2.870  2.871  2.872  2.875  2.882 16.99653 17.96552 -5.70348 667.931
 4.10 6.50  2.929  2.930  2.931  2.934  2.940 17.13672 18.22583 -5.44310 784.958
 4.10 6.75  2.989  2.990  2.991  2.994  3.000 17.27437 18.48387 -5.18506 919.642
 4.10 7.00  3.052  3.053  3.054  3.057  3.062 17.41044 18.74013 -4.928851075.514
 4.10 7.25  3.120  3.120  3.121  3.124  3.129 17.54506 18.99486 -4.674231255.822
 4.10 7.50  3.191  3.192  3.193  3.195  3.201 17.67952 19.24846 -4.420671466.109
 4.10 7.75  3.269  3.269  3.270  3.273  3.278 17.81393 19.50128 -4.167821711.520
 4.10 8.00  3.353  3.353  3.354  3.357  3.361 17.94827 19.75320 -3.915781997.828
 4.15-2.00 -0.484 -0.483 -0.481 -0.477 -0.470  9.40909  9.40875-14.26019   0.101
 4.15-1.50 -0.476 -0.475 -0.472 -0.466 -0.456  9.90897  9.90881-13.76020   0.180
 4.15-1.00 -0.467 -0.466 -0.462 -0.455 -0.441 10.40892 10.40892-13.26011   0.321
 4.15-0.50 -0.459 -0.457 -0.453 -0.444 -0.428 10.90886 10.90891-12.75995   0.570
 4.15 0.00 -0.446 -0.444 -0.440 -0.430 -0.412 11.40875 11.40909-12.25988   1.013
 4.15 0.50 -0.419 -0.417 -0.412 -0.401 -0.381 11.90827 11.90956-11.75945   1.801
 4.15 1.00 -0.356 -0.353 -0.348 -0.334 -0.311 12.40705 12.41078-11.25822   3.199
 4.15 1.25 -0.300 -0.297 -0.291 -0.276 -0.251 12.65585 12.66195-11.00708   4.260
 4.15 1.50 -0.223 -0.221 -0.214 -0.198 -0.171 12.90417 12.91360-10.75548   5.669
 4.15 1.75 -0.123 -0.120 -0.113 -0.096 -0.067 13.15174 13.16614-10.50294   7.538
 4.15 2.00  0.000  0.003  0.010  0.028  0.058 13.39898 13.41880-10.25026  10.020
 4.15 2.25  0.150  0.154  0.161  0.180  0.211 13.64596 13.67154 -9.99750  13.316
 4.15 2.50  0.325  0.328  0.336  0.355  0.386 13.89293 13.92428 -9.74473  17.697
 4.15 2.75  0.526  0.529  0.537  0.555  0.586 14.14070 14.17639 -9.49256  23.538
 4.15 3.00  0.745  0.748  0.755  0.772  0.802 14.38863 14.42830 -9.24063  31.314
 4.15 3.20  0.932  0.935  0.942  0.958  0.986 14.58708 14.62968 -9.03931  39.352
 4.15 3.40  1.124  1.127  1.134  1.149  1.175 14.78552 14.83107 -8.83798  49.452
 4.15 3.60  1.320  1.322  1.328  1.342  1.366 14.98372 15.03269 -8.63639  62.128
 4.15 3.80  1.516  1.518  1.524  1.536  1.558 15.18110 15.23510 -8.43400  77.976
 4.15 4.00  1.708  1.710  1.715  1.726  1.747 15.37767 15.43823 -8.23084  97.773
 4.15 4.20  1.897  1.898  1.903  1.913  1.931 15.57211 15.64298 -8.02602 122.305
 4.15 4.40  2.079  2.081  2.084  2.093  2.109 15.76392 15.84968 -7.81924 152.535
 4.15 4.60  2.253  2.254  2.258  2.265  2.279 15.95236 16.05907 -7.60983 189.500
 4.15 4.80  2.416  2.417  2.419  2.426  2.437 16.13531 16.27186 -7.39709 233.935
 4.15 5.00  2.564  2.565  2.567  2.573  2.582 16.31281 16.48756 -7.18145 286.980
 4.15 5.20  2.695  2.695  2.697  2.702  2.710 16.48191 16.70772 -6.96122 348.648
 4.15 5.40  2.810  2.810  2.812  2.816  2.823 16.64337 16.92866 -6.74025 419.857
 4.15 5.60  2.908  2.909  2.910  2.913  2.920 16.79640 17.15034 -6.51857 500.724
 4.15 5.80  2.992  2.993  2.994  2.997  3.003 16.94147 17.37220 -6.29673 591.732
 4.15 6.00  3.067  3.068  3.068  3.071  3.076 17.07954 17.59406 -6.07489 693.673
 4.15 6.25  3.147  3.147  3.148  3.150  3.155 17.24296 17.86715 -5.80183 837.293
 4.15 6.50  3.220  3.220  3.221  3.223  3.227 17.39898 18.13704 -5.531951002.078
 4.15 6.75  3.288  3.288  3.289  3.291  3.295 17.54880 18.40299 -5.265971190.758
 4.15 7.00  3.355  3.355  3.356  3.357  3.361 17.69452 18.66586 -5.003101408.290
 4.15 7.25  3.422  3.422  3.423  3.425  3.429 17.83687 18.92595 -4.743121659.113
 4.15 7.50  3.492  3.493  3.493  3.495  3.498 17.97759 19.18384 -4.485321950.860
 4.15 7.75  3.566  3.567  3.567  3.569  3.572 18.11746 19.44006 -4.229112291.613
 4.15 8.00  3.645  3.645  3.646  3.648  3.650 18.25624 19.69443 -3.974692688.365
 4.20-2.00 -0.488 -0.488 -0.487 -0.485 -0.481  9.35908  9.35889-14.31016   0.090
 4.20-1.50 -0.482 -0.482 -0.480 -0.477 -0.471  9.85896  9.85878-13.81023   0.161
 4.20-1.00 -0.473 -0.472 -0.470 -0.465 -0.456 10.35908 10.35889-13.31016   0.286
 4.20-0.50 -0.459 -0.457 -0.454 -0.447 -0.434 10.85890 10.85884-12.81023   0.508
 4.20 0.00 -0.441 -0.439 -0.434 -0.424 -0.406 11.35889 11.35889-12.31007   0.903
 4.20 0.50 -0.416 -0.414 -0.408 -0.395 -0.372 11.85878 11.85896-11.80995   1.606
 4.20 1.00 -0.372 -0.370 -0.363 -0.348 -0.321 12.35870 12.35927-11.30980   2.856
 4.20 1.25 -0.335 -0.333 -0.326 -0.309 -0.281 12.60849 12.60941-11.05964   3.808
 4.20 1.50 -0.283 -0.280 -0.272 -0.255 -0.224 12.85818 12.85956-10.80939   5.076
 4.20 1.75 -0.209 -0.206 -0.198 -0.180 -0.147 13.10777 13.10995-10.55896   6.766
 4.20 2.00 -0.114 -0.110 -0.102 -0.083 -0.050 13.35717 13.36059-10.30830   9.016
 4.20 2.25  0.007  0.011  0.019  0.038  0.072 13.60607 13.61169-10.05726  12.008
 4.20 2.50  0.152  0.155  0.163  0.183  0.216 13.85449 13.86326 -9.80576  15.983
 4.20 2.75  0.322  0.325  0.333  0.351  0.384 14.10221 14.11561 -9.55344  21.257
 4.20 3.00  0.509  0.512  0.519  0.537  0.568 14.34947 14.36829 -9.30077  28.256
 4.20 3.20  0.674  0.677  0.684  0.701  0.730 14.54685 14.57067 -9.09838  35.467
 4.20 3.40  0.848  0.850  0.857  0.872  0.899 14.74423 14.77306 -8.89599  44.518
 4.20 3.60  1.030  1.033  1.039  1.053  1.078 14.94179 14.97530 -8.69373  55.889
 4.20 3.80  1.221  1.223  1.229  1.241  1.264 15.13953 15.17739 -8.49159  70.178
 4.20 4.00  1.416  1.418  1.422  1.434  1.454 15.33726 15.37949 -8.28946  88.120
 4.20 4.20  1.616  1.617  1.622  1.632  1.650 15.53481 15.58171 -8.08723 110.623
 4.20 4.40  1.816  1.817  1.821  1.830  1.846 15.73207 15.78413 -7.88483 138.826
 4.20 4.60  2.014  2.015  2.019  2.027  2.041 15.92864 15.98717 -7.68184 174.078
 4.20 4.80  2.209  2.210  2.213  2.220  2.232 16.12340 16.19176 -7.47729 217.828
 4.20 5.00  2.399  2.399  2.402  2.408  2.418 16.31639 16.39777 -7.27132 272.016
 4.20 5.20  2.581  2.581  2.583  2.588  2.597 16.50555 16.60658 -7.06242 338.205
 4.20 5.40  2.752  2.753  2.755  2.758  2.766 16.69031 16.81808 -6.85082 418.382
 4.20 5.60  2.910  2.910  2.911  2.914  2.920 16.86958 17.03327 -6.63561 514.315
 4.20 5.80  3.051  3.051  3.052  3.055  3.059 17.04143 17.25150 -6.41744 626.862
 4.20 6.00  3.177  3.177  3.178  3.180  3.183 17.20629 17.47159 -6.19743 757.907
 4.20 6.25  3.308  3.308  3.309  3.310  3.314 17.40002 17.74906 -5.92003 947.251
 4.20 6.50  3.421  3.421  3.422  3.423  3.426 17.58252 18.02653 -5.642641168.669
 4.20 6.75  3.516  3.516  3.516  3.518  3.520 17.75392 18.30122 -5.367901423.620
 4.20 7.00  3.602  3.602  3.603  3.604  3.606 17.91724 18.57334 -5.095661718.120
 4.20 7.25  3.682  3.682  3.682  3.684  3.686 18.07363 18.84136 -4.827582056.843
 4.20 7.50  3.760  3.760  3.760  3.761  3.763 18.22557 19.10619 -4.562732449.917
 4.20 7.75  3.838  3.838  3.838  3.839  3.841 18.37470 19.36820 -4.300732908.941
 4.20 8.00  3.918  3.918  3.918  3.919  3.921 18.52048 19.62726 -4.041723440.919
 4.25-2.00 -0.484 -0.484 -0.483 -0.481 -0.478  9.30899  9.30878-14.36022   0.081
 4.25-1.50 -0.482 -0.481 -0.480 -0.478 -0.474  9.80902  9.80875-13.86012   0.143
 4.25-1.00 -0.477 -0.476 -0.475 -0.472 -0.466 10.30899 10.30878-13.36012   0.255
 4.25-0.50 -0.467 -0.466 -0.464 -0.460 -0.452 10.80895 10.80882-12.86012   0.453
 4.25 0.00 -0.450 -0.449 -0.447 -0.440 -0.429 11.30899 11.30899-12.36012   0.805
 4.25 0.50 -0.425 -0.423 -0.420 -0.410 -0.394 11.80889 11.80889-11.86012   1.432
 4.25 1.00 -0.385 -0.383 -0.377 -0.364 -0.340 12.30878 12.30899-11.36002   2.546
 4.25 1.25 -0.355 -0.353 -0.346 -0.331 -0.303 12.55873 12.55904-11.10991   3.395
 4.25 1.50 -0.314 -0.311 -0.304 -0.286 -0.254 12.80868 12.80909-10.85981   4.526
 4.25 1.75 -0.260 -0.257 -0.249 -0.229 -0.195 13.05863 13.05924-10.60971   6.035
 4.25 2.00 -0.188 -0.185 -0.176 -0.155 -0.117 13.30857 13.30942-10.35962   8.047
 4.25 2.25 -0.097 -0.094 -0.085 -0.062 -0.023 13.55831 13.55961-10.10945  10.729
 4.25 2.50  0.015  0.019  0.028  0.050  0.090 13.80794 13.80983 -9.85918  14.302
 4.25 2.75  0.154  0.158  0.167  0.188  0.227 14.05749 14.06034 -9.60869  19.062
 4.25 3.00  0.317  0.321  0.329  0.349  0.385 14.30685 14.31112 -9.35793  25.398
 4.25 3.20  0.467  0.470  0.478  0.497  0.530 14.50592 14.51198 -9.15704  31.940
 4.25 3.40  0.628  0.631  0.638  0.655  0.686 14.70464 14.71315 -8.95584  40.153
 4.25 3.60  0.800  0.803  0.809  0.824  0.852 14.90295 14.91481 -8.75416  50.451
 4.25 3.80  0.980  0.982  0.988  1.002  1.026 15.10085 15.11693 -8.55205  63.359
 4.25 4.00  1.164  1.166  1.170  1.182  1.203 15.29842 15.31932 -8.34969  79.540
 4.25 4.20  1.355  1.356  1.361  1.371  1.390 15.49555 15.52187 -8.14719  99.814
 4.25 4.40  1.548  1.550  1.553  1.563  1.579 15.69258 15.72455 -7.94453 125.234
 4.25 4.60  1.746  1.748  1.751  1.759  1.773 15.88957 15.92731 -7.74179 157.114
 4.25 4.80  1.949  1.950  1.952  1.959  1.972 16.08649 16.13019 -7.53891 197.089
 4.25 5.00  2.151  2.152  2.154  2.160  2.170 16.28330 16.33325 -7.33583 247.185
 4.25 5.20  2.355  2.356  2.358  2.363  2.372 16.47903 16.53700 -7.13202 309.664
 4.25 5.40  2.554  2.555  2.557  2.561  2.568 16.67346 16.74171 -6.92724 387.374
 4.25 5.60  2.749  2.749  2.750  2.754  2.760 16.86605 16.94796 -6.72096 483.548
 4.25 5.80  2.936  2.936  2.937  2.940  2.945 17.05509 17.15683 -6.51213 601.090
 4.25 6.00  3.113  3.113  3.114  3.116  3.119 17.24055 17.36810 -6.30094 744.109
 4.25 6.25  3.312  3.312  3.313  3.314  3.317 17.46334 17.63748 -6.03158 961.717
 4.25 6.50  3.489  3.489  3.489  3.491  3.493 17.67624 17.91036 -5.758701228.924
 4.25 6.75  3.637  3.637  3.637  3.638  3.640 17.87655 18.18713 -5.481931547.592
 4.25 7.00  3.766  3.766  3.767  3.767  3.769 18.06595 18.46389 -5.205161924.573
 4.25 7.25  3.876  3.876  3.876  3.877  3.878 18.24408 18.73907 -4.930052362.721
 4.25 7.50  3.976  3.976  3.977  3.977  3.978 18.41414 19.01241 -4.656792873.833
 4.25 7.75  4.068  4.068  4.068  4.069  4.070 18.57833 19.28169 -4.387463471.955
 4.25 8.00  4.158  4.158  4.158  4.159  4.160 18.73592 19.54765 -4.121364162.797
 4.30-2.00 -0.476 -0.475 -0.474 -0.472 -0.467  9.26031  9.25744-14.41150   0.072
 4.30-1.50 -0.474 -0.474 -0.473 -0.470 -0.465  9.75937  9.75838-13.91045   0.128
 4.30-1.00 -0.471 -0.471 -0.469 -0.466 -0.460 10.25912 10.25864-13.41027   0.227
 4.30-0.50 -0.465 -0.465 -0.463 -0.459 -0.452 10.75899 10.75876-12.91010   0.404
 4.30 0.00 -0.454 -0.453 -0.451 -0.447 -0.438 11.25888 11.25888-12.41016   0.718
 4.30 0.50 -0.434 -0.433 -0.430 -0.424 -0.413 11.75891 11.75884-11.91010   1.276
 4.30 1.00 -0.402 -0.400 -0.397 -0.389 -0.374 12.25888 12.25888-11.41005   2.269
 4.30 1.25 -0.378 -0.377 -0.373 -0.362 -0.344 12.50882 12.50893-11.16007   3.026
 4.30 1.50 -0.347 -0.345 -0.340 -0.328 -0.306 12.75876 12.75899-10.91010   4.035
 4.30 1.75 -0.305 -0.302 -0.296 -0.282 -0.256 13.00870 13.00905-10.65996   5.380
 4.30 2.00 -0.248 -0.245 -0.238 -0.220 -0.189 13.25864 13.25912-10.40983   7.174
 4.30 2.25 -0.174 -0.171 -0.163 -0.143 -0.107 13.50856 13.50920-10.15979   9.566
 4.30 2.50 -0.080 -0.076 -0.068 -0.046 -0.006 13.75846 13.75929 -9.90974  12.754
 4.30 2.75  0.032  0.036  0.045  0.068  0.109 14.00833 14.00942 -9.65953  17.005
 4.30 3.00  0.168  0.172  0.181  0.204  0.246 14.25816 14.25959 -9.40927  22.672
 4.30 3.20  0.295  0.298  0.307  0.329  0.369 14.45795 14.45982 -9.20906  28.535
 4.30 3.40  0.436  0.439  0.447  0.467  0.505 14.65765 14.66015 -9.00882  35.911
 4.30 3.60  0.592  0.595  0.603  0.621  0.655 14.85724 14.86058 -8.80847  45.188
 4.30 3.80  0.763  0.765  0.772  0.788  0.817 15.05661 15.06118 -8.60787  56.850
 4.30 4.00  0.941  0.943  0.949  0.963  0.988 15.25576 15.26198 -8.40705  71.504
 4.30 4.20  1.131  1.133  1.137  1.149  1.171 15.45456 15.46314 -8.20589  89.893
 4.30 4.40  1.324  1.325  1.329  1.339  1.357 15.65298 15.66468 -8.00435 112.958
 4.30 4.60  1.520  1.521  1.525  1.533  1.548 15.85091 15.86670 -7.80231 141.864
 4.30 4.80  1.719  1.721  1.723  1.730  1.743 16.04831 16.06919 -7.59976 178.064
 4.30 5.00  1.919  1.919  1.922  1.927  1.938 16.24527 16.27207 -7.39686 223.388
 4.30 5.20  2.123  2.124  2.125  2.130  2.139 16.44194 16.47518 -7.19377 280.152
 4.30 5.40  2.327  2.328  2.329  2.334  2.341 16.63810 16.67870 -6.99029 351.133
 4.30 5.60  2.534  2.534  2.535  2.539  2.544 16.83382 16.88257 -6.78643 439.869
 4.30 5.80  2.740  2.740  2.741  2.744  2.748 17.02866 17.08712 -6.58185 550.483
 4.30 6.00  2.941  2.941  2.942  2.943  2.947 17.22246 17.29248 -6.37644 688.078
 4.30 6.25  3.185  3.186  3.186  3.187  3.190 17.46097 17.55203 -6.11693 905.499
 4.30 6.50  3.417  3.417  3.417  3.418  3.420 17.69461 17.81485 -5.854181184.947
 4.30 6.75  3.625  3.625  3.626  3.626  3.628 17.91981 18.08292 -5.586071535.664
 4.30 7.00  3.814  3.814  3.814  3.814  3.816 18.13609 18.35449 -5.314441969.871
 4.30 7.25  3.973  3.973  3.973  3.974  3.975 18.34055 18.63020 -5.038702492.773
 4.30 7.50  4.116  4.116  4.116  4.116  4.117 18.53491 18.90590 -4.762963117.990
 4.30 7.75  4.237  4.237  4.238  4.238  4.239 18.71994 19.18034 -4.488523858.202
 4.30 8.00  4.351  4.351  4.351  4.351  4.352 18.89537 19.45393 -4.214964721.600
 4.35-2.00 -0.451 -0.451 -0.450 -0.448 -0.444  9.22272  9.19479-14.47418   0.067
 4.35-1.50 -0.455 -0.455 -0.454 -0.451 -0.446  9.71775  9.69984-13.96900   0.117
 4.35-1.00 -0.458 -0.458 -0.456 -0.453 -0.446 10.21325 10.20466-13.46433   0.205
 4.35-0.50 -0.456 -0.455 -0.454 -0.449 -0.441 10.71054 10.70723-12.96178   0.362
 4.35 0.00 -0.448 -0.447 -0.446 -0.440 -0.431 11.20951 11.20844-12.46067   0.641
 4.35 0.50 -0.433 -0.432 -0.429 -0.424 -0.413 11.70910 11.70868-11.96019   1.138
 4.35 1.00 -0.405 -0.404 -0.401 -0.395 -0.382 12.20898 12.20898-11.46005   2.023
 4.35 1.25 -0.385 -0.384 -0.381 -0.374 -0.359 12.45891 12.45895-11.21012   2.697
 4.35 1.50 -0.361 -0.360 -0.357 -0.348 -0.333 12.70885 12.70893-10.96019   3.596
 4.35 1.75 -0.330 -0.328 -0.324 -0.315 -0.297 12.95878 12.95894-10.71006   4.795
 4.35 2.00 -0.289 -0.287 -0.283 -0.271 -0.251 13.20871 13.20898-10.45992   6.394
 4.35 2.25 -0.233 -0.231 -0.226 -0.213 -0.188 13.45865 13.45906-10.20986   8.526
 4.35 2.50 -0.161 -0.159 -0.153 -0.137 -0.109 13.70859 13.70918 -9.95979  11.369
 4.35 2.75 -0.068 -0.065 -0.058 -0.041 -0.009 13.95852 13.95935 -9.70967  15.160
 4.35 3.00  0.046  0.049  0.056  0.076  0.111 14.20844 14.20951 -9.45955  20.214
 4.35 3.20  0.156  0.159  0.166  0.186  0.223 14.40831 14.40959 -9.25949  25.444
 4.35 3.40  0.281  0.284  0.292  0.312  0.348 14.60816 14.60966 -9.05943  32.027
 4.35 3.60  0.422  0.425  0.432  0.451  0.487 14.80800 14.80979 -8.85931  40.313
 4.35 3.80  0.578  0.580  0.587  0.605  0.638 15.00783 15.01002 -8.65909  50.740
 4.35 4.00  0.745  0.747  0.753  0.769  0.799 15.20763 15.21032 -8.45880  63.862
 4.35 4.20  0.925  0.927  0.933  0.946  0.973 15.40728 15.41064 -8.25848  80.365
 4.35 4.40  1.112  1.114  1.119  1.130  1.153 15.60677 15.61106 -8.05806 101.115
 4.35 4.60  1.307  1.309  1.312  1.322  1.341 15.80610 15.81164 -7.85744 127.199
 4.35 4.80  1.508  1.509  1.512  1.520  1.535 16.00513 16.01255 -7.65642 159.959
 4.35 5.00  1.710  1.711  1.713  1.720  1.732 16.20385 16.21378 -7.45507 201.085
 4.35 5.20  1.918  1.919  1.921  1.926  1.936 16.40203 16.41559 -7.25325 252.616
 4.35 5.40  2.125  2.125  2.127  2.131  2.139 16.59967 16.61790 -7.05095 317.152
 4.35 5.60  2.332  2.333  2.334  2.337  2.343 16.79672 16.82072 -6.84817 397.918
 4.35 5.80  2.541  2.542  2.543  2.545  2.550 16.99305 17.02412 -6.64480 498.853
 4.35 6.00  2.749  2.749  2.750  2.752  2.755 17.18865 17.22814 -6.44081 624.863
 4.35 6.25  3.012  3.012  3.013  3.014  3.017 17.43211 17.48405 -6.18487 827.006
 4.35 6.50  3.268  3.268  3.268  3.269  3.271 17.67367 17.74147 -5.927381092.104
 4.35 6.75  3.515  3.515  3.516  3.516  3.518 17.91184 18.00143 -5.667461436.559
 4.35 7.00  3.750  3.750  3.750  3.751  3.752 18.14551 18.26435 -5.404611879.889
 4.35 7.25  3.962  3.962  3.962  3.963  3.964 18.37130 18.53197 -5.136962438.074
 4.35 7.50  4.157  4.157  4.157  4.157  4.158 18.58894 18.80277 -4.866143132.591
 4.35 7.75  4.323  4.323  4.323  4.323  4.324 18.79637 19.07603 -4.592923977.578
 4.35 8.00  4.475  4.475  4.475  4.475  4.475 18.99427 19.35199 -4.317044995.200
 4.40-2.00 -0.443 -0.443 -0.442 -0.441 -0.437  9.17696  9.14019-14.52900   0.061
 4.40-1.50 -0.440 -0.440 -0.439 -0.437 -0.434  9.67651  9.64058-14.02845   0.107
 4.40-1.00 -0.438 -0.437 -0.436 -0.434 -0.429 10.17522 10.14208-13.52695   0.190
 4.40-0.50 -0.436 -0.435 -0.434 -0.430 -0.424 10.67219 10.64523-13.02379   0.335
 4.40 0.00 -0.433 -0.432 -0.431 -0.426 -0.417 11.16732 11.15045-12.51856   0.586
 4.40 0.50 -0.424 -0.423 -0.421 -0.414 -0.403 11.66276 11.65495-12.01404   1.027
 4.40 1.00 -0.401 -0.400 -0.397 -0.390 -0.376 12.16047 12.15746-11.51145   1.811
 4.40 1.25 -0.384 -0.383 -0.380 -0.372 -0.356 12.40974 12.40807-11.26089   2.410
 4.40 1.50 -0.361 -0.360 -0.356 -0.348 -0.332 12.65925 12.65849-11.01051   3.210
 4.40 1.75 -0.333 -0.331 -0.328 -0.319 -0.301 12.90911 12.90878-10.76022   4.277
 4.40 2.00 -0.298 -0.297 -0.293 -0.283 -0.265 13.15897 13.15897-10.51004   5.700
 4.40 2.25 -0.254 -0.253 -0.249 -0.238 -0.218 13.40882 13.40901-10.25998   7.600
 4.40 2.50 -0.200 -0.198 -0.193 -0.182 -0.159 13.65868 13.65906-10.00993  10.134
 4.40 2.75 -0.128 -0.126 -0.121 -0.108 -0.083 13.90867 13.90916 -9.75985  13.513
 4.40 3.00 -0.038 -0.036 -0.031 -0.016  0.009 14.15866 14.15927 -9.50976  18.018
 4.40 3.20  0.051  0.054  0.059  0.074  0.102 14.35852 14.35934 -9.30969  22.681
 4.40 3.40  0.157  0.159  0.165  0.180  0.209 14.55837 14.55941 -9.10961  28.550
 4.40 3.60  0.280  0.282  0.288  0.303  0.332 14.75825 14.75953 -8.90951  35.938
 4.40 3.80  0.421  0.423  0.429  0.444  0.472 14.95816 14.95970 -8.70936  45.238
 4.40 4.00  0.576  0.578  0.583  0.597  0.625 15.15806 15.15987 -8.50920  56.943
 4.40 4.20  0.747  0.749  0.754  0.767  0.793 15.35789 15.36000 -8.30903  71.673
 4.40 4.40  0.928  0.930  0.935  0.946  0.969 15.55767 15.56013 -8.10884  90.208
 4.40 4.60  1.118  1.120  1.124  1.134  1.154 15.75739 15.76031 -7.90860 113.531
 4.40 4.80  1.315  1.316  1.320  1.328  1.346 15.95702 15.96063 -7.70825 142.871
 4.40 5.00  1.516  1.517  1.519  1.526  1.541 16.15655 16.16107 -7.50780 179.775
 4.40 5.20  1.723  1.724  1.726  1.732  1.744 16.35590 16.36173 -7.30717 226.155
 4.40 5.40  1.932  1.933  1.934  1.939  1.948 16.55501 16.56266 -7.10630 284.413
 4.40 5.60  2.143  2.144  2.145  2.149  2.156 16.75381 16.76392 -6.90510 357.552
 4.40 5.80  2.357  2.357  2.358  2.361  2.367 16.95209 16.96567 -6.70338 449.234
 4.40 6.00  2.569  2.569  2.570  2.572  2.576 17.14983 17.16791 -6.50114 564.079
 4.40 6.25  2.838  2.838  2.839  2.840  2.843 17.39582 17.42166 -6.24730 748.747
 4.40 6.50  3.105  3.105  3.105  3.106  3.108 17.64038 17.67660 -5.99225 992.246
 4.40 6.75  3.372  3.372  3.372  3.373  3.374 17.88329 17.93297 -5.735861312.469
 4.40 7.00  3.630  3.630  3.630  3.630  3.631 18.12385 18.19117 -5.477691731.391
 4.40 7.25  3.876  3.876  3.876  3.877  3.878 18.36099 18.45194 -5.217032274.844
 4.40 7.50  4.110  4.110  4.110  4.110  4.111 18.59362 18.71559 -4.953512973.333
 4.40 7.75  4.321  4.321  4.321  4.321  4.322 18.81862 18.98298 -4.686083852.644
 4.40 8.00  4.516  4.516  4.516  4.516  4.517 19.03703 19.25382 -4.415104954.523
 4.45-2.00 -0.439 -0.438 -0.438 -0.436 -0.433  9.12710  9.08991-14.57922   0.054
 4.45-1.50 -0.437 -0.436 -0.436 -0.434 -0.430  9.62716  9.58984-14.07915   0.096
 4.45-1.00 -0.434 -0.433 -0.433 -0.430 -0.426 10.12711 10.08990-13.57905   0.171
 4.45-0.50 -0.429 -0.429 -0.428 -0.425 -0.420 10.62675 10.59017-13.07878   0.303
 4.45 0.00 -0.423 -0.422 -0.421 -0.418 -0.411 11.12613 11.09096-12.57807   0.538
 4.45 0.50 -0.412 -0.411 -0.410 -0.405 -0.396 11.62428 11.59295-12.07603   0.951
 4.45 1.00 -0.393 -0.392 -0.390 -0.384 -0.372 12.12057 12.09726-11.57187   1.670
 4.45 1.25 -0.379 -0.378 -0.375 -0.368 -0.354 12.36795 12.34982-11.31924   2.208
 4.45 1.50 -0.358 -0.357 -0.354 -0.346 -0.330 12.61532 12.60239-11.06661   2.920
 4.45 1.75 -0.332 -0.330 -0.327 -0.318 -0.300 12.86325 12.85448-10.81447   3.866
 4.45 2.00 -0.297 -0.295 -0.292 -0.281 -0.261 13.11160 13.10619-10.56273   5.126
 4.45 2.25 -0.256 -0.254 -0.250 -0.239 -0.217 13.36048 13.35732-10.31164   6.810
 4.45 2.50 -0.206 -0.204 -0.200 -0.187 -0.164 13.60970 13.60810-10.06088   9.058
 4.45 2.75 -0.145 -0.143 -0.138 -0.125 -0.100 13.85923 13.85858 -9.81038  12.059
 4.45 3.00 -0.071 -0.069 -0.064 -0.050 -0.025 14.10890 14.10890 -9.56004  16.065
 4.45 3.20  0.002  0.004  0.009  0.023  0.049 14.30874 14.30907 -9.35988  20.220
 4.45 3.40  0.088  0.090  0.095  0.109  0.135 14.50859 14.50921 -9.15974  25.451
 4.45 3.60  0.190  0.192  0.197  0.211  0.237 14.70847 14.70934 -8.95963  32.036
 4.45 3.80  0.311  0.313  0.318  0.331  0.356 14.90835 14.90946 -8.75952  40.326
 4.45 4.00  0.446  0.448  0.453  0.465  0.489 15.10823 15.10958 -8.55941  50.762
 4.45 4.20  0.603  0.605  0.609  0.621  0.643 15.30810 15.30971 -8.35929  63.895
 4.45 4.40  0.772  0.774  0.777  0.788  0.808 15.50796 15.50984 -8.15915  80.425
 4.45 4.60  0.954  0.955  0.958  0.968  0.986 15.70777 15.71004 -7.95898 101.229
 4.45 4.80  1.146  1.147  1.150  1.158  1.175 15.90751 15.91031 -7.75874 127.412
 4.45 5.00  1.343  1.344  1.347  1.353  1.368 16.10721 16.11059 -7.55846 160.364
 4.45 5.20  1.549  1.550  1.552  1.558  1.570 16.30691 16.31087 -7.35817 201.814
 4.45 5.40  1.757  1.758  1.760  1.764  1.775 16.50657 16.51115 -7.15783 253.949
 4.45 5.60  1.968  1.969  1.970  1.974  1.982 16.70612 16.71157 -6.95737 319.514
 4.45 5.80  2.181  2.182  2.183  2.186  2.193 16.90543 16.91229 -6.75663 401.920
 4.45 6.00  2.395  2.396  2.396  2.399  2.404 17.10449 17.11327 -6.55564 505.451
 4.45 6.25  2.668  2.668  2.669  2.671  2.675 17.35271 17.36497 -6.30394 672.647
 4.45 6.50  2.940  2.940  2.941  2.942  2.945 17.60010 17.61742 -6.05149 894.290
 4.45 6.75  3.217  3.217  3.217  3.218  3.220 17.84615 17.87123 -5.797741187.223
 4.45 7.00  3.490  3.490  3.490  3.491  3.492 18.09061 18.12646 -5.542571573.245
 4.45 7.25  3.759  3.759  3.760  3.760  3.761 18.33298 18.38334 -5.285682079.536
 4.45 7.50  4.016  4.016  4.016  4.017  4.017 18.57264 18.64227 -5.026692740.068
 4.45 7.75  4.257  4.257  4.257  4.258  4.258 18.80808 18.90408 -4.764813592.845
 4.45 8.00  4.486  4.486  4.486  4.486  4.486 19.03981 19.16850 -4.500314690.780
 4.50-2.00 -0.438 -0.438 -0.437 -0.436 -0.432  9.07737  9.03981-14.62912   0.048
 4.50-1.50 -0.434 -0.434 -0.433 -0.431 -0.428  9.57715  9.53983-14.12919   0.086
 4.50-1.00 -0.430 -0.430 -0.429 -0.427 -0.423 10.07737 10.03981-13.62912   0.152
 4.50-0.50 -0.426 -0.425 -0.424 -0.422 -0.417 10.57715 10.53983-13.12913   0.270
 4.50 0.00 -0.420 -0.420 -0.419 -0.416 -0.409 11.07700 11.03981-12.62912   0.481
 4.50 0.50 -0.412 -0.411 -0.410 -0.406 -0.398 11.57692 11.54008-12.12889   0.855
 4.50 1.00 -0.397 -0.396 -0.394 -0.390 -0.380 12.07628 12.04060-11.62819   1.517
 4.50 1.25 -0.384 -0.383 -0.381 -0.376 -0.364 12.32578 12.29119-11.37764   2.020
 4.50 1.50 -0.366 -0.365 -0.363 -0.357 -0.344 12.57507 12.54208-11.12685   2.687
 4.50 1.75 -0.341 -0.340 -0.337 -0.330 -0.315 12.82370 12.79346-10.87547   3.568
 4.50 2.00 -0.307 -0.306 -0.303 -0.294 -0.278 13.07188 13.04532-10.62361   4.731
 4.50 2.25 -0.263 -0.262 -0.258 -0.249 -0.230 13.31946 13.29796-10.37100   6.257
 4.50 2.50 -0.210 -0.209 -0.205 -0.194 -0.173 13.56703 13.55060-10.11839   8.276
 4.50 2.75 -0.149 -0.147 -0.143 -0.131 -0.107 13.81472 13.80309 -9.86593  10.950
 4.50 3.00 -0.077 -0.075 -0.070 -0.056 -0.030 14.06258 14.05538 -9.61368  14.495
 4.50 3.20 -0.011 -0.009 -0.004  0.010  0.038 14.26131 14.25656 -9.41247  18.172
 4.50 3.40  0.064  0.066  0.072  0.087  0.116 14.46031 14.45749 -9.21152  22.802
 4.50 3.60  0.153  0.155  0.161  0.176  0.205 14.65964 14.65822 -9.01084  28.639
 4.50 3.80  0.256  0.258  0.264  0.279  0.307 14.85917 14.85878 -8.81032  35.997
 4.50 4.00  0.374  0.376  0.381  0.395  0.421 15.05881 15.05918 -8.60995  45.271
 4.50 4.20  0.512  0.514  0.519  0.531  0.555 15.25849 15.25933 -8.40973  56.974
 4.50 4.40  0.664  0.666  0.670  0.680  0.701 15.45822 15.45948 -8.20952  71.706
 4.50 4.60  0.832  0.833  0.836  0.845  0.863 15.65802 15.65962 -8.00931  90.253
 4.50 4.80  1.012  1.013  1.016  1.024  1.040 15.85784 15.85978 -7.80910 113.598
 4.50 5.00  1.199  1.200  1.202  1.209  1.222 16.05767 16.05994 -7.60889 142.982
 4.50 5.20  1.400  1.400  1.402  1.408  1.419 16.25744 16.26017 -7.40867 179.956
 4.50 5.40  1.603  1.604  1.605  1.610  1.619 16.45717 16.46046 -7.20842 226.480
 4.50 5.60  1.811  1.812  1.813  1.817  1.825 16.65688 16.66082 -7.00814 285.021
 4.50 5.80  2.024  2.024  2.025  2.028  2.035 16.85655 16.86127 -6.80777 358.668
 4.50 6.00  2.237  2.237  2.238  2.240  2.246 17.05614 17.06183 -6.60730 451.301
 4.50 6.25  2.508  2.508  2.509  2.511  2.515 17.30527 17.31264 -6.35648 601.233
 4.50 6.50  2.779  2.779  2.779  2.781  2.784 17.55400 17.56372 -6.10530 800.630
 4.50 6.75  3.058  3.058  3.058  3.059  3.062 17.80221 17.81554 -5.853481065.428
 4.50 7.00  3.337  3.337  3.337  3.338  3.339 18.04961 18.06819 -5.600851416.438
 4.50 7.25  3.617  3.617  3.618  3.618  3.619 18.29549 18.32203 -5.347001879.940
 4.50 7.50  3.892  3.893  3.893  3.893  3.894 18.53958 18.57738 -5.091622490.019
 4.50 7.75  4.158  4.158  4.158  4.158  4.159 18.78081 18.83507 -4.833853287.334
 4.50 8.00  4.408  4.408  4.408  4.408  4.408 19.01953 19.09482 -4.573984327.572
 4.55-2.00 -0.439 -0.438 -0.438 -0.437 -0.433  9.02735  8.98981-14.67923   0.043
 4.55-1.50 -0.436 -0.436 -0.436 -0.434 -0.431  9.52724  9.48982-14.17921   0.076
 4.55-1.00 -0.432 -0.432 -0.432 -0.430 -0.426 10.02735  9.98985-13.67923   0.136
 4.55-0.50 -0.427 -0.427 -0.426 -0.424 -0.419 10.52711 10.48982-13.17914   0.241
 4.55 0.00 -0.420 -0.420 -0.419 -0.416 -0.410 11.02735 10.98985-12.67902   0.429
 4.55 0.50 -0.411 -0.411 -0.410 -0.406 -0.399 11.52711 11.48982-12.17914   0.762
 4.55 1.00 -0.399 -0.398 -0.397 -0.393 -0.384 12.02694 11.98998-11.67902   1.355
 4.55 1.25 -0.390 -0.390 -0.388 -0.383 -0.373 12.27690 12.24004-11.42896   1.807
 4.55 1.50 -0.378 -0.377 -0.376 -0.370 -0.359 12.52686 12.49010-11.17888   2.409
 4.55 1.75 -0.361 -0.360 -0.358 -0.352 -0.339 12.77674 12.74033-10.92870   3.211
 4.55 2.00 -0.336 -0.335 -0.332 -0.326 -0.311 13.02653 12.99069-10.67840   4.277
 4.55 2.25 -0.299 -0.298 -0.296 -0.288 -0.272 13.27600 13.24119-10.42787   5.695
 4.55 2.50 -0.250 -0.249 -0.246 -0.237 -0.220 13.52518 13.49192-10.17705   7.577
 4.55 2.75 -0.185 -0.184 -0.180 -0.171 -0.151 13.77401 13.74323 -9.92568  10.065
 4.55 3.00 -0.105 -0.104 -0.100 -0.089 -0.068 14.02243 13.99502 -9.67387  13.351
 4.55 3.20 -0.031 -0.030 -0.026 -0.014  0.008 14.22049 14.19705 -9.47193  16.703
 4.55 3.40  0.049  0.051  0.055  0.068  0.092 14.41856 14.39908 -9.26996  20.894
 4.55 3.60  0.138  0.140  0.144  0.158  0.184 14.61663 14.60112 -9.06796  26.135
 4.55 3.80  0.236  0.238  0.243  0.257  0.284 14.81472 14.80315 -8.86595  32.690
 4.55 4.00  0.346  0.348  0.352  0.367  0.394 15.01284 15.00518 -8.66394  40.890
 4.55 4.20  0.469  0.471  0.475  0.489  0.515 15.21144 15.20651 -8.46257  51.233
 4.55 4.40  0.606  0.607  0.611  0.624  0.648 15.41033 15.40757 -8.26147  64.257
 4.55 4.60  0.757  0.759  0.763  0.774  0.795 15.60958 15.60836 -8.06066  80.688
 4.55 4.80  0.923  0.924  0.927  0.936  0.955 15.80906 15.80899 -7.86003 101.413
 4.55 5.00  1.097  1.098  1.100  1.108  1.122 16.00860 16.00945 -7.65956 127.539
 4.55 5.20  1.286  1.286  1.288  1.294  1.307 16.20816 16.20973 -7.45924 160.493
 4.55 5.40  1.478  1.479  1.481  1.485  1.495 16.40777 16.41001 -7.25892 201.970
 4.55 5.60  1.679  1.679  1.680  1.684  1.692 16.60745 16.61034 -7.05861 254.174
 4.55 5.80  1.885  1.886  1.887  1.890  1.897 16.80717 16.81075 -6.85829 319.873
 4.55 6.00  2.093  2.093  2.094  2.096  2.102 17.00690 17.01115 -6.65797 402.553
 4.55 6.25  2.361  2.361  2.362  2.364  2.368 17.25631 17.26165 -6.40744 536.477
 4.55 6.50  2.628  2.628  2.629  2.630  2.633 17.50556 17.51215 -6.15677 714.819
 4.55 6.75  2.902  2.902  2.902  2.903  2.905 17.75466 17.76311 -5.90579 952.175
 4.55 7.00  3.179  3.179  3.179  3.180  3.181 18.00346 18.01452 -5.654431267.789
 4.55 7.25  3.460  3.460  3.461  3.461  3.462 18.25133 18.26654 -5.402451686.577
 4.55 7.50  3.741  3.741  3.741  3.741  3.742 18.49817 18.51944 -5.149602241.223
 4.55 7.75  4.018  4.018  4.018  4.018  4.019 18.74332 18.77393 -4.895102972.180
 4.55 8.00  4.286  4.286  4.286  4.287  4.287 18.98700 19.02979 -4.639223934.715
 4.60-2.00 -0.435 -0.435 -0.435 -0.434 -0.430  8.97722  8.93982-14.72909   0.038
 4.60-1.50 -0.434 -0.434 -0.434 -0.432 -0.429  9.47712  9.43981-14.22922   0.068
 4.60-1.00 -0.432 -0.432 -0.432 -0.430 -0.426  9.97722  9.93982-13.72909   0.121
 4.60-0.50 -0.429 -0.429 -0.429 -0.427 -0.422 10.47712 10.43981-13.22922   0.215
 4.60 0.00 -0.425 -0.425 -0.424 -0.422 -0.417 10.97717 10.93987-12.72909   0.382
 4.60 0.50 -0.417 -0.417 -0.416 -0.414 -0.407 11.47712 11.43981-12.22915   0.679
 4.60 1.00 -0.406 -0.406 -0.405 -0.401 -0.394 11.97713 11.93992-11.72909   1.208
 4.60 1.25 -0.398 -0.398 -0.397 -0.393 -0.384 12.22713 12.18994-11.47908   1.611
 4.60 1.50 -0.388 -0.388 -0.386 -0.382 -0.372 12.47712 12.43996-11.22907   2.148
 4.60 1.75 -0.375 -0.375 -0.373 -0.368 -0.356 12.72707 12.69001-10.97897   2.864
 4.60 2.00 -0.357 -0.356 -0.354 -0.348 -0.335 12.97699 12.94007-10.72886   3.819
 4.60 2.25 -0.332 -0.331 -0.329 -0.322 -0.307 13.22686 13.19015-10.47882   5.091
 4.60 2.50 -0.296 -0.295 -0.292 -0.285 -0.268 13.47669 13.44028-10.22878   6.786
 4.60 2.75 -0.246 -0.245 -0.242 -0.233 -0.215 13.72650 13.69051 -9.97855   9.043
 4.60 3.00 -0.179 -0.178 -0.175 -0.165 -0.145 13.97626 13.94087 -9.72816  12.048
 4.60 3.20 -0.110 -0.109 -0.106 -0.095 -0.074 14.17587 14.14126 -9.52772  15.148
 4.60 3.40 -0.029 -0.028 -0.024 -0.013  0.009 14.37530 14.34182 -9.32710  19.036
 4.60 3.60  0.065  0.067  0.071  0.082  0.105 14.57449 14.54268 -9.12624  23.902
 4.60 3.80  0.174  0.176  0.180  0.191  0.214 14.77336 14.74395 -8.92504  29.981
 4.60 4.00  0.294  0.295  0.299  0.310  0.334 14.97193 14.94552 -8.72354  37.570
 4.60 4.20  0.425  0.426  0.430  0.441  0.464 15.16990 15.14760 -8.52145  46.989
 4.60 4.40  0.564  0.565  0.569  0.580  0.602 15.36788 15.34967 -8.31936  58.769
 4.60 4.60  0.712  0.713  0.716  0.727  0.747 15.56588 15.55173 -8.11728  73.503
 4.60 4.80  0.868  0.869  0.872  0.881  0.900 15.76396 15.75372 -7.91527  91.936
 4.60 5.00  1.032  1.033  1.035  1.043  1.060 15.96213 15.95564 -7.71332 115.000
 4.60 5.20  1.205  1.206  1.208  1.215  1.229 16.16079 16.15704 -7.51196 144.074
 4.60 5.40  1.385  1.386  1.387  1.393  1.404 16.35970 16.35817 -7.31087 180.695
 4.60 5.60  1.573  1.573  1.575  1.579  1.589 16.55889 16.55900 -7.11006 227.000
 4.60 5.80  1.768  1.768  1.770  1.773  1.781 16.75823 16.75964 -6.90941 285.476
 4.60 6.00  1.966  1.966  1.967  1.970  1.975 16.95765 16.96019 -6.70885 359.119
 4.60 6.25  2.224  2.224  2.225  2.227  2.232 17.20701 17.21077 -6.45827 478.555
 4.60 6.50  2.484  2.484  2.484  2.486  2.489 17.45637 17.46135 -6.20768 637.711
 4.60 6.75  2.747  2.747  2.747  2.748  2.751 17.70566 17.71205 -5.95691 849.717
 4.60 7.00  3.017  3.017  3.017  3.018  3.019 17.95487 17.96289 -5.705981132.048
 4.60 7.25  3.292  3.292  3.293  3.293  3.295 18.20365 18.21406 -5.454821507.506
 4.60 7.50  3.569  3.569  3.569  3.569  3.570 18.45194 18.46568 -5.203292006.372
 4.60 7.75  3.845  3.845  3.846  3.846  3.847 18.69931 18.71823 -4.950762667.423
 4.60 8.00  4.118  4.118  4.118  4.118  4.118 18.94591 18.97155 -4.697453543.049
 4.65-2.00 -0.433 -0.433 -0.433 -0.431 -0.427  8.92722  8.88981-14.77911   0.034
 4.65-1.50 -0.432 -0.432 -0.431 -0.430 -0.426  9.42716  9.38970-14.27918   0.061
 4.65-1.00 -0.430 -0.430 -0.429 -0.428 -0.423  9.92722  9.88981-13.77911   0.108
 4.65-0.50 -0.428 -0.428 -0.427 -0.426 -0.421 10.42716 10.38988-13.27918   0.192
 4.65 0.00 -0.425 -0.425 -0.425 -0.423 -0.418 10.92722 10.88986-12.77911   0.341
 4.65 0.50 -0.421 -0.421 -0.420 -0.418 -0.412 11.42716 11.38988-12.27918   0.606
 4.65 1.00 -0.414 -0.413 -0.413 -0.410 -0.403 11.92717 11.88986-11.77911   1.077
 4.65 1.25 -0.408 -0.408 -0.407 -0.404 -0.397 12.17717 12.13986-11.52910   1.436
 4.65 1.50 -0.402 -0.401 -0.400 -0.397 -0.389 12.42716 12.38987-11.27910   1.915
 4.65 1.75 -0.392 -0.391 -0.390 -0.386 -0.377 12.67711 12.63993-11.02910   2.554
 4.65 2.00 -0.379 -0.379 -0.377 -0.373 -0.362 12.92706 12.88997-10.77911   3.405
 4.65 2.25 -0.361 -0.360 -0.359 -0.353 -0.342 13.17703 13.14001-10.52902   4.540
 4.65 2.50 -0.335 -0.335 -0.333 -0.327 -0.313 13.42700 13.39005-10.27893   6.053
 4.65 2.75 -0.299 -0.298 -0.296 -0.289 -0.273 13.67694 13.64011-10.02889   8.070
 4.65 3.00 -0.248 -0.247 -0.245 -0.237 -0.219 13.92686 13.89020 -9.77885  10.759
 4.65 3.20 -0.195 -0.194 -0.191 -0.182 -0.162 14.12675 14.09032 -9.57875  13.540
 4.65 3.40 -0.128 -0.127 -0.124 -0.114 -0.092 14.32660 14.29048 -9.37861  17.039
 4.65 3.60 -0.046 -0.045 -0.042 -0.031 -0.008 14.52642 14.49068 -9.17842  21.439
 4.65 3.80  0.050  0.051  0.055  0.066  0.090 14.72619 14.69093 -8.97816  26.968
 4.65 4.00  0.162  0.164  0.167  0.178  0.203 14.92588 14.89126 -8.77780  33.915
 4.65 4.20  0.292  0.294  0.297  0.308  0.332 15.12538 15.09180 -8.57721  42.625
 4.65 4.40  0.436  0.438  0.441  0.452  0.474 15.32467 15.29257 -8.37639  53.534
 4.65 4.60  0.594  0.595  0.599  0.608  0.629 15.52363 15.49369 -8.17528  67.172
 4.65 4.80  0.763  0.764  0.767  0.775  0.794 15.72223 15.69519 -7.97384  84.187
 4.65 5.00  0.937  0.938  0.940  0.948  0.964 15.92054 15.89697 -7.77211 105.411
 4.65 5.20  1.116  1.116  1.118  1.125  1.139 16.11845 16.09915 -7.56989 131.776
 4.65 5.40  1.296  1.296  1.298  1.303  1.316 16.31635 16.30134 -7.36767 164.735
 4.65 5.60  1.477  1.478  1.479  1.484  1.494 16.51432 16.50346 -7.16554 205.970
 4.65 5.80  1.662  1.662  1.664  1.667  1.676 16.71245 16.70539 -6.96365 257.669
 4.65 6.00  1.849  1.849  1.850  1.853  1.861 16.91073 16.90714 -6.76195 322.518
 4.65 6.25  2.092  2.092  2.093  2.095  2.101 17.15915 17.15870 -6.51036 428.174
 4.65 6.50  2.338  2.338  2.339  2.340  2.344 17.40790 17.40993 -6.25909 569.348
 4.65 6.75  2.589  2.589  2.590  2.591  2.594 17.65701 17.66084 -6.00815 758.450
 4.65 7.00  2.844  2.844  2.844  2.845  2.847 17.90612 17.91174 -5.757211010.358
 4.65 7.25  3.109  3.109  3.109  3.109  3.111 18.15512 18.16272 -5.506251345.784
 4.65 7.50  3.374  3.374  3.374  3.375  3.376 18.40398 18.41380 -5.255241792.292
 4.65 7.75  3.642  3.642  3.642  3.643  3.644 18.65234 18.66539 -5.003602385.572
 4.65 8.00  3.909  3.909  3.909  3.909  3.910 18.90031 18.91735 -4.751543173.859
 4.70-2.00 -0.433 -0.433 -0.433 -0.431 -0.427  8.87726  8.83979-14.82915   0.030
 4.70-1.50 -0.431 -0.430 -0.430 -0.428 -0.424  9.37712  9.33985-14.32920   0.054
 4.70-1.00 -0.428 -0.428 -0.427 -0.425 -0.421  9.87720  9.83979-13.82915   0.096
 4.70-0.50 -0.426 -0.425 -0.425 -0.423 -0.418 10.37712 10.33985-13.32920   0.171
 4.70 0.00 -0.423 -0.423 -0.422 -0.420 -0.415 10.87720 10.83986-12.82915   0.304
 4.70 0.50 -0.420 -0.420 -0.419 -0.417 -0.411 11.37712 11.33985-12.32920   0.540
 4.70 1.00 -0.415 -0.415 -0.414 -0.412 -0.406 11.87714 11.83986-11.82915   0.960
 4.70 1.25 -0.412 -0.412 -0.411 -0.409 -0.402 12.12714 12.08985-11.57913   1.280
 4.70 1.50 -0.408 -0.407 -0.407 -0.404 -0.397 12.37712 12.33985-11.32911   1.707
 4.70 1.75 -0.402 -0.401 -0.400 -0.397 -0.390 12.62711 12.58988-11.07913   2.276
 4.70 2.00 -0.394 -0.393 -0.392 -0.389 -0.380 12.87708 12.83992-10.82915   3.034
 4.70 2.25 -0.382 -0.382 -0.381 -0.377 -0.367 13.12701 13.08998-10.57909   4.046
 4.70 2.50 -0.366 -0.366 -0.364 -0.360 -0.349 13.37694 13.34005-10.32901   5.395
 4.70 2.75 -0.343 -0.342 -0.340 -0.335 -0.323 13.62696 13.59005-10.07894   7.194
 4.70 3.00 -0.309 -0.308 -0.306 -0.300 -0.286 13.87697 13.84004 -9.82886   9.592
 4.70 3.20 -0.271 -0.270 -0.268 -0.261 -0.245 14.07688 14.04012 -9.62885  12.074
 4.70 3.40 -0.221 -0.220 -0.218 -0.210 -0.192 14.27680 14.24020 -9.42883  15.197
 4.70 3.60 -0.158 -0.157 -0.154 -0.146 -0.126 14.47674 14.44028 -9.22879  19.129
 4.70 3.80 -0.079 -0.078 -0.075 -0.066 -0.044 14.67671 14.64035 -9.02870  24.076
 4.70 4.00  0.015  0.016  0.020  0.030  0.053 14.87668 14.84042 -8.82857  30.301
 4.70 4.20  0.128  0.129  0.133  0.144  0.168 15.07655 15.04054 -8.62842  38.129
 4.70 4.40  0.258  0.259  0.262  0.273  0.298 15.27634 15.24073 -8.42821  47.969
 4.70 4.60  0.403  0.405  0.408  0.419  0.443 15.47606 15.44101 -8.22791  60.337
 4.70 4.80  0.564  0.565  0.568  0.578  0.602 15.67566 15.64148 -8.02744  75.866
 4.70 5.00  0.735  0.736  0.739  0.749  0.770 15.87512 15.84211 -7.82681  95.353
 4.70 5.20  0.919  0.920  0.922  0.930  0.949 16.07429 16.04298 -7.62601 119.738
 4.70 5.40  1.108  1.109  1.111  1.118  1.134 16.27319 16.24411 -7.42495 150.223
 4.70 5.60  1.301  1.302  1.304  1.310  1.323 16.47174 16.44567 -7.22338 188.233
 4.70 5.80  1.496  1.497  1.498  1.503  1.515 16.67000 16.64756 -7.02140 235.593
 4.70 6.00  1.691  1.691  1.692  1.696  1.706 16.86806 16.84960 -6.81930 294.659
 4.70 6.25  1.933  1.933  1.934  1.937  1.944 17.11536 17.10234 -6.56656 389.353
 4.70 6.50  2.174  2.174  2.175  2.177  2.183 17.36267 17.35507 -6.31381 514.478
 4.70 6.75  2.417  2.418  2.418  2.420  2.424 17.61045 17.60736 -6.06156 681.009
 4.70 7.00  2.649  2.650  2.650  2.651  2.654 17.85854 17.85932 -5.80967 902.982
 4.70 7.25  2.900  2.900  2.900  2.901  2.903 18.10707 18.11071 -5.558321202.199
 4.70 7.50  3.152  3.152  3.152  3.152  3.154 18.35564 18.36211 -5.306981600.565
 4.70 7.75  3.407  3.407  3.407  3.407  3.409 18.60423 18.61351 -5.055562130.897
 4.70 8.00  3.662  3.662  3.662  3.662  3.663 18.85285 18.86493 -4.804102836.918
 4.75-2.00 -0.434 -0.434 -0.434 -0.432 -0.428  8.82724  8.78979-14.87910   0.027
 4.75-1.50 -0.432 -0.432 -0.432 -0.430 -0.426  9.32715  9.28981-14.37924   0.048
 4.75-1.00 -0.430 -0.430 -0.429 -0.427 -0.423  9.82724  9.78979-13.87910   0.086
 4.75-0.50 -0.426 -0.426 -0.426 -0.424 -0.419 10.32716 10.28981-13.37924   0.152
 4.75 0.00 -0.422 -0.422 -0.421 -0.419 -0.414 10.82724 10.78986-12.87910   0.271
 4.75 0.50 -0.418 -0.417 -0.417 -0.414 -0.408 11.32716 11.28981-12.37914   0.481
 4.75 1.00 -0.413 -0.413 -0.412 -0.410 -0.403 11.82718 11.78986-11.87910   0.855
 4.75 1.25 -0.411 -0.411 -0.410 -0.407 -0.400 12.07717 12.03984-11.62912   1.140
 4.75 1.50 -0.408 -0.408 -0.407 -0.404 -0.397 12.32716 12.28981-11.37914   1.521
 4.75 1.75 -0.404 -0.404 -0.403 -0.400 -0.393 12.57714 12.53987-11.12912   2.028
 4.75 2.00 -0.399 -0.399 -0.398 -0.395 -0.387 12.82711 12.78993-10.87910   2.705
 4.75 2.25 -0.392 -0.392 -0.391 -0.387 -0.379 13.07703 13.03999-10.62906   3.607
 4.75 2.50 -0.382 -0.382 -0.381 -0.377 -0.368 13.32695 13.29003-10.37903   4.809
 4.75 2.75 -0.368 -0.367 -0.366 -0.362 -0.352 13.57700 13.54002-10.12906   6.412
 4.75 3.00 -0.347 -0.346 -0.345 -0.340 -0.329 13.82705 13.79000 -9.87910   8.550
 4.75 3.20 -0.323 -0.322 -0.320 -0.315 -0.303 14.02701 13.99000 -9.67903  10.763
 4.75 3.40 -0.291 -0.290 -0.288 -0.282 -0.268 14.22697 14.19002 -9.47896  13.548
 4.75 3.60 -0.247 -0.247 -0.245 -0.238 -0.223 14.42693 14.39009 -9.27890  17.054
 4.75 3.80 -0.191 -0.190 -0.188 -0.181 -0.163 14.62689 14.59019 -9.07883  21.467
 4.75 4.00 -0.120 -0.119 -0.117 -0.108 -0.089 14.82685 14.79029 -8.87877  27.021
 4.75 4.20 -0.030 -0.029 -0.027 -0.018  0.003 15.02673 14.99036 -8.67868  34.010
 4.75 4.40  0.075  0.076  0.079  0.089  0.112 15.22661 15.19044 -8.47857  42.803
 4.75 4.60  0.200  0.201  0.205  0.215  0.239 15.42648 15.39055 -8.27845  53.867
 4.75 4.80  0.343  0.344  0.347  0.358  0.382 15.62634 15.59071 -8.07830  67.784
 4.75 5.00  0.500  0.501  0.504  0.514  0.539 15.82620 15.79092 -7.87811  85.287
 4.75 5.20  0.671  0.672  0.675  0.685  0.708 16.02599 15.99114 -7.67786 107.286
 4.75 5.40  0.852  0.853  0.855  0.864  0.886 16.22570 16.19143 -7.47749 134.918
 4.75 5.60  1.040  1.040  1.043  1.051  1.070 16.42526 16.39188 -7.27696 169.603
 4.75 5.80  1.233  1.234  1.236  1.243  1.260 16.62458 16.59264 -7.07618 213.063
 4.75 6.00  1.430  1.431  1.433  1.439  1.453 16.82367 16.79365 -6.87517 267.473
 4.75 6.25  1.680  1.681  1.682  1.687  1.699 17.07204 17.04536 -6.62352 354.778
 4.75 6.50  1.933  1.933  1.934  1.938  1.947 17.31994 17.29754 -6.37141 469.839
 4.75 6.75  2.183  2.183  2.184  2.187  2.194 17.56716 17.55047 -6.11846 620.808
 4.75 7.00  2.422  2.423  2.423  2.425  2.431 17.81438 17.80339 -5.86550 820.286
 4.75 7.25  2.667  2.667  2.667  2.669  2.673 18.06172 18.05609 -5.612801084.045
 4.75 7.50  2.911  2.911  2.911  2.912  2.915 18.30920 18.30857 -5.360311433.056
 4.75 7.75  3.154  3.154  3.155  3.155  3.157 18.55709 18.56069 -5.108181903.184
 4.75 8.00  3.398  3.398  3.399  3.399  3.401 18.80530 18.81251 -4.856362535.580
 4.80-2.00 -0.433 -0.433 -0.433 -0.431 -0.427  8.77721  8.73981-14.92922   0.024
 4.80-1.50 -0.432 -0.432 -0.432 -0.430 -0.426  9.27715  9.23980-14.42922   0.043
 4.80-1.00 -0.431 -0.431 -0.430 -0.428 -0.424  9.77721  9.73981-13.92922   0.076
 4.80-0.50 -0.428 -0.428 -0.428 -0.426 -0.421 10.27715 10.23980-13.42922   0.136
 4.80 0.00 -0.425 -0.425 -0.425 -0.423 -0.417 10.77721 10.73981-12.92922   0.241
 4.80 0.50 -0.421 -0.421 -0.420 -0.418 -0.412 11.27715 11.23980-12.42922   0.429
 4.80 1.00 -0.415 -0.414 -0.414 -0.411 -0.405 11.77721 11.73989-11.92922   0.762
 4.80 1.25 -0.411 -0.411 -0.410 -0.408 -0.401 12.02718 11.98984-11.67917   1.016
 4.80 1.50 -0.407 -0.407 -0.406 -0.403 -0.396 12.27715 12.23980-11.42911   1.356
 4.80 1.75 -0.403 -0.402 -0.401 -0.398 -0.390 12.52714 12.48984-11.17917   1.808
 4.80 2.00 -0.397 -0.397 -0.396 -0.393 -0.385 12.77714 12.73989-10.92922   2.411
 4.80 2.25 -0.392 -0.392 -0.391 -0.388 -0.379 13.02714 12.98984-10.67919   3.215
 4.80 2.50 -0.386 -0.385 -0.384 -0.381 -0.371 13.27715 13.23980-10.42911   4.286
 4.80 2.75 -0.376 -0.376 -0.375 -0.371 -0.361 13.52712 13.48988-10.17898   5.715
 4.80 3.00 -0.364 -0.363 -0.362 -0.358 -0.348 13.77706 13.73997 -9.92885   7.621
 4.80 3.20 -0.349 -0.349 -0.347 -0.343 -0.332 13.97701 13.94000 -9.72891   9.593
 4.80 3.40 -0.330 -0.329 -0.328 -0.323 -0.312 14.17695 14.14003 -9.52896  12.076
 4.80 3.60 -0.302 -0.302 -0.300 -0.296 -0.283 14.37692 14.34008 -9.32897  15.201
 4.80 3.80 -0.265 -0.265 -0.263 -0.258 -0.244 14.57692 14.54014 -9.12892  19.135
 4.80 4.00 -0.218 -0.217 -0.215 -0.209 -0.194 14.77692 14.74020 -8.92885  24.087
 4.80 4.20 -0.154 -0.153 -0.151 -0.145 -0.128 14.97683 14.94024 -8.72877  30.318
 4.80 4.40 -0.075 -0.075 -0.072 -0.065 -0.046 15.17674 15.14028 -8.52868  38.161
 4.80 4.60  0.021  0.021  0.024  0.032  0.053 15.37666 15.34034 -8.32861  48.032
 4.80 4.80  0.137  0.138  0.140  0.149  0.171 15.57661 15.54042 -8.12855  60.455
 4.80 5.00  0.269  0.270  0.273  0.282  0.305 15.77656 15.74052 -7.92849  76.088
 4.80 5.20  0.421  0.422  0.425  0.434  0.457 15.97646 15.94062 -7.72835  95.750
 4.80 5.40  0.586  0.587  0.590  0.599  0.622 16.17632 16.14074 -7.52817 120.479
 4.80 5.60  0.763  0.764  0.766  0.775  0.797 16.37613 16.34093 -7.32796 151.580
 4.80 5.80  0.949  0.949  0.952  0.960  0.980 16.57588 16.54126 -7.12770 190.677
 4.80 6.00  1.140  1.141  1.143  1.151  1.169 16.77554 16.74170 -6.92738 239.810
 4.80 6.25  1.383  1.384  1.386  1.392  1.408 17.02487 16.99237 -6.67672 319.170
 4.80 6.50  1.630  1.631  1.633  1.638  1.651 17.27393 17.24329 -6.42574 424.407
 4.80 6.75  1.880  1.881  1.882  1.886  1.897 17.52261 17.49472 -6.17424 563.497
 4.80 7.00  2.132  2.133  2.134  2.137  2.146 17.77085 17.74664 -5.92227 746.997
 4.80 7.25  2.379  2.380  2.380  2.383  2.390 18.01830 17.99927 -5.66964 987.832
 4.80 7.50  2.630  2.631  2.631  2.633  2.638 18.26553 18.25212 -5.416801305.142
 4.80 7.75  2.875  2.875  2.875  2.876  2.880 18.51266 18.50507 -5.163871723.616
 4.80 8.00  3.117  3.117  3.117  3.118  3.121 18.75967 18.75815 -4.910802274.916
 4.85-2.00 -0.433 -0.433 -0.432 -0.431 -0.427  8.72722  8.68975-14.97923   0.021
 4.85-1.50 -0.431 -0.431 -0.430 -0.429 -0.425  9.22712  9.18977-14.47925   0.038
 4.85-1.00 -0.429 -0.429 -0.429 -0.427 -0.422  9.72722  9.68984-13.97923   0.068
 4.85-0.50 -0.428 -0.428 -0.427 -0.425 -0.420 10.22712 10.18977-13.47925   0.121
 4.85 0.00 -0.426 -0.426 -0.425 -0.423 -0.418 10.72722 10.68984-12.97923   0.215
 4.85 0.50 -0.423 -0.423 -0.422 -0.420 -0.415 11.22711 11.18977-12.47912   0.382
 4.85 1.00 -0.419 -0.419 -0.418 -0.416 -0.410 11.72722 11.68984-11.97922   0.680
 4.85 1.25 -0.416 -0.416 -0.415 -0.413 -0.407 11.97717 11.93981-11.72917   0.906
 4.85 1.50 -0.413 -0.413 -0.412 -0.409 -0.403 12.22712 12.18977-11.47912   1.208
 4.85 1.75 -0.408 -0.408 -0.407 -0.405 -0.398 12.47713 12.43985-11.22917   1.611
 4.85 2.00 -0.403 -0.403 -0.402 -0.399 -0.392 12.72713 12.68993-10.97923   2.149
 4.85 2.25 -0.396 -0.396 -0.395 -0.392 -0.384 12.97713 12.93985-10.72920   2.865
 4.85 2.50 -0.388 -0.388 -0.387 -0.383 -0.375 13.22712 13.18977-10.47912   3.820
 4.85 2.75 -0.379 -0.378 -0.377 -0.374 -0.364 13.47709 13.43989-10.22897   5.094
 4.85 3.00 -0.367 -0.367 -0.366 -0.362 -0.351 13.72705 13.69002 -9.97881   6.793
 4.85 3.20 -0.356 -0.356 -0.355 -0.351 -0.340 13.92698 13.89003 -9.77888   8.551
 4.85 3.40 -0.343 -0.342 -0.341 -0.337 -0.326 14.12690 14.09005 -9.57896  10.763
 4.85 3.60 -0.325 -0.325 -0.324 -0.319 -0.307 14.32686 14.29006 -9.37896  13.549
 4.85 3.80 -0.302 -0.302 -0.300 -0.296 -0.283 14.52688 14.49008 -9.17888  17.056
 4.85 4.00 -0.272 -0.271 -0.270 -0.265 -0.252 14.72689 14.69011 -8.97881  21.470
 4.85 4.20 -0.230 -0.229 -0.228 -0.223 -0.209 14.92689 14.89020 -8.77878  27.025
 4.85 4.40 -0.176 -0.176 -0.174 -0.169 -0.153 15.12687 15.09029 -8.57875  34.017
 4.85 4.60 -0.107 -0.107 -0.105 -0.099 -0.083 15.32683 15.29036 -8.37867  42.818
 4.85 4.80 -0.021 -0.020 -0.018 -0.012  0.005 15.52675 15.49041 -8.17853  53.896
 4.85 5.00  0.081  0.081  0.083  0.091  0.109 15.72665 15.69046 -7.97840  67.838
 4.85 5.20  0.205  0.206  0.208  0.215  0.235 15.92653 15.89052 -7.77837  85.376
 4.85 5.40  0.345  0.346  0.348  0.356  0.376 16.12640 16.09058 -7.57835 107.444
 4.85 5.60  0.502  0.503  0.505  0.513  0.533 16.32629 16.29069 -7.37830 135.211
 4.85 5.80  0.673  0.674  0.676  0.684  0.704 16.52618 16.49087 -7.17817 170.149
 4.85 6.00  0.855  0.855  0.857  0.864  0.883 16.72607 16.69108 -6.97798 214.102
 4.85 6.25  1.091  1.091  1.093  1.100  1.117 16.97575 16.94137 -6.72763 285.255
 4.85 6.50  1.332  1.333  1.334  1.340  1.355 17.22531 17.19173 -6.47717 379.920
 4.85 6.75  1.575  1.575  1.577  1.582  1.595 17.47477 17.44237 -6.22663 505.729
 4.85 7.00  1.824  1.825  1.826  1.830  1.841 17.72403 17.69329 -5.97593 672.681
 4.85 7.25  2.067  2.068  2.069  2.072  2.082 17.97283 17.94451 -5.72453 893.488
 4.85 7.50  2.317  2.317  2.318  2.321  2.328 18.22116 18.19618 -5.472631184.973
 4.85 7.75  2.563  2.563  2.564  2.566  2.572 18.46886 18.44862 -5.220251568.339
 4.85 8.00  2.812  2.812  2.812  2.814  2.818 18.71601 18.70174 -4.967382071.854
 4.90-2.00 -0.435 -0.435 -0.434 -0.433 -0.430  8.67724  8.63979-15.02919   0.019
 4.90-1.50 -0.433 -0.432 -0.432 -0.431 -0.427  9.17725  9.13988-14.52915   0.034
 4.90-1.00 -0.430 -0.430 -0.429 -0.428 -0.424  9.67724  9.63979-14.02919   0.061
 4.90-0.50 -0.427 -0.427 -0.426 -0.425 -0.420 10.17725 10.13988-13.52915   0.108
 4.90 0.00 -0.424 -0.424 -0.423 -0.422 -0.416 10.67724 10.63978-13.02914   0.192
 4.90 0.50 -0.421 -0.421 -0.420 -0.418 -0.413 11.17725 11.13988-12.52915   0.341
 4.90 1.00 -0.418 -0.418 -0.417 -0.415 -0.409 11.67724 11.63988-12.02914   0.606
 4.90 1.25 -0.417 -0.416 -0.416 -0.413 -0.407 11.92725 11.88988-11.77915   0.808
 4.90 1.50 -0.414 -0.414 -0.414 -0.411 -0.405 12.17725 12.13988-11.52915   1.077
 4.90 1.75 -0.412 -0.411 -0.411 -0.408 -0.402 12.42721 12.38988-11.27912   1.436
 4.90 2.00 -0.408 -0.408 -0.407 -0.405 -0.398 12.67715 12.63988-11.02910   1.915
 4.90 2.25 -0.404 -0.403 -0.403 -0.400 -0.392 12.92706 12.88988-10.77912   2.554
 4.90 2.50 -0.398 -0.397 -0.397 -0.394 -0.386 13.17696 13.13988-10.52915   3.405
 4.90 2.75 -0.389 -0.389 -0.388 -0.385 -0.376 13.42701 13.38993-10.27908   4.540
 4.90 3.00 -0.379 -0.378 -0.377 -0.374 -0.365 13.67706 13.63999-10.02900   6.054
 4.90 3.20 -0.367 -0.367 -0.366 -0.363 -0.353 13.87702 13.83994 -9.82900   7.621
 4.90 3.40 -0.354 -0.354 -0.353 -0.349 -0.339 14.07698 14.03990 -9.62900   9.594
 4.90 3.60 -0.338 -0.337 -0.336 -0.332 -0.321 14.27696 14.23992 -9.42898  12.077
 4.90 3.80 -0.318 -0.318 -0.317 -0.313 -0.301 14.47696 14.44000 -9.22892  15.203
 4.90 4.00 -0.294 -0.294 -0.293 -0.288 -0.276 14.67697 14.64008 -9.02886  19.138
 4.90 4.20 -0.265 -0.264 -0.263 -0.258 -0.245 14.87697 14.84013 -8.82886  24.090
 4.90 4.40 -0.227 -0.227 -0.225 -0.220 -0.206 15.07696 15.04017 -8.62886  30.323
 4.90 4.60 -0.179 -0.179 -0.177 -0.172 -0.157 15.27691 15.24023 -8.42881  38.168
 4.90 4.80 -0.118 -0.118 -0.116 -0.111 -0.095 15.47681 15.44031 -8.22872  48.044
 4.90 5.00 -0.044 -0.044 -0.042 -0.036 -0.020 15.67669 15.64038 -8.02863  60.475
 4.90 5.20  0.049  0.050  0.051  0.057  0.074 15.87657 15.84043 -7.82855  76.117
 4.90 5.40  0.160  0.160  0.162  0.168  0.185 16.07644 16.04048 -7.62846  95.802
 4.90 5.60  0.289  0.290  0.292  0.298  0.315 16.27635 16.24058 -7.42836 120.572
 4.90 5.80  0.438  0.439  0.440  0.447  0.464 16.47630 16.44073 -7.22825 151.739
 4.90 6.00  0.600  0.600  0.602  0.608  0.625 16.67624 16.64088 -7.02812 190.951
 4.90 6.25  0.822  0.822  0.824  0.830  0.846 16.92605 16.89101 -6.77793 254.488
 4.90 6.50  1.056  1.056  1.058  1.063  1.078 17.17580 17.14114 -6.52768 339.117
 4.90 6.75  1.290  1.290  1.292  1.296  1.310 17.42551 17.39155 -6.27738 451.797
 4.90 7.00  1.537  1.537  1.539  1.543  1.555 17.67514 17.64207 -6.02697 601.729
 4.90 7.25  1.779  1.779  1.781  1.784  1.794 17.92457 17.89263 -5.77636 800.931
 4.90 7.50  2.025  2.026  2.027  2.030  2.038 18.17377 18.14333 -5.525491065.252
 4.90 7.75  2.267  2.268  2.268  2.271  2.278 18.42256 18.39471 -5.274151414.830
 4.90 8.00  2.514  2.514  2.514  2.516  2.522 18.67099 18.64660 -5.022411876.896
 4.95-2.00 -0.437 -0.437 -0.437 -0.436 -0.434  8.62726  8.58984-15.07920   0.017
 4.95-1.50 -0.436 -0.436 -0.436 -0.435 -0.432  9.12710  9.08991-14.57922   0.030
 4.95-1.00 -0.434 -0.434 -0.434 -0.433 -0.429  9.62726  9.58984-14.07920   0.054
 4.95-0.50 -0.431 -0.431 -0.431 -0.429 -0.426 10.12711 10.08990-13.57922   0.096
 4.95 0.00 -0.427 -0.427 -0.427 -0.425 -0.420 10.62726 10.58984-13.07915   0.171
 4.95 0.50 -0.422 -0.422 -0.422 -0.420 -0.415 11.12710 11.08991-12.57922   0.304
 4.95 1.00 -0.417 -0.417 -0.417 -0.414 -0.408 11.62716 11.58984-12.07915   0.540
 4.95 1.25 -0.415 -0.415 -0.414 -0.412 -0.405 11.87713 11.83987-11.82918   0.720
 4.95 1.50 -0.412 -0.412 -0.411 -0.409 -0.402 12.12710 12.08991-11.57922   0.960
 4.95 1.75 -0.409 -0.409 -0.408 -0.406 -0.399 12.37713 12.33987-11.32916   1.280
 4.95 2.00 -0.406 -0.406 -0.405 -0.403 -0.395 12.62716 12.58984-11.07909   1.707
 4.95 2.25 -0.403 -0.403 -0.402 -0.399 -0.392 12.87713 12.83987-10.82907   2.276
 4.95 2.50 -0.399 -0.399 -0.398 -0.395 -0.387 13.12711 13.08991-10.57905   3.035
 4.95 2.75 -0.394 -0.394 -0.393 -0.390 -0.381 13.37708 13.33993-10.32905   4.047
 4.95 3.00 -0.387 -0.387 -0.386 -0.383 -0.374 13.62706 13.58995-10.07904   5.396
 4.95 3.20 -0.379 -0.379 -0.378 -0.375 -0.366 13.82708 13.78993 -9.87905   6.793
 4.95 3.40 -0.370 -0.369 -0.369 -0.365 -0.356 14.02710 13.98991 -9.67905   8.551
 4.95 3.60 -0.357 -0.357 -0.356 -0.352 -0.342 14.22708 14.18993 -9.47903  10.764
 4.95 3.80 -0.340 -0.340 -0.339 -0.335 -0.325 14.42702 14.38999 -9.27899  13.551
 4.95 4.00 -0.320 -0.319 -0.318 -0.315 -0.304 14.62696 14.59006 -9.07894  17.058
 4.95 4.20 -0.294 -0.293 -0.292 -0.288 -0.277 14.82689 14.79014 -8.87892  21.472
 4.95 4.40 -0.261 -0.261 -0.260 -0.256 -0.243 15.02682 14.99022 -8.67890  27.029
 4.95 4.60 -0.222 -0.222 -0.220 -0.216 -0.203 15.22678 15.19027 -8.47885  34.023
 4.95 4.80 -0.174 -0.174 -0.172 -0.167 -0.153 15.42676 15.39029 -8.27876  42.827
 4.95 5.00 -0.116 -0.115 -0.114 -0.108 -0.094 15.62675 15.59029 -8.07868  53.909
 4.95 5.20 -0.044 -0.044 -0.042 -0.037 -0.021 15.82663 15.79027 -7.87863  67.854
 4.95 5.40  0.040  0.040  0.042  0.047  0.063 16.02652 15.99026 -7.67858  85.404
 4.95 5.60  0.142  0.143  0.144  0.150  0.166 16.22645 16.19035 -7.47852 107.493
 4.95 5.80  0.263  0.263  0.265  0.270  0.286 16.42645 16.39054 -7.27843 135.292
 4.95 6.00  0.398  0.399  0.400  0.406  0.421 16.62644 16.59073 -7.07831 170.275
 4.95 6.25  0.597  0.597  0.599  0.604  0.618 16.87632 16.84085 -6.82812 226.949
 4.95 6.50  0.812  0.813  0.814  0.819  0.831 17.12613 17.09096 -6.57790 302.457
 4.95 6.75  1.034  1.034  1.035  1.039  1.051 17.37591 17.34120 -6.32768 403.069
 4.95 7.00  1.274  1.274  1.275  1.279  1.289 17.62562 17.59151 -6.07743 537.083
 4.95 7.25  1.516  1.516  1.517  1.520  1.530 17.87527 17.84189 -5.82707 715.430
 4.95 7.50  1.761  1.762  1.763  1.765  1.774 18.12483 18.09237 -5.57659 952.641
 4.95 7.75  2.003  2.003  2.004  2.006  2.013 18.37418 18.34307 -5.325891267.672
 4.95 8.00  2.247  2.248  2.248  2.250  2.256 18.62335 18.59395 -5.075001685.933
 5.00-2.00 -0.438 -0.438 -0.437 -0.437 -0.435  8.57726  8.53983-15.12919   0.015
 5.00-1.50 -0.437 -0.437 -0.437 -0.436 -0.434  9.07737  9.03981-14.62930   0.027
 5.00-1.00 -0.436 -0.436 -0.436 -0.435 -0.433  9.57726  9.53983-14.12919   0.048
 5.00-0.50 -0.435 -0.435 -0.435 -0.434 -0.431 10.07737 10.03981-13.62930   0.086
 5.00 0.00 -0.433 -0.433 -0.433 -0.432 -0.429 10.57726 10.53983-13.12919   0.152
 5.00 0.50 -0.430 -0.430 -0.429 -0.428 -0.424 11.07700 11.03981-12.62912   0.271
 5.00 1.00 -0.424 -0.424 -0.424 -0.422 -0.418 11.57726 11.53983-12.12913   0.481
 5.00 1.25 -0.421 -0.421 -0.420 -0.419 -0.413 11.82713 11.78982-11.87912   0.641
 5.00 1.50 -0.417 -0.417 -0.416 -0.414 -0.409 12.07700 12.03981-11.62912   0.855
 5.00 1.75 -0.413 -0.413 -0.412 -0.410 -0.404 12.32708 12.28982-11.37912   1.140
 5.00 2.00 -0.408 -0.408 -0.407 -0.405 -0.398 12.57715 12.53983-11.12913   1.521
 5.00 2.25 -0.404 -0.403 -0.403 -0.400 -0.393 12.82708 12.78982-10.87913   2.028
 5.00 2.50 -0.398 -0.398 -0.397 -0.395 -0.386 13.07701 13.03981-10.62912   2.705
 5.00 2.75 -0.393 -0.393 -0.392 -0.389 -0.380 13.32708 13.28988-10.37909   3.607
 5.00 3.00 -0.387 -0.386 -0.386 -0.382 -0.373 13.57715 13.53995-10.12907   4.810
 5.00 3.20 -0.381 -0.381 -0.380 -0.376 -0.367 13.77709 13.73990 -9.92909   6.055
 5.00 3.40 -0.374 -0.374 -0.373 -0.369 -0.359 13.97703 13.93984 -9.72911   7.622
 5.00 3.60 -0.365 -0.365 -0.364 -0.360 -0.350 14.17701 14.13986 -9.52908   9.594
 5.00 3.80 -0.354 -0.353 -0.352 -0.349 -0.338 14.37702 14.33997 -9.32902  12.078
 5.00 4.00 -0.339 -0.339 -0.338 -0.334 -0.324 14.57703 14.54008 -9.12895  15.205
 5.00 4.20 -0.319 -0.319 -0.318 -0.314 -0.304 14.77703 14.74015 -8.92894  19.139
 5.00 4.40 -0.295 -0.294 -0.293 -0.289 -0.278 14.97702 14.94019 -8.72894  24.092
 5.00 4.60 -0.263 -0.262 -0.261 -0.257 -0.246 15.17696 15.14021 -8.52891  30.327
 5.00 4.80 -0.222 -0.222 -0.221 -0.217 -0.205 15.37688 15.34021 -8.32885  38.175
 5.00 5.00 -0.174 -0.173 -0.172 -0.168 -0.156 15.57680 15.54020 -8.12878  48.054
 5.00 5.20 -0.113 -0.113 -0.112 -0.107 -0.095 15.77673 15.74020 -7.92869  60.486
 5.00 5.40 -0.042 -0.041 -0.040 -0.035 -0.022 15.97667 15.94021 -7.72861  76.132
 5.00 5.60  0.043  0.043  0.044  0.049  0.063 16.17663 16.14028 -7.52854  95.825
 5.00 5.80  0.143  0.143  0.145  0.150  0.164 16.37660 16.34042 -7.32848 120.611
 5.00 6.00  0.258  0.258  0.260  0.265  0.279 16.57657 16.54058 -7.12843 151.805
 5.00 6.25  0.427  0.428  0.429  0.434  0.448 16.82644 16.79079 -6.87833 202.343
 5.00 6.50  0.618  0.618  0.620  0.624  0.636 17.07628 17.04100 -6.62819 269.691
 5.00 6.75  0.829  0.829  0.830  0.834  0.846 17.32610 17.29116 -6.37799 359.451
 5.00 7.00  1.047  1.047  1.048  1.052  1.061 17.57588 17.54133 -6.12773 479.056
 5.00 7.25  1.283  1.284  1.284  1.287  1.296 17.82555 17.79153 -5.87744 638.326
 5.00 7.50  1.525  1.525  1.526  1.528  1.536 18.07518 18.04179 -5.62709 850.366
 5.00 7.75  1.766  1.766  1.767  1.769  1.775 18.32479 18.29223 -5.376641132.486
 5.00 8.00  2.010  2.011  2.011  2.013  2.018 18.57438 18.54283 -5.126101507.779
 5.05-2.00 -0.436 -0.436 -0.435 -0.435 -0.433  8.52724  8.48982-15.17921   0.014
 5.05-1.50 -0.436 -0.436 -0.435 -0.435 -0.433  9.02735  8.98976-14.67923   0.024
 5.05-1.00 -0.435 -0.435 -0.435 -0.435 -0.433  9.52724  9.48982-14.17921   0.043
 5.05-0.50 -0.435 -0.435 -0.435 -0.434 -0.432 10.02735  9.98976-13.67923   0.076
 5.05 0.00 -0.434 -0.434 -0.434 -0.433 -0.431 10.52724 10.48982-13.17914   0.136
 5.05 0.50 -0.433 -0.433 -0.432 -0.432 -0.429 11.02735 10.98976-12.67923   0.241
 5.05 1.00 -0.430 -0.430 -0.430 -0.429 -0.426 11.52724 11.48982-12.17914   0.429
 5.05 1.25 -0.428 -0.428 -0.428 -0.427 -0.424 11.77730 11.73981-11.92919   0.572
 5.05 1.50 -0.426 -0.426 -0.426 -0.424 -0.421 12.02735 11.98981-11.67923   0.762
 5.05 1.75 -0.423 -0.423 -0.423 -0.421 -0.417 12.27732 12.23981-11.42919   1.016
 5.05 2.00 -0.419 -0.419 -0.419 -0.417 -0.413 12.52724 12.48982-11.17914   1.356
 5.05 2.25 -0.415 -0.414 -0.414 -0.412 -0.407 12.77709 12.73983-10.92919   1.808
 5.05 2.50 -0.409 -0.409 -0.408 -0.406 -0.400 13.02694 12.98985-10.67923   2.411
 5.05 2.75 -0.402 -0.402 -0.401 -0.399 -0.392 13.27703 13.23990-10.42915   3.215
 5.05 3.00 -0.394 -0.394 -0.393 -0.390 -0.383 13.52711 13.48996-10.17908   4.287
 5.05 3.20 -0.387 -0.387 -0.386 -0.383 -0.375 13.72705 13.68993 -9.97906   5.397
 5.05 3.40 -0.379 -0.379 -0.378 -0.375 -0.366 13.92698 13.88991 -9.77903   6.793
 5.05 3.60 -0.370 -0.370 -0.369 -0.366 -0.356 14.12695 14.08991 -9.57901   8.552
 5.05 3.80 -0.360 -0.360 -0.359 -0.355 -0.345 14.32697 14.28993 -9.37898  10.765
 5.05 4.00 -0.347 -0.347 -0.346 -0.342 -0.332 14.52699 14.48996 -9.17895  13.552
 5.05 4.20 -0.332 -0.332 -0.331 -0.327 -0.316 14.72697 14.68998 -8.97898  17.059
 5.05 4.40 -0.313 -0.313 -0.312 -0.308 -0.296 14.92696 14.89001 -8.77901  21.474
 5.05 4.60 -0.289 -0.288 -0.287 -0.283 -0.272 15.12693 15.09007 -8.57898  27.032
 5.05 4.80 -0.258 -0.257 -0.256 -0.252 -0.240 15.32690 15.29016 -8.37890  34.027
 5.05 5.00 -0.219 -0.219 -0.218 -0.214 -0.202 15.52686 15.49024 -8.17881  42.834
 5.05 5.20 -0.170 -0.169 -0.168 -0.164 -0.153 15.72673 15.69024 -7.97873  53.916
 5.05 5.40 -0.111 -0.110 -0.109 -0.105 -0.094 15.92660 15.89025 -7.77865  67.865
 5.05 5.60 -0.039 -0.039 -0.037 -0.033 -0.022 16.12655 16.09031 -7.57859  85.422
 5.05 5.80  0.046  0.046  0.048  0.052  0.063 16.32657 16.29041 -7.37854 107.520
 5.05 6.00  0.146  0.146  0.147  0.151  0.163 16.52660 16.49052 -7.17849 135.331
 5.05 6.25  0.295  0.296  0.297  0.301  0.313 16.77636 16.74063 -6.92834 180.392
 5.05 6.50  0.467  0.468  0.469  0.473  0.484 17.02612 16.99074 -6.67819 240.450
 5.05 6.75  0.663  0.663  0.664  0.668  0.679 17.27610 17.24089 -6.42805 320.502
 5.05 7.00  0.863  0.863  0.864  0.867  0.877 17.52608 17.49108 -6.17790 427.194
 5.05 7.25  1.088  1.089  1.090  1.092  1.101 17.77595 17.74129 -5.92765 569.306
 5.05 7.50  1.322  1.323  1.323  1.326  1.333 18.02572 17.99154 -5.67737 758.586
 5.05 7.75  1.559  1.559  1.560  1.562  1.568 18.27537 18.24184 -5.427061010.621
 5.05 8.00  1.800  1.800  1.801  1.802  1.807 18.52492 18.49220 -5.176721346.171
 5.10-2.00 -0.431 -0.431 -0.431 -0.430 -0.428  8.47727  8.43981-15.22922   0.012
 5.10-1.50 -0.431 -0.431 -0.431 -0.430 -0.428  8.97722  8.93977-14.72932   0.021
 5.10-1.00 -0.431 -0.431 -0.431 -0.430 -0.428  9.47727  9.43981-14.22922   0.038
 5.10-0.50 -0.431 -0.431 -0.431 -0.430 -0.428  9.97717  9.93977-13.72932   0.068
 5.10 0.00 -0.431 -0.431 -0.430 -0.430 -0.428 10.47727 10.43981-13.22915   0.121
 5.10 0.50 -0.430 -0.430 -0.430 -0.429 -0.427 10.97717 10.93977-12.72932   0.215
 5.10 1.00 -0.429 -0.429 -0.429 -0.428 -0.426 11.47727 11.43981-12.22915   0.382
 5.10 1.25 -0.428 -0.428 -0.428 -0.427 -0.425 11.72722 11.68979-11.97910   0.510
 5.10 1.50 -0.427 -0.427 -0.427 -0.426 -0.424 11.97717 11.93977-11.72909   0.680
 5.10 1.75 -0.426 -0.426 -0.426 -0.425 -0.422 12.22714 12.18979-11.47912   0.906
 5.10 2.00 -0.424 -0.424 -0.424 -0.423 -0.420 12.47712 12.43981-11.22915   1.208
 5.10 2.25 -0.422 -0.422 -0.421 -0.420 -0.417 12.72713 12.68981-10.97912   1.611
 5.10 2.50 -0.419 -0.419 -0.418 -0.417 -0.414 12.97713 12.93982-10.72909   2.149
 5.10 2.75 -0.415 -0.414 -0.414 -0.413 -0.409 13.22713 13.18989-10.47908   2.866
 5.10 3.00 -0.409 -0.409 -0.409 -0.407 -0.402 13.47712 13.43996-10.22907   3.821
 5.10 3.20 -0.404 -0.404 -0.403 -0.401 -0.396 13.67711 13.63993-10.02908   4.810
 5.10 3.40 -0.397 -0.397 -0.396 -0.394 -0.388 13.87709 13.83989 -9.82909   6.055
 5.10 3.60 -0.389 -0.388 -0.388 -0.386 -0.379 14.07709 14.03989 -9.62907   7.622
 5.10 3.80 -0.378 -0.378 -0.378 -0.375 -0.368 14.27711 14.23993 -9.42904   9.595
 5.10 4.00 -0.366 -0.366 -0.365 -0.362 -0.354 14.47712 14.43996 -9.22900  12.079
 5.10 4.20 -0.352 -0.351 -0.350 -0.347 -0.338 14.67707 14.63999 -9.02904  15.205
 5.10 4.40 -0.333 -0.333 -0.332 -0.329 -0.319 14.87702 14.84001 -8.82907  19.140
 5.10 4.60 -0.312 -0.311 -0.310 -0.307 -0.296 15.07699 15.04004 -8.62904  24.094
 5.10 4.80 -0.285 -0.285 -0.284 -0.280 -0.268 15.27698 15.24008 -8.42895  30.331
 5.10 5.00 -0.252 -0.252 -0.250 -0.246 -0.234 15.47698 15.44012 -8.22885  38.181
 5.10 5.20 -0.211 -0.211 -0.210 -0.206 -0.194 15.67689 15.64016 -8.02886  48.060
 5.10 5.40 -0.162 -0.161 -0.160 -0.156 -0.144 15.87681 15.84020 -7.82886  60.494
 5.10 5.60 -0.101 -0.101 -0.100 -0.096 -0.084 16.07675 16.04026 -7.62880  76.145
 5.10 5.80 -0.029 -0.029 -0.028 -0.024 -0.012 16.27672 16.24035 -7.42868  95.845
 5.10 6.00  0.055  0.055  0.056  0.060  0.071 16.47669 16.44044 -7.22856 120.641
 5.10 6.25  0.184  0.184  0.185  0.189  0.199 16.72656 16.69050 -6.97848 160.829
 5.10 6.50  0.336  0.337  0.337  0.341  0.350 16.97644 16.94057 -6.72839 214.392
 5.10 6.75  0.516  0.517  0.518  0.521  0.530 17.22635 17.19073 -6.47822 285.776
 5.10 7.00  0.710  0.710  0.711  0.713  0.722 17.47625 17.44091 -6.22805 380.903
 5.10 7.25  0.924  0.924  0.925  0.927  0.934 17.72605 17.69110 -5.97787 507.658
 5.10 7.50  1.152  1.152  1.153  1.155  1.161 17.97580 17.94131 -5.72769 676.535
 5.10 7.75  1.384  1.384  1.384  1.386  1.392 18.22553 18.19157 -5.47742 901.482
 5.10 8.00  1.620  1.620  1.620  1.622  1.626 18.47524 18.44185 -5.227091201.093
 5.15-2.00 -0.423 -0.423 -0.423 -0.422 -0.421  8.42732  8.38987-15.27918   0.011
 5.15-1.50 -0.423 -0.423 -0.423 -0.422 -0.421  8.92722  8.88975-14.77911   0.019
 5.15-1.00 -0.423 -0.423 -0.423 -0.422 -0.421  9.42716  9.38987-14.27918   0.034
 5.15-0.50 -0.423 -0.423 -0.423 -0.423 -0.421  9.92722  9.88975-13.77911   0.061
 5.15 0.00 -0.423 -0.423 -0.423 -0.422 -0.421 10.42716 10.38988-13.27918   0.108
 5.15 0.50 -0.423 -0.423 -0.423 -0.422 -0.421 10.92717 10.88975-12.77911   0.192
 5.15 1.00 -0.423 -0.423 -0.423 -0.422 -0.420 11.42716 11.38988-12.27918   0.341
 5.15 1.25 -0.422 -0.422 -0.422 -0.422 -0.420 11.67716 11.63984-12.02914   0.455
 5.15 1.50 -0.422 -0.422 -0.422 -0.421 -0.420 11.92717 11.88981-11.77911   0.606
 5.15 1.75 -0.421 -0.421 -0.421 -0.421 -0.419 12.17716 12.13984-11.52914   0.808
 5.15 2.00 -0.421 -0.421 -0.421 -0.420 -0.418 12.42716 12.38987-11.27918   1.077
 5.15 2.25 -0.420 -0.420 -0.419 -0.419 -0.417 12.67716 12.63984-11.02914   1.436
 5.15 2.50 -0.418 -0.418 -0.418 -0.417 -0.415 12.92717 12.88981-10.77911   1.915
 5.15 2.75 -0.416 -0.416 -0.416 -0.415 -0.413 13.17717 13.13984-10.52910   2.554
 5.15 3.00 -0.414 -0.414 -0.414 -0.413 -0.410 13.42716 13.38987-10.27910   3.405
 5.15 3.20 -0.411 -0.411 -0.411 -0.410 -0.406 13.62714 13.58987-10.07910   4.287
 5.15 3.40 -0.407 -0.407 -0.407 -0.406 -0.402 13.82712 13.78986 -9.87911   5.397
 5.15 3.60 -0.403 -0.403 -0.402 -0.401 -0.397 14.02712 13.98986 -9.67909   6.794
 5.15 3.80 -0.397 -0.397 -0.396 -0.395 -0.390 14.22714 14.18987 -9.47905   8.552
 5.15 4.00 -0.389 -0.389 -0.389 -0.387 -0.382 14.42716 14.38988 -9.27901  10.766
 5.15 4.20 -0.379 -0.379 -0.378 -0.376 -0.370 14.62710 14.58991 -9.07905  13.552
 5.15 4.40 -0.366 -0.365 -0.365 -0.363 -0.356 14.82704 14.78995 -8.87909  17.060
 5.15 4.60 -0.348 -0.348 -0.347 -0.345 -0.338 15.02701 14.98999 -8.67906  21.476
 5.15 4.80 -0.326 -0.326 -0.325 -0.322 -0.314 15.22700 15.19002 -8.47895  27.035
 5.15 5.00 -0.297 -0.297 -0.296 -0.293 -0.284 15.42700 15.39005 -8.27885  34.032
 5.15 5.20 -0.262 -0.262 -0.261 -0.257 -0.247 15.62692 15.59009 -8.07885  42.838
 5.15 5.40 -0.217 -0.217 -0.216 -0.212 -0.202 15.82684 15.79012 -7.87885  53.923
 5.15 5.60 -0.163 -0.163 -0.162 -0.158 -0.147 16.02678 15.99019 -7.67881  67.875
 5.15 5.80 -0.099 -0.099 -0.098 -0.094 -0.082 16.22673 16.19030 -7.47875  85.438
 5.15 6.00 -0.023 -0.022 -0.021 -0.017 -0.006 16.42667 16.39041 -7.27868 107.544
 5.15 6.25  0.089  0.090  0.091  0.095  0.105 16.67661 16.64044 -7.02864 143.373
 5.15 6.50  0.224  0.225  0.226  0.229  0.239 16.92655 16.89048 -6.77859 191.129
 5.15 6.75  0.385  0.385  0.386  0.389  0.398 17.17646 17.14061 -6.52839 254.779
 5.15 7.00  0.567  0.567  0.568  0.570  0.578 17.42635 17.39076 -6.27819 339.607
 5.15 7.25  0.763  0.763  0.763  0.766  0.772 17.67614 17.64091 -6.02800 452.652
 5.15 7.50  0.982  0.982  0.982  0.984  0.990 17.92593 17.89109 -5.77780 603.283
 5.15 7.75  1.210  1.210  1.210  1.212  1.217 18.17573 18.14134 -5.52759 803.973
 5.15 8.00  1.444  1.444  1.444  1.446  1.450 18.42554 18.39164 -5.277371071.339
 5.20-2.00 -0.411 -0.411 -0.411 -0.411 -0.409  8.37731  8.33985-15.32920   0.010
 5.20-1.50 -0.411 -0.411 -0.411 -0.411 -0.409  8.87720  8.83973-14.82915   0.017
 5.20-1.00 -0.411 -0.411 -0.411 -0.411 -0.409  9.37731  9.33985-14.32920   0.030
 5.20-0.50 -0.411 -0.411 -0.411 -0.411 -0.409  9.87720  9.83973-13.82915   0.054
 5.20 0.00 -0.411 -0.411 -0.411 -0.411 -0.409 10.37731 10.33985-13.32920   0.096
 5.20 0.50 -0.411 -0.411 -0.411 -0.411 -0.409 10.87720 10.83979-12.82915   0.171
 5.20 1.00 -0.411 -0.411 -0.411 -0.411 -0.409 11.37731 11.33985-12.32920   0.304
 5.20 1.25 -0.411 -0.411 -0.411 -0.411 -0.409 11.62725 11.58982-12.07917   0.405
 5.20 1.50 -0.411 -0.411 -0.411 -0.411 -0.409 11.87720 11.83979-11.82915   0.540
 5.20 1.75 -0.411 -0.411 -0.411 -0.410 -0.409 12.12716 12.08982-11.57913   0.720
 5.20 2.00 -0.411 -0.411 -0.411 -0.410 -0.409 12.37712 12.33985-11.32911   0.960
 5.20 2.25 -0.410 -0.410 -0.410 -0.410 -0.408 12.62713 12.58982-11.07913   1.280
 5.20 2.50 -0.410 -0.410 -0.410 -0.409 -0.407 12.87714 12.83979-10.82915   1.707
 5.20 2.75 -0.409 -0.409 -0.409 -0.408 -0.406 13.12714 13.08982-10.57913   2.276
 5.20 3.00 -0.408 -0.408 -0.408 -0.407 -0.405 13.37712 13.33985-10.32911   3.035
 5.20 3.20 -0.406 -0.406 -0.406 -0.406 -0.404 13.57711 13.53986-10.12912   3.821
 5.20 3.40 -0.405 -0.405 -0.404 -0.404 -0.402 13.77709 13.73986 -9.92914   4.810
 5.20 3.60 -0.402 -0.402 -0.402 -0.401 -0.399 13.97709 13.93985 -9.72912   6.055
 5.20 3.80 -0.399 -0.399 -0.399 -0.398 -0.396 14.17711 14.13985 -9.52907   7.623
 5.20 4.00 -0.395 -0.395 -0.395 -0.394 -0.391 14.37712 14.33985 -9.32901   9.596
 5.20 4.20 -0.390 -0.390 -0.389 -0.388 -0.385 14.57709 14.53990 -9.12907  12.080
 5.20 4.40 -0.382 -0.382 -0.382 -0.381 -0.377 14.77705 14.73995 -8.92912  15.206
 5.20 4.60 -0.372 -0.372 -0.372 -0.370 -0.366 14.97701 14.94000 -8.72911  19.142
 5.20 4.80 -0.358 -0.358 -0.358 -0.356 -0.351 15.17698 15.14002 -8.52901  24.097
 5.20 5.00 -0.340 -0.340 -0.340 -0.338 -0.332 15.37694 15.34005 -8.32892  30.335
 5.20 5.20 -0.315 -0.315 -0.314 -0.312 -0.306 15.57691 15.54007 -8.12890  38.184
 5.20 5.40 -0.282 -0.282 -0.281 -0.279 -0.271 15.77687 15.74010 -7.92887  48.065
 5.20 5.60 -0.239 -0.239 -0.238 -0.235 -0.227 15.97684 15.94013 -7.72884  60.502
 5.20 5.80 -0.184 -0.184 -0.183 -0.180 -0.172 16.17680 16.14018 -7.52879  76.158
 5.20 6.00 -0.117 -0.116 -0.115 -0.112 -0.103 16.37676 16.34025 -7.32873  95.866
 5.20 6.25 -0.014 -0.013 -0.012 -0.009  0.000 16.62670 16.59033 -7.07866 127.807
 5.20 6.50  0.111  0.112  0.113  0.116  0.126 16.87662 16.84042 -6.82857 170.386
 5.20 6.75  0.258  0.259  0.260  0.263  0.272 17.12652 17.09052 -6.57842 227.148
 5.20 7.00  0.428  0.428  0.429  0.432  0.440 17.37640 17.34064 -6.32827 302.809
 5.20 7.25  0.609  0.609  0.609  0.612  0.619 17.62626 17.59080 -6.07813 403.603
 5.20 7.50  0.816  0.816  0.817  0.819  0.825 17.87610 17.84098 -5.82798 537.920
 5.20 7.75  1.035  1.035  1.035  1.037  1.042 18.12590 18.09120 -5.57778 716.920
 5.20 8.00  1.262  1.262  1.262  1.263  1.267 18.37566 18.34144 -5.32753 955.452
 5.25-2.00 -0.393 -0.393 -0.393 -0.393 -0.391  8.32716  8.28981-15.37924   0.009
 5.25-1.50 -0.393 -0.393 -0.393 -0.393 -0.391  8.82718  8.78972-14.87910   0.015
 5.25-1.00 -0.393 -0.393 -0.393 -0.393 -0.391  9.32715  9.28981-14.37914   0.027
 5.25-0.50 -0.393 -0.393 -0.393 -0.393 -0.391  9.82718  9.78972-13.87910   0.048
 5.25 0.00 -0.393 -0.393 -0.393 -0.393 -0.391 10.32716 10.28981-13.37914   0.086
 5.25 0.50 -0.393 -0.393 -0.393 -0.393 -0.391 10.82718 10.78979-12.87910   0.152
 5.25 1.00 -0.393 -0.393 -0.393 -0.393 -0.391 11.32716 11.28981-12.37914   0.271
 5.25 1.25 -0.393 -0.393 -0.393 -0.393 -0.391 11.57717 11.53980-12.12912   0.361
 5.25 1.50 -0.393 -0.393 -0.393 -0.393 -0.391 11.82718 11.78979-11.87910   0.481
 5.25 1.75 -0.393 -0.393 -0.393 -0.393 -0.391 12.07717 12.03980-11.62912   0.642
 5.25 2.00 -0.393 -0.393 -0.393 -0.393 -0.391 12.32716 12.28981-11.37914   0.856
 5.25 2.25 -0.393 -0.393 -0.393 -0.393 -0.391 12.57717 12.53980-11.12912   1.141
 5.25 2.50 -0.393 -0.393 -0.393 -0.392 -0.391 12.82718 12.78979-10.87910   1.521
 5.25 2.75 -0.393 -0.393 -0.392 -0.392 -0.391 13.07717 13.03980-10.62912   2.028
 5.25 3.00 -0.392 -0.392 -0.392 -0.392 -0.390 13.32715 13.28981-10.37914   2.705
 5.25 3.20 -0.392 -0.392 -0.391 -0.391 -0.389 13.52714 13.48983-10.17912   3.405
 5.25 3.40 -0.391 -0.391 -0.391 -0.390 -0.389 13.72712 13.68985 -9.97911   4.287
 5.25 3.60 -0.390 -0.390 -0.390 -0.389 -0.387 13.92712 13.88985 -9.77908   5.397
 5.25 3.80 -0.388 -0.388 -0.388 -0.387 -0.386 14.12714 14.08983 -9.57906   6.794
 5.25 4.00 -0.386 -0.386 -0.386 -0.385 -0.383 14.32716 14.28981 -9.37903   8.553
 5.25 4.20 -0.383 -0.383 -0.383 -0.382 -0.380 14.52711 14.48986 -9.17906  10.767
 5.25 4.40 -0.379 -0.379 -0.379 -0.378 -0.376 14.72707 14.68991 -8.97908  13.554
 5.25 4.60 -0.373 -0.373 -0.373 -0.372 -0.370 14.92702 14.88996 -8.77906  17.062
 5.25 4.80 -0.365 -0.365 -0.365 -0.364 -0.361 15.12699 15.09000 -8.57900  21.478
 5.25 5.00 -0.355 -0.355 -0.355 -0.354 -0.350 15.32695 15.29003 -8.37893  27.038
 5.25 5.20 -0.339 -0.339 -0.339 -0.338 -0.334 15.52694 15.49005 -8.17886  34.035
 5.25 5.40 -0.319 -0.318 -0.318 -0.317 -0.312 15.72692 15.69007 -7.97880  42.843
 5.25 5.60 -0.290 -0.290 -0.290 -0.288 -0.283 15.92688 15.89011 -7.77875  53.930
 5.25 5.80 -0.252 -0.252 -0.251 -0.250 -0.244 16.12681 16.09019 -7.57873  67.886
 5.25 6.00 -0.203 -0.203 -0.202 -0.200 -0.194 16.32675 16.29026 -7.37872  85.454
 5.25 6.25 -0.121 -0.121 -0.120 -0.118 -0.111 16.57670 16.54031 -7.12874 113.929
 5.25 6.50 -0.015 -0.015 -0.014 -0.012 -0.005 16.82666 16.79036 -6.87877 151.888
 5.25 6.75  0.116  0.117  0.117  0.120  0.127 17.07661 17.04041 -6.62859 202.494
 5.25 7.00  0.274  0.274  0.275  0.278  0.285 17.32654 17.29048 -6.37841 269.955
 5.25 7.25  0.452  0.452  0.452  0.455  0.462 17.57637 17.54066 -6.12826 359.828
 5.25 7.50  0.645  0.646  0.646  0.648  0.655 17.82620 17.79085 -5.87811 479.606
 5.25 7.75  0.855  0.855  0.855  0.857  0.863 18.07606 18.04101 -5.62795 639.247
 5.25 8.00  1.075  1.075  1.075  1.077  1.082 18.32593 18.29115 -5.37779 852.008
 5.30-2.00 -0.369 -0.369 -0.368 -0.368 -0.367  8.27715  8.23980-15.42922   0.008
 5.30-1.50 -0.369 -0.369 -0.368 -0.368 -0.367  8.77721  8.73973-14.92922   0.014
 5.30-1.00 -0.369 -0.369 -0.368 -0.368 -0.367  9.27715  9.23980-14.42922   0.024
 5.30-0.50 -0.369 -0.369 -0.368 -0.368 -0.367  9.77721  9.73973-13.92922   0.043
 5.30 0.00 -0.369 -0.369 -0.368 -0.368 -0.367 10.27715 10.23980-13.42922   0.076
 5.30 0.50 -0.369 -0.369 -0.368 -0.368 -0.367 10.77721 10.73973-12.92922   0.136
 5.30 1.00 -0.369 -0.369 -0.368 -0.368 -0.367 11.27715 11.23980-12.42922   0.241
 5.30 1.25 -0.369 -0.369 -0.368 -0.368 -0.367 11.52718 11.48981-12.17922   0.322
 5.30 1.50 -0.369 -0.369 -0.368 -0.368 -0.367 11.77721 11.73981-11.92922   0.429
 5.30 1.75 -0.369 -0.369 -0.368 -0.368 -0.367 12.02718 11.98981-11.67917   0.572
 5.30 2.00 -0.369 -0.369 -0.368 -0.368 -0.367 12.27715 12.23980-11.42911   0.763
 5.30 2.25 -0.369 -0.368 -0.368 -0.368 -0.367 12.52714 12.48981-11.17917   1.017
 5.30 2.50 -0.368 -0.368 -0.368 -0.368 -0.367 12.77714 12.73981-10.92922   1.356
 5.30 2.75 -0.368 -0.368 -0.368 -0.368 -0.366 13.02714 12.98981-10.67917   1.808
 5.30 3.00 -0.368 -0.368 -0.368 -0.368 -0.366 13.27715 13.23980-10.42911   2.411
 5.30 3.20 -0.368 -0.368 -0.368 -0.367 -0.366 13.47715 13.43980-10.22915   3.035
 5.30 3.40 -0.368 -0.368 -0.368 -0.367 -0.366 13.67714 13.63981-10.02920   3.821
 5.30 3.60 -0.367 -0.367 -0.367 -0.367 -0.365 13.87714 13.83981 -9.82920   4.810
 5.30 3.80 -0.366 -0.366 -0.366 -0.366 -0.364 14.07715 14.03980 -9.62915   6.055
 5.30 4.00 -0.365 -0.365 -0.365 -0.365 -0.363 14.27715 14.23980 -9.42911   7.623
 5.30 4.20 -0.364 -0.364 -0.363 -0.363 -0.361 14.47712 14.43983 -9.22915   9.596
 5.30 4.40 -0.361 -0.361 -0.361 -0.361 -0.359 14.67708 14.63986 -9.02920  12.080
 5.30 4.60 -0.358 -0.358 -0.358 -0.357 -0.356 14.87708 14.83992 -8.82918  15.207
 5.30 4.80 -0.353 -0.353 -0.353 -0.353 -0.351 15.07712 15.03999 -8.62908  19.144
 5.30 5.00 -0.347 -0.347 -0.347 -0.346 -0.344 15.27715 15.24005 -8.42899  24.100
 5.30 5.20 -0.337 -0.337 -0.337 -0.336 -0.334 15.47706 15.44005 -8.22893  30.337
 5.30 5.40 -0.324 -0.324 -0.324 -0.323 -0.321 15.67697 15.64005 -8.02888  38.188
 5.30 5.60 -0.306 -0.306 -0.306 -0.305 -0.303 15.87692 15.84010 -7.82883  48.070
 5.30 5.80 -0.282 -0.281 -0.281 -0.280 -0.277 16.07692 16.04020 -7.62879  60.511
 5.30 6.00 -0.249 -0.249 -0.248 -0.247 -0.244 16.27692 16.24030 -7.42876  76.171
 5.30 6.25 -0.191 -0.191 -0.191 -0.190 -0.185 16.52681 16.49029 -7.17881 101.555
 5.30 6.50 -0.114 -0.113 -0.113 -0.112 -0.107 16.77670 16.74028 -6.92886 135.396
 5.30 6.75 -0.009 -0.009 -0.009 -0.007 -0.002 17.02670 16.99042 -6.67871 180.513
 5.30 7.00  0.121  0.121  0.121  0.123  0.129 17.27669 17.24055 -6.42853 240.659
 5.30 7.25  0.280  0.280  0.281  0.282  0.288 17.52652 17.49061 -6.17832 320.817
 5.30 7.50  0.457  0.457  0.457  0.459  0.465 17.77634 17.74068 -5.92812 427.644
 5.30 7.75  0.658  0.658  0.658  0.660  0.665 18.02617 17.99083 -5.67800 570.006
 5.30 8.00  0.872  0.872  0.873  0.874  0.879 18.27600 18.24105 -5.42794 759.710
