
 ROSSELAND MASS ABSORPTION COEFFICENTS
 logT logP  0km/s  1km/s  2km/s  4km/s  8km/s  log Ne   log Na  log rho IPloCM-1
 3.32-2.00 -4.705 -4.683 -4.655 -4.615 -4.574  6.11227 10.53631-13.05968
 3.32-1.50 -4.766 -4.741 -4.712 -4.672 -4.630  6.51081 11.03743-12.55878
 3.32-1.00 -4.826 -4.802 -4.773 -4.733 -4.691  6.91787 11.54008-12.05596
 3.32-0.50 -4.878 -4.854 -4.825 -4.786 -4.744  7.33183 12.04844-11.54775
 3.32 0.00 -4.922 -4.898 -4.870 -4.830 -4.789  7.73336 12.56961-11.02636
 3.32 0.50 -4.963 -4.939 -4.911 -4.872 -4.830  8.10992 13.11126-10.48479
 3.32 1.00 -4.995 -4.971 -4.942 -4.904 -4.861  8.46479 13.66502 -9.93107
 3.32 1.25 -5.002 -4.978 -4.949 -4.910 -4.870  8.63616 13.94001 -9.65599
 3.32 1.50 -5.002 -4.978 -4.950 -4.911 -4.872  8.80713 14.21299 -9.38290
 3.32 1.75 -4.993 -4.969 -4.941 -4.903 -4.864  8.97787 14.48187 -9.11412
 3.32 2.00 -4.974 -4.951 -4.924 -4.887 -4.849  9.14860 14.74749 -8.84863
 3.32 2.25 -4.945 -4.923 -4.896 -4.861 -4.823  9.31977 15.00969 -8.58644
 3.32 2.50 -4.908 -4.886 -4.859 -4.826 -4.791  9.49094 15.26928 -8.32679
 3.32 2.75 -4.860 -4.840 -4.813 -4.782 -4.747  9.65839 15.52661 -8.06934
 3.32 3.00 -4.805 -4.785 -4.761 -4.731 -4.697  9.82210 15.78226 -7.81361
 3.32 3.20 -4.753 -4.734 -4.712 -4.682 -4.651  9.94816 15.98576 -7.61015
 3.32 3.40 -4.695 -4.679 -4.658 -4.631 -4.601 10.07070 16.18862 -7.40735
 3.32 3.60 -4.633 -4.618 -4.599 -4.575 -4.545 10.18951 16.39088 -7.20514
 3.32 3.80 -4.564 -4.552 -4.535 -4.513 -4.486 10.30509 16.59274 -7.00334
 3.32 4.00 -4.490 -4.481 -4.467 -4.447 -4.422 10.41780 16.79421 -6.80189
 3.32 4.20 -4.424 -4.415 -4.401 -4.381 -4.356 10.52795 16.99535 -6.60074
 3.32 4.40 -4.352 -4.343 -4.330 -4.311 -4.286 10.63622 17.19628 -6.39979
 3.32 4.60 -4.279 -4.270 -4.257 -4.238 -4.214 10.74271 17.39704 -6.19899
 3.32 4.80 -4.203 -4.194 -4.182 -4.162 -4.139 10.84798 17.59767 -5.99831
 3.32 5.00 -4.121 -4.112 -4.099 -4.080 -4.056 10.95211 17.79817 -5.79778
 3.32 5.20 -4.031 -4.023 -4.011 -3.992 -3.967 11.05540 17.99847 -5.59749
 3.32 5.40 -3.933 -3.924 -3.913 -3.894 -3.870 11.15796 18.19873 -5.39724
 3.32 5.60 -3.821 -3.814 -3.803 -3.786 -3.761 11.25984 18.39898 -5.19704
 3.32 5.80 -3.695 -3.689 -3.679 -3.662 -3.639 11.36120 18.59921 -4.99685
 3.32 6.00 -3.551 -3.546 -3.536 -3.521 -3.499 11.46210 18.79941 -4.79670
 3.32 6.25 -3.338 -3.333 -3.326 -3.312 -3.293 11.58776 19.04946 -4.54657
 3.32 6.50 -3.076 -3.072 -3.066 -3.056 -3.039 11.71282 19.29951 -4.29645
 3.32 6.75 -2.752 -2.749 -2.745 -2.736 -2.724 11.83734 19.54963 -4.04630
 3.32 7.00 -2.551 -2.549 -2.546 -2.538 -2.528 11.96118 19.79976 -3.79615
 3.32 7.25 -2.453 -2.451 -2.447 -2.441 -2.431 12.08430 20.04974 -3.54617
 3.32 7.50 -2.358 -2.355 -2.352 -2.345 -2.338 12.20629 20.29972 -3.29619
 3.32 7.75 -2.265 -2.263 -2.260 -2.253 -2.246 12.32614 20.54978 -3.04618
 3.32 8.00 -2.175 -2.173 -2.169 -2.164 -2.157 12.44420 20.79989 -2.79615
 3.34-2.00 -4.604 -4.584 -4.558 -4.519 -4.474  6.22660 10.51601-13.08009
 3.34-1.50 -4.633 -4.610 -4.581 -4.539 -4.493  6.63438 11.01620-12.57988
 3.34-1.00 -4.680 -4.655 -4.622 -4.580 -4.535  7.03302 11.51706-12.07889
 3.34-0.50 -4.731 -4.704 -4.672 -4.629 -4.583  7.43361 12.01995-11.57626
 3.34 0.00 -4.764 -4.738 -4.706 -4.663 -4.617  7.84255 12.52789-11.06819
 3.34 0.50 -4.768 -4.743 -4.711 -4.668 -4.623  8.24625 13.04844-10.54745
 3.34 1.00 -4.747 -4.722 -4.689 -4.647 -4.602  8.62829 13.58961-10.00643
 3.34 1.25 -4.730 -4.705 -4.673 -4.630 -4.585  8.80976 13.86647 -9.72958
 3.34 1.50 -4.712 -4.686 -4.653 -4.611 -4.567  8.98632 14.14333 -9.45272
 3.34 1.75 -4.689 -4.662 -4.631 -4.590 -4.547  9.15801 14.41851 -9.17749
 3.34 2.00 -4.663 -4.637 -4.606 -4.566 -4.524  9.32777 14.69179 -8.90413
 3.34 2.25 -4.632 -4.606 -4.575 -4.536 -4.495  9.49611 14.96084 -8.63515
 3.34 2.50 -4.595 -4.569 -4.540 -4.502 -4.462  9.66417 15.22660 -8.36947
 3.34 2.75 -4.549 -4.525 -4.497 -4.460 -4.422  9.83221 15.48892 -8.10714
 3.34 3.00 -4.497 -4.474 -4.447 -4.412 -4.377  9.99996 15.74865 -7.84741
 3.34 3.20 -4.448 -4.426 -4.401 -4.368 -4.333 10.13187 15.95481 -7.64127
 3.34 3.40 -4.393 -4.375 -4.352 -4.321 -4.288 10.26164 16.15986 -7.43624
 3.34 3.60 -4.335 -4.319 -4.299 -4.271 -4.239 10.38846 16.36384 -7.23229
 3.34 3.80 -4.273 -4.259 -4.241 -4.216 -4.186 10.51155 16.56705 -7.02909
 3.34 4.00 -4.207 -4.196 -4.181 -4.159 -4.131 10.63144 16.76960 -6.82652
 3.34 4.20 -4.150 -4.141 -4.126 -4.104 -4.078 10.74777 16.97160 -6.62443
 3.34 4.40 -4.093 -4.083 -4.069 -4.048 -4.021 10.86142 17.17324 -6.42273
 3.34 4.60 -4.036 -4.028 -4.014 -3.993 -3.966 10.97243 17.37456 -6.22144
 3.34 4.80 -3.982 -3.973 -3.960 -3.939 -3.913 11.08145 17.57567 -6.02041
 3.34 5.00 -3.926 -3.917 -3.904 -3.884 -3.857 11.18865 17.77656 -5.81959
 3.34 5.20 -3.870 -3.861 -3.847 -3.827 -3.801 11.29430 17.97727 -5.61887
 3.34 5.40 -3.811 -3.803 -3.790 -3.770 -3.743 11.39885 18.17784 -5.41828
 3.34 5.60 -3.750 -3.742 -3.730 -3.711 -3.684 11.50238 18.37825 -5.21786
 3.34 5.80 -3.688 -3.680 -3.668 -3.649 -3.623 11.60520 18.57857 -5.01755
 3.34 6.00 -3.624 -3.616 -3.605 -3.586 -3.560 11.70732 18.77880 -4.81730
 3.34 6.25 -3.543 -3.535 -3.524 -3.506 -3.481 11.83418 19.02903 -4.56701
 3.34 6.50 -3.459 -3.452 -3.442 -3.424 -3.399 11.96028 19.27921 -4.31677
 3.34 6.75 -3.374 -3.368 -3.358 -3.341 -3.318 12.08578 19.52938 -4.06658
 3.34 7.00 -3.289 -3.283 -3.273 -3.257 -3.234 12.21059 19.77952 -3.81645
 3.34 7.25 -3.203 -3.197 -3.188 -3.173 -3.151 12.33478 20.02961 -3.56643
 3.34 7.50 -3.116 -3.110 -3.102 -3.088 -3.068 12.45803 20.27967 -3.31641
 3.34 7.75 -3.030 -3.025 -3.017 -3.003 -2.984 12.57971 20.52971 -3.06632
 3.34 8.00 -2.944 -2.939 -2.931 -2.918 -2.901 12.70001 20.77974 -2.81616
 3.36-2.00 -4.543 -4.528 -4.507 -4.470 -4.427  6.30920 10.49582-13.10018
 3.36-1.50 -4.547 -4.528 -4.500 -4.460 -4.413  6.73743 10.99594-12.60015
 3.36-1.00 -4.561 -4.538 -4.507 -4.463 -4.413  7.14922 11.49624-12.09974
 3.36-0.50 -4.589 -4.562 -4.529 -4.484 -4.434  7.54925 11.99712-11.59894
 3.36 0.00 -4.615 -4.587 -4.552 -4.506 -4.456  7.94675 12.49996-11.09604
 3.36 0.50 -4.609 -4.581 -4.546 -4.499 -4.450  8.35025 13.00817-10.58788
 3.36 1.00 -4.549 -4.521 -4.486 -4.440 -4.391  8.75343 13.52930-10.06672
 3.36 1.25 -4.502 -4.475 -4.439 -4.393 -4.345  8.94878 13.79790 -9.79806
 3.36 1.50 -4.451 -4.422 -4.388 -4.343 -4.295  9.13893 14.07041 -9.52549
 3.36 1.75 -4.398 -4.370 -4.335 -4.292 -4.245  9.32188 14.34740 -9.24846
 3.36 2.00 -4.347 -4.320 -4.287 -4.244 -4.198  9.49928 14.62439 -8.97143
 3.36 2.25 -4.299 -4.273 -4.240 -4.198 -4.154  9.67096 14.89951 -8.69634
 3.36 2.50 -4.253 -4.227 -4.195 -4.155 -4.112  9.83979 15.17260 -8.42331
 3.36 2.75 -4.203 -4.179 -4.149 -4.110 -4.069 10.00661 15.44153 -8.15438
 3.36 3.00 -4.152 -4.130 -4.102 -4.065 -4.025 10.17231 15.70715 -7.88874
 3.36 3.20 -4.106 -4.084 -4.058 -4.024 -3.986 10.30464 15.91708 -7.67883
 3.36 3.40 -4.057 -4.038 -4.014 -3.981 -3.944 10.43623 16.12538 -7.47056
 3.36 3.60 -4.003 -3.987 -3.965 -3.934 -3.900 10.56672 16.33212 -7.26386
 3.36 3.80 -3.944 -3.931 -3.912 -3.885 -3.852 10.69518 16.53769 -7.05833
 3.36 4.00 -3.882 -3.872 -3.856 -3.832 -3.803 10.82164 16.74217 -6.85387
 3.36 4.20 -3.830 -3.820 -3.805 -3.782 -3.753 10.94458 16.94566 -6.65036
 3.36 4.40 -3.775 -3.766 -3.752 -3.730 -3.701 11.06460 17.14851 -6.44749
 3.36 4.60 -3.722 -3.714 -3.701 -3.679 -3.651 11.18148 17.35077 -6.24525
 3.36 4.80 -3.673 -3.664 -3.651 -3.630 -3.602 11.29551 17.55264 -6.04341
 3.36 5.00 -3.620 -3.612 -3.600 -3.579 -3.552 11.40705 17.75412 -5.84194
 3.36 5.20 -3.569 -3.561 -3.549 -3.529 -3.501 11.51632 17.95520 -5.64076
 3.36 5.40 -3.515 -3.507 -3.495 -3.476 -3.449 11.62390 18.15610 -5.43981
 3.36 5.60 -3.458 -3.451 -3.439 -3.421 -3.394 11.72987 18.35686 -5.23908
 3.36 5.80 -3.399 -3.392 -3.382 -3.363 -3.338 11.83470 18.55753 -5.03849
 3.36 6.00 -3.339 -3.332 -3.322 -3.304 -3.279 11.93847 18.75808 -4.83803
 3.36 6.25 -3.261 -3.254 -3.245 -3.227 -3.203 12.06703 19.00854 -4.58758
 3.36 6.50 -3.181 -3.174 -3.165 -3.149 -3.126 12.19451 19.25888 -4.33724
 3.36 6.75 -3.098 -3.092 -3.083 -3.068 -3.046 12.32116 19.50911 -4.08703
 3.36 7.00 -3.013 -3.009 -3.001 -2.986 -2.965 12.44700 19.75929 -3.83684
 3.36 7.25 -2.929 -2.924 -2.917 -2.903 -2.883 12.57222 20.00946 -3.58665
 3.36 7.50 -2.844 -2.839 -2.832 -2.819 -2.801 12.69653 20.25960 -3.33649
 3.36 7.75 -2.759 -2.754 -2.748 -2.735 -2.719 12.81953 20.50966 -3.08635
 3.36 8.00 -2.674 -2.670 -2.664 -2.652 -2.636 12.94136 20.75967 -2.83624
 3.38-2.00 -4.465 -4.453 -4.435 -4.404 -4.365  6.40209 10.47582-13.12022
 3.38-1.50 -4.486 -4.471 -4.448 -4.411 -4.366  6.82000 10.97580-12.62015
 3.38-1.00 -4.484 -4.465 -4.438 -4.396 -4.345  7.24527 11.47596-12.12004
 3.38-0.50 -4.481 -4.458 -4.426 -4.380 -4.326  7.65897 11.97626-11.61979
 3.38 0.00 -4.480 -4.453 -4.418 -4.370 -4.315  8.06070 12.47727-11.11879
 3.38 0.50 -4.460 -4.431 -4.394 -4.345 -4.290  8.45652 12.98023-10.61583
 3.38 1.00 -4.386 -4.356 -4.319 -4.268 -4.214  8.85588 13.48897-10.10702
 3.38 1.25 -4.322 -4.293 -4.255 -4.206 -4.153  9.05642 13.74803 -9.84795
 3.38 1.50 -4.245 -4.215 -4.178 -4.129 -4.077  9.25696 14.01115 -9.58486
 3.38 1.75 -4.158 -4.129 -4.094 -4.047 -3.996  9.45273 14.28065 -9.31540
 3.38 2.00 -4.073 -4.046 -4.011 -3.965 -3.917  9.64395 14.55376 -9.04230
 3.38 2.25 -3.993 -3.967 -3.934 -3.890 -3.842  9.82750 14.83066 -8.76534
 3.38 2.50 -3.923 -3.898 -3.866 -3.824 -3.779 10.00518 15.10755 -8.48838
 3.38 2.75 -3.857 -3.834 -3.805 -3.765 -3.721 10.17682 15.38245 -8.21351
 3.38 3.00 -3.799 -3.777 -3.750 -3.713 -3.670 10.34479 15.65523 -7.94082
 3.38 3.20 -3.752 -3.731 -3.706 -3.671 -3.630 10.47698 15.87030 -7.72582
 3.38 3.40 -3.704 -3.687 -3.663 -3.630 -3.592 10.60812 16.08325 -7.51293
 3.38 3.60 -3.655 -3.640 -3.618 -3.588 -3.552 10.73858 16.29396 -7.30222
 3.38 3.80 -3.602 -3.589 -3.571 -3.543 -3.510 10.86838 16.50280 -7.09333
 3.38 4.00 -3.547 -3.537 -3.521 -3.497 -3.465 10.99717 16.71003 -6.88606
 3.38 4.20 -3.498 -3.489 -3.474 -3.451 -3.421 11.12424 16.91588 -6.68020
 3.38 4.40 -3.448 -3.439 -3.426 -3.404 -3.375 11.24933 17.12070 -6.47538
 3.38 4.60 -3.400 -3.392 -3.379 -3.359 -3.331 11.37189 17.32452 -6.27152
 3.38 4.80 -3.354 -3.346 -3.335 -3.314 -3.286 11.49144 17.52765 -6.06834
 3.38 5.00 -3.307 -3.299 -3.287 -3.268 -3.240 11.60831 17.73014 -5.86582
 3.38 5.20 -3.260 -3.253 -3.241 -3.222 -3.195 11.72223 17.93205 -5.66392
 3.38 5.40 -3.211 -3.204 -3.193 -3.174 -3.148 11.83391 18.13362 -5.46236
 3.38 5.60 -3.159 -3.153 -3.142 -3.124 -3.098 11.94341 18.33486 -5.26109
 3.38 5.80 -3.105 -3.099 -3.089 -3.071 -3.046 12.05122 18.53590 -5.06002
 3.38 6.00 -3.049 -3.043 -3.033 -3.017 -2.993 12.15746 18.73672 -4.85918
 3.38 6.25 -2.975 -2.969 -2.961 -2.945 -2.922 12.28831 18.98747 -4.60845
 3.38 6.50 -2.898 -2.893 -2.885 -2.870 -2.848 12.41764 19.23805 -4.35793
 3.38 6.75 -2.819 -2.814 -2.806 -2.793 -2.772 12.54587 19.48851 -4.10760
 3.38 7.00 -2.737 -2.733 -2.726 -2.713 -2.694 12.67302 19.73886 -3.85730
 3.38 7.25 -2.655 -2.650 -2.644 -2.633 -2.615 12.79926 19.98911 -3.60701
 3.38 7.50 -2.572 -2.567 -2.562 -2.550 -2.534 12.92449 20.23930 -3.35675
 3.38 7.75 -2.487 -2.484 -2.478 -2.468 -2.453 13.04863 20.48946 -3.10653
 3.38 8.00 -2.404 -2.400 -2.395 -2.385 -2.372 13.17173 20.73957 -2.85636
 3.40-2.00 -4.319 -4.310 -4.293 -4.266 -4.230  6.57507 10.45576-13.14032
 3.40-1.50 -4.387 -4.375 -4.356 -4.323 -4.282  6.93817 10.95574-12.64036
 3.40-1.00 -4.413 -4.398 -4.375 -4.337 -4.288  7.33566 11.45591-12.14014
 3.40-0.50 -4.406 -4.387 -4.359 -4.314 -4.260  7.75197 11.95598-11.63998
 3.40 0.00 -4.379 -4.357 -4.324 -4.274 -4.215  8.16465 12.45637-11.13966
 3.40 0.50 -4.333 -4.307 -4.271 -4.219 -4.159  8.56679 12.95742-10.63865
 3.40 1.00 -4.240 -4.211 -4.172 -4.119 -4.060  8.96227 13.46075-10.13519
 3.40 1.25 -4.168 -4.139 -4.099 -4.047 -3.989  9.16025 13.71451 -9.88149
 3.40 1.50 -4.076 -4.047 -4.008 -3.956 -3.898  9.35851 13.97049 -9.62562
 3.40 1.75 -3.971 -3.943 -3.905 -3.855 -3.799  9.55776 14.23049 -9.36559
 3.40 2.00 -3.859 -3.831 -3.795 -3.747 -3.694  9.75702 14.49471 -9.10133
 3.40 2.25 -3.746 -3.720 -3.687 -3.641 -3.592  9.95236 14.76522 -8.83084
 3.40 2.50 -3.642 -3.618 -3.588 -3.545 -3.497 10.14364 15.03902 -8.55705
 3.40 2.75 -3.548 -3.527 -3.498 -3.459 -3.413 10.32727 15.31604 -8.28001
 3.40 3.00 -3.467 -3.449 -3.423 -3.386 -3.343 10.50474 15.59307 -8.00296
 3.40 3.20 -3.409 -3.392 -3.368 -3.334 -3.293 10.64165 15.81274 -7.78324
 3.40 3.40 -3.356 -3.340 -3.319 -3.287 -3.249 10.77594 16.03082 -7.56513
 3.40 3.60 -3.305 -3.292 -3.273 -3.243 -3.207 10.90779 16.24674 -7.34919
 3.40 3.80 -3.254 -3.243 -3.226 -3.200 -3.166 11.03810 16.46018 -7.13578
 3.40 4.00 -3.204 -3.194 -3.181 -3.157 -3.126 11.16702 16.67154 -6.92445
 3.40 4.20 -3.159 -3.151 -3.138 -3.115 -3.086 11.29531 16.88079 -6.71526
 3.40 4.40 -3.114 -3.106 -3.094 -3.073 -3.045 11.42229 17.08848 -6.50763
 3.40 4.60 -3.070 -3.063 -3.052 -3.033 -3.005 11.54787 17.29463 -6.30152
 3.40 4.80 -3.029 -3.023 -3.012 -2.993 -2.965 11.67152 17.49968 -6.09649
 3.40 5.00 -2.986 -2.979 -2.969 -2.951 -2.924 11.79316 17.70372 -5.89245
 3.40 5.20 -2.944 -2.938 -2.928 -2.910 -2.884 11.91183 17.90690 -5.68919
 3.40 5.40 -2.899 -2.894 -2.884 -2.866 -2.841 12.02808 18.10950 -5.48653
 3.40 5.60 -2.852 -2.846 -2.838 -2.821 -2.797 12.14182 18.31158 -5.28444
 3.40 5.80 -2.803 -2.798 -2.789 -2.774 -2.750 12.25336 18.51330 -5.08275
 3.40 6.00 -2.752 -2.747 -2.739 -2.724 -2.701 12.36286 18.71467 -4.88141
 3.40 6.25 -2.684 -2.680 -2.671 -2.657 -2.636 12.49708 18.96597 -4.63012
 3.40 6.50 -2.612 -2.608 -2.601 -2.588 -2.568 12.62910 19.21696 -4.37914
 3.40 6.75 -2.537 -2.533 -2.527 -2.515 -2.496 12.75936 19.46771 -4.12836
 3.40 7.00 -2.460 -2.456 -2.450 -2.439 -2.422 12.88812 19.71825 -3.87778
 3.40 7.25 -2.380 -2.377 -2.371 -2.361 -2.345 13.01570 19.96853 -3.62743
 3.40 7.50 -2.299 -2.296 -2.291 -2.281 -2.267 13.14208 20.21880 -3.37716
 3.40 7.75 -2.218 -2.214 -2.210 -2.201 -2.188 13.26734 20.46907 -3.12695
 3.40 8.00 -2.136 -2.133 -2.129 -2.121 -2.109 13.39146 20.71933 -2.87680
 3.42-2.00 -4.128 -4.120 -4.104 -4.079 -4.044  6.80428 10.43569-13.16033
 3.42-1.50 -4.228 -4.217 -4.201 -4.172 -4.133  7.13258 10.93571-12.66035
 3.42-1.00 -4.293 -4.281 -4.261 -4.227 -4.182  7.47900 11.43584-12.16021
 3.42-0.50 -4.314 -4.300 -4.275 -4.235 -4.183  7.85643 11.93586-11.66015
 3.42 0.00 -4.294 -4.276 -4.247 -4.199 -4.139  8.25936 12.43600-11.15996
 3.42 0.50 -4.233 -4.210 -4.177 -4.125 -4.059  8.66717 12.93646-10.65956
 3.42 1.00 -4.119 -4.094 -4.056 -4.001 -3.937  9.06856 13.43775-10.15820
 3.42 1.25 -4.036 -4.010 -3.971 -3.917 -3.853  9.26607 13.68924 -9.90670
 3.42 1.50 -3.933 -3.905 -3.867 -3.813 -3.751  9.46330 13.94171 -9.65423
 3.42 1.75 -3.817 -3.789 -3.752 -3.699 -3.639  9.66034 14.19611 -9.39990
 3.42 2.00 -3.688 -3.661 -3.625 -3.574 -3.517  9.85739 14.45301 -9.14309
 3.42 2.25 -3.554 -3.530 -3.496 -3.449 -3.396 10.05537 14.71425 -8.88184
 3.42 2.50 -3.421 -3.399 -3.369 -3.326 -3.276 10.25334 14.97987 -8.61619
 3.42 2.75 -3.298 -3.278 -3.252 -3.212 -3.165 10.44783 15.25200 -8.34402
 3.42 3.00 -3.187 -3.169 -3.146 -3.110 -3.067 10.63849 15.52673 -8.06931
 3.42 3.20 -3.108 -3.092 -3.070 -3.038 -2.998 10.78507 15.74829 -7.84781
 3.42 3.40 -3.037 -3.024 -3.005 -2.975 -2.938 10.92760 15.96985 -7.62631
 3.42 3.60 -2.974 -2.964 -2.946 -2.919 -2.884 11.06564 16.19040 -7.40575
 3.42 3.80 -2.917 -2.907 -2.892 -2.868 -2.836 11.20013 16.40857 -7.18749
 3.42 4.00 -2.864 -2.856 -2.844 -2.822 -2.793 11.33183 16.62490 -6.97102
 3.42 4.20 -2.819 -2.812 -2.801 -2.780 -2.753 11.46141 16.83846 -6.75746
 3.42 4.40 -2.775 -2.769 -2.759 -2.740 -2.713 11.58936 17.05001 -6.54593
 3.42 4.60 -2.735 -2.729 -2.720 -2.702 -2.676 11.71604 17.25956 -6.33648
 3.42 4.80 -2.697 -2.692 -2.682 -2.666 -2.641 11.84154 17.46749 -6.12865
 3.42 5.00 -2.658 -2.653 -2.644 -2.628 -2.603 11.96553 17.67394 -5.92227
 3.42 5.20 -2.621 -2.615 -2.607 -2.591 -2.568 12.08770 17.87905 -5.71710
 3.42 5.40 -2.581 -2.576 -2.568 -2.553 -2.530 12.20785 18.08323 -5.51284
 3.42 5.60 -2.538 -2.534 -2.526 -2.511 -2.490 12.32572 18.28655 -5.30945
 3.42 5.80 -2.494 -2.490 -2.483 -2.469 -2.448 12.44116 18.48927 -5.10668
 3.42 6.00 -2.447 -2.444 -2.437 -2.424 -2.404 12.55437 18.69143 -4.90448
 3.42 6.25 -2.386 -2.382 -2.376 -2.364 -2.345 12.69272 18.94349 -4.65242
 3.42 6.50 -2.320 -2.317 -2.311 -2.299 -2.282 12.82821 19.19507 -4.40088
 3.42 6.75 -2.252 -2.248 -2.243 -2.232 -2.216 12.96110 19.44630 -4.14980
 3.42 7.00 -2.180 -2.176 -2.172 -2.161 -2.147 13.09202 19.69723 -3.89894
 3.42 7.25 -2.104 -2.102 -2.097 -2.088 -2.074 13.22142 19.94789 -3.64820
 3.42 7.50 -2.027 -2.025 -2.021 -2.011 -1.999 13.34928 20.19838 -3.39761
 3.42 7.75 -1.949 -1.947 -1.942 -1.934 -1.923 13.47574 20.44878 -3.14717
 3.42 8.00 -1.870 -1.867 -1.863 -1.856 -1.847 13.60076 20.69906 -2.89688
 3.44-2.00 -3.932 -3.924 -3.910 -3.884 -3.849  7.02694 10.41547-13.18052
 3.44-1.50 -4.038 -4.030 -4.013 -3.984 -3.945  7.36022 10.91556-12.68048
 3.44-1.00 -4.128 -4.117 -4.099 -4.067 -4.023  7.68583 11.41564-12.18032
 3.44-0.50 -4.176 -4.164 -4.142 -4.106 -4.056  8.02078 11.91572-11.68027
 3.44 0.00 -4.178 -4.162 -4.137 -4.093 -4.035  8.38093 12.41581-11.18013
 3.44 0.50 -4.129 -4.110 -4.080 -4.028 -3.962  8.76864 12.91603-10.68006
 3.44 1.00 -4.014 -3.992 -3.958 -3.903 -3.832  9.16850 13.41664-10.17941
 3.44 1.25 -3.926 -3.904 -3.868 -3.812 -3.742  9.36798 13.66723 -9.92878
 3.44 1.50 -3.816 -3.793 -3.757 -3.701 -3.634  9.56691 13.91819 -9.67778
 3.44 1.75 -3.689 -3.665 -3.630 -3.576 -3.511  9.76407 14.16997 -9.42597
 3.44 2.00 -3.547 -3.523 -3.490 -3.438 -3.377  9.96071 14.42292 -9.17302
 3.44 2.25 -3.400 -3.378 -3.345 -3.298 -3.240 10.15693 14.67815 -8.91781
 3.44 2.50 -3.249 -3.228 -3.199 -3.155 -3.102 10.35315 14.93626 -8.65975
 3.44 2.75 -3.102 -3.085 -3.059 -3.019 -2.971 10.54993 15.19932 -8.39670
 3.44 3.00 -2.964 -2.949 -2.925 -2.891 -2.847 10.74671 15.46687 -8.12913
 3.44 3.20 -2.861 -2.848 -2.828 -2.796 -2.757 10.90145 15.68583 -7.91010
 3.44 3.40 -2.768 -2.757 -2.740 -2.712 -2.675 11.05361 15.90582 -7.69009
 3.44 3.60 -2.685 -2.676 -2.661 -2.635 -2.602 11.20186 16.12683 -7.46910
 3.44 3.80 -2.612 -2.603 -2.590 -2.569 -2.539 11.34506 16.34810 -7.24787
 3.44 4.00 -2.546 -2.539 -2.529 -2.510 -2.483 11.48416 16.56937 -7.02664
 3.44 4.20 -2.492 -2.487 -2.477 -2.460 -2.434 11.61860 16.78763 -6.80842
 3.44 4.40 -2.444 -2.439 -2.430 -2.414 -2.391 11.75016 17.00389 -6.59217
 3.44 4.60 -2.401 -2.397 -2.389 -2.373 -2.352 11.87903 17.21783 -6.37817
 3.44 4.80 -2.364 -2.359 -2.352 -2.337 -2.316 12.00606 17.42949 -6.16642
 3.44 5.00 -2.326 -2.322 -2.315 -2.301 -2.280 12.13130 17.63919 -5.95664
 3.44 5.20 -2.292 -2.288 -2.281 -2.267 -2.247 12.25543 17.84702 -5.74886
 3.44 5.40 -2.255 -2.252 -2.245 -2.233 -2.213 12.37792 18.05351 -5.54244
 3.44 5.60 -2.219 -2.215 -2.208 -2.196 -2.177 12.49867 18.25871 -5.33729
 3.44 5.80 -2.179 -2.175 -2.169 -2.158 -2.139 12.61742 18.46299 -5.13302
 3.44 6.00 -2.137 -2.134 -2.128 -2.117 -2.100 12.73416 18.66642 -4.92959
 3.44 6.25 -2.082 -2.079 -2.074 -2.063 -2.047 12.87677 18.91977 -4.67629
 3.44 6.50 -2.023 -2.020 -2.016 -2.006 -1.990 13.01620 19.17231 -4.42377
 3.44 6.75 -1.961 -1.958 -1.954 -1.944 -1.930 13.15249 19.42418 -4.17188
 3.44 7.00 -1.895 -1.892 -1.888 -1.880 -1.867 13.28623 19.67560 -3.92046
 3.44 7.25 -1.826 -1.823 -1.819 -1.811 -1.799 13.41780 19.92670 -3.66941
 3.44 7.50 -1.753 -1.752 -1.747 -1.740 -1.730 13.54741 20.17754 -3.41862
 3.44 7.75 -1.680 -1.677 -1.674 -1.667 -1.658 13.67533 20.42818 -3.16800
 3.44 8.00 -1.605 -1.602 -1.599 -1.593 -1.585 13.80147 20.67861 -2.91757
 3.46-2.00 -3.770 -3.761 -3.747 -3.721 -3.685  7.20112 10.39533-13.20073
 3.46-1.50 -3.854 -3.845 -3.828 -3.799 -3.759  7.56632 10.89542-12.70071
 3.46-1.00 -3.943 -3.932 -3.914 -3.882 -3.837  7.90558 11.39550-12.20045
 3.46-0.50 -4.006 -3.994 -3.974 -3.938 -3.888  8.23121 11.89559-11.70049
 3.46 0.00 -4.022 -4.007 -3.984 -3.942 -3.886  8.55931 12.39568-11.20032
 3.46 0.50 -3.985 -3.968 -3.940 -3.891 -3.826  8.90596 12.89581-10.70028
 3.46 1.00 -3.889 -3.870 -3.837 -3.782 -3.710  9.27875 13.39620-10.19990
 3.46 1.25 -3.808 -3.789 -3.755 -3.698 -3.624  9.47305 13.64644 -9.94961
 3.46 1.50 -3.704 -3.683 -3.650 -3.594 -3.520  9.66885 13.89675 -9.69919
 3.46 1.75 -3.576 -3.556 -3.523 -3.469 -3.398  9.86572 14.14751 -9.44845
 3.46 2.00 -3.431 -3.411 -3.379 -3.327 -3.261 10.06258 14.39881 -9.19723
 3.46 2.25 -3.274 -3.254 -3.225 -3.177 -3.115 10.25853 14.65108 -8.94495
 3.46 2.50 -3.110 -3.092 -3.064 -3.021 -2.965 10.45424 14.90477 -8.69122
 3.46 2.75 -2.948 -2.932 -2.908 -2.868 -2.818 10.64976 15.16128 -8.43475
 3.46 3.00 -2.789 -2.775 -2.753 -2.719 -2.674 10.84528 15.42111 -8.17496
 3.46 3.20 -2.668 -2.656 -2.637 -2.606 -2.566 11.00179 15.63295 -7.96310
 3.46 3.40 -2.553 -2.543 -2.527 -2.500 -2.464 11.15829 15.84763 -7.74839
 3.46 3.60 -2.448 -2.439 -2.425 -2.402 -2.371 11.31357 16.06639 -7.52961
 3.46 3.80 -2.352 -2.345 -2.335 -2.314 -2.286 11.46546 16.28712 -7.30888
 3.46 4.00 -2.268 -2.262 -2.253 -2.235 -2.211 11.61448 16.50786 -7.08815
 3.46 4.20 -2.197 -2.193 -2.184 -2.168 -2.146 11.75766 16.72850 -6.86748
 3.46 4.40 -2.136 -2.132 -2.124 -2.110 -2.089 11.89671 16.94900 -6.64694
 3.46 4.60 -2.083 -2.080 -2.074 -2.061 -2.042 12.03133 17.16804 -6.42789
 3.46 4.80 -2.039 -2.036 -2.030 -2.017 -2.000 12.16246 17.38418 -6.21182
 3.46 5.00 -1.999 -1.997 -1.990 -1.978 -1.961 12.29070 17.59824 -5.99783
 3.46 5.20 -1.964 -1.961 -1.955 -1.944 -1.927 12.41682 17.80973 -5.78633
 3.46 5.40 -1.929 -1.926 -1.921 -1.910 -1.894 12.54101 18.01939 -5.57665
 3.46 5.60 -1.894 -1.891 -1.886 -1.876 -1.860 12.66353 18.22724 -5.36878
 3.46 5.80 -1.859 -1.856 -1.851 -1.841 -1.826 12.78450 18.43374 -5.16228
 3.46 6.00 -1.822 -1.819 -1.814 -1.804 -1.790 12.90369 18.63899 -4.95703
 3.46 6.25 -1.773 -1.770 -1.765 -1.757 -1.743 13.04993 18.89409 -4.70197
 3.46 6.50 -1.721 -1.719 -1.714 -1.706 -1.693 13.19313 19.14799 -4.44806
 3.46 6.75 -1.665 -1.663 -1.659 -1.651 -1.639 13.33301 19.40091 -4.19501
 3.46 7.00 -1.605 -1.604 -1.600 -1.593 -1.582 13.46997 19.65312 -3.94271
 3.46 7.25 -1.543 -1.541 -1.538 -1.531 -1.520 13.60411 19.90471 -3.69117
 3.46 7.50 -1.477 -1.476 -1.472 -1.466 -1.457 13.73584 20.15594 -3.43997
 3.46 7.75 -1.409 -1.408 -1.405 -1.399 -1.390 13.86556 20.40697 -3.18896
 3.46 8.00 -1.339 -1.338 -1.335 -1.329 -1.322 13.99313 20.65773 -2.93817
 3.48-2.00 -3.656 -3.648 -3.634 -3.608 -3.574  7.31429 10.37475-13.22127
 3.48-1.50 -3.707 -3.697 -3.681 -3.651 -3.610  7.72140 10.87489-12.72102
 3.48-1.00 -3.770 -3.759 -3.740 -3.706 -3.660  8.09656 11.37511-12.22098
 3.48-0.50 -3.826 -3.814 -3.793 -3.756 -3.704  8.44264 11.87518-11.72079
 3.48 0.00 -3.846 -3.832 -3.809 -3.767 -3.710  8.77034 12.37530-11.22069
 3.48 0.50 -3.812 -3.795 -3.768 -3.721 -3.658  9.09447 12.87535-10.72056
 3.48 1.00 -3.722 -3.704 -3.674 -3.619 -3.548  9.43104 13.37548-10.22048
 3.48 1.25 -3.652 -3.634 -3.601 -3.545 -3.471  9.60802 13.62563 -9.97033
 3.48 1.50 -3.561 -3.542 -3.510 -3.453 -3.378  9.79029 13.87587 -9.72011
 3.48 1.75 -3.445 -3.427 -3.395 -3.339 -3.266  9.97838 14.12622 -9.46977
 3.48 2.00 -3.309 -3.292 -3.261 -3.208 -3.138 10.16938 14.37676 -9.21925
 3.48 2.25 -3.155 -3.138 -3.110 -3.062 -2.996 10.36265 14.62775 -8.96830
 3.48 2.50 -2.990 -2.975 -2.950 -2.905 -2.846 10.55666 14.87938 -8.71670
 3.48 2.75 -2.819 -2.806 -2.783 -2.743 -2.691 10.75113 15.13231 -8.46373
 3.48 3.00 -2.648 -2.636 -2.616 -2.582 -2.536 10.94576 15.38704 -8.20894
 3.48 3.20 -2.515 -2.503 -2.486 -2.456 -2.414 11.10156 15.59322 -8.00274
 3.48 3.40 -2.384 -2.375 -2.359 -2.332 -2.297 11.25736 15.80186 -7.79411
 3.48 3.60 -2.260 -2.252 -2.239 -2.216 -2.185 11.41310 16.01379 -7.58220
 3.48 3.80 -2.144 -2.138 -2.127 -2.108 -2.081 11.56856 16.22911 -7.36691
 3.48 4.00 -2.037 -2.033 -2.024 -2.008 -1.984 11.72370 16.44700 -7.14905
 3.48 4.20 -1.947 -1.942 -1.934 -1.920 -1.900 11.87515 16.66838 -6.92770
 3.48 4.40 -1.865 -1.862 -1.855 -1.843 -1.825 12.02334 16.88975 -6.70635
 3.48 4.60 -1.796 -1.794 -1.788 -1.777 -1.760 12.16712 17.11079 -6.48532
 3.48 4.80 -1.740 -1.737 -1.731 -1.721 -1.705 12.30584 17.33072 -6.26537
 3.48 5.00 -1.690 -1.687 -1.682 -1.672 -1.657 12.44044 17.54962 -6.04643
 3.48 5.20 -1.648 -1.645 -1.640 -1.631 -1.616 12.57080 17.76533 -5.83068
 3.48 5.40 -1.610 -1.607 -1.602 -1.594 -1.580 12.69833 17.97893 -5.61704
 3.48 5.60 -1.574 -1.572 -1.567 -1.559 -1.546 12.82331 18.19033 -5.40566
 3.48 5.80 -1.539 -1.538 -1.533 -1.525 -1.512 12.94638 18.39985 -5.19620
 3.48 6.00 -1.505 -1.503 -1.499 -1.490 -1.479 13.06744 18.60767 -4.98843
 3.48 6.25 -1.461 -1.459 -1.455 -1.447 -1.436 13.21651 18.86532 -4.73075
 3.48 6.50 -1.414 -1.413 -1.409 -1.402 -1.391 13.36267 19.12123 -4.47483
 3.48 6.75 -1.365 -1.364 -1.361 -1.354 -1.343 13.50578 19.37577 -4.22038
 3.48 7.00 -1.313 -1.312 -1.308 -1.302 -1.293 13.64591 19.62921 -3.96698
 3.48 7.25 -1.258 -1.256 -1.253 -1.247 -1.238 13.78298 19.88165 -3.71440
 3.48 7.50 -1.199 -1.197 -1.194 -1.189 -1.181 13.91730 20.13354 -3.46243
 3.48 7.75 -1.138 -1.136 -1.133 -1.128 -1.121 14.04913 20.38511 -3.21087
 3.48 8.00 -1.074 -1.072 -1.069 -1.065 -1.058 14.17840 20.63629 -2.95979
 3.50-2.00 -3.592 -3.584 -3.570 -3.546 -3.513  7.37162 10.35468-13.24131
 3.50-1.50 -3.608 -3.599 -3.582 -3.552 -3.513  7.81498 10.85497-12.74112
 3.50-1.00 -3.638 -3.627 -3.607 -3.572 -3.526  8.22943 11.35526-12.24079
 3.50-0.50 -3.667 -3.654 -3.632 -3.593 -3.539  8.61204 11.85534-11.74065
 3.50 0.00 -3.671 -3.658 -3.633 -3.589 -3.530  8.96360 12.35545-11.24056
 3.50 0.50 -3.629 -3.614 -3.586 -3.539 -3.474  9.29336 12.85558-10.74041
 3.50 1.00 -3.535 -3.518 -3.489 -3.436 -3.366  9.61574 13.35564-10.24026
 3.50 1.25 -3.466 -3.448 -3.417 -3.363 -3.291  9.77940 13.60574 -9.99021
 3.50 1.50 -3.382 -3.364 -3.333 -3.278 -3.205  9.94581 13.85588 -9.74017
 3.50 1.75 -3.278 -3.260 -3.229 -3.175 -3.102 10.11804 14.10610 -9.48997
 3.50 2.00 -3.156 -3.140 -3.109 -3.057 -2.987 10.29513 14.35641 -9.23965
 3.50 2.25 -3.016 -2.999 -2.972 -2.923 -2.856 10.47775 14.60686 -8.98920
 3.50 2.50 -2.861 -2.846 -2.821 -2.777 -2.715 10.66408 14.85757 -8.73850
 3.50 2.75 -2.695 -2.681 -2.659 -2.620 -2.565 10.85363 15.10892 -8.48710
 3.50 3.00 -2.523 -2.511 -2.492 -2.457 -2.410 11.04493 15.36116 -8.23478
 3.50 3.20 -2.384 -2.373 -2.356 -2.326 -2.283 11.19888 15.56420 -8.03175
 3.50 3.40 -2.245 -2.236 -2.221 -2.194 -2.158 11.35332 15.76874 -7.82726
 3.50 3.60 -2.109 -2.102 -2.089 -2.066 -2.035 11.50831 15.97527 -7.62075
 3.50 3.80 -1.978 -1.972 -1.961 -1.942 -1.916 11.66350 16.18472 -7.41128
 3.50 4.00 -1.853 -1.849 -1.840 -1.824 -1.801 11.81869 16.39690 -7.19908
 3.50 4.20 -1.742 -1.738 -1.731 -1.717 -1.697 11.97322 16.61359 -6.98245
 3.50 4.40 -1.641 -1.638 -1.631 -1.620 -1.602 12.12684 16.83222 -6.76387
 3.50 4.60 -1.552 -1.549 -1.544 -1.533 -1.518 12.27818 17.05305 -6.54302
 3.50 4.80 -1.476 -1.474 -1.468 -1.460 -1.446 12.42511 17.27465 -6.32138
 3.50 5.00 -1.411 -1.408 -1.404 -1.395 -1.382 12.56832 17.49624 -6.09974
 3.50 5.20 -1.356 -1.354 -1.349 -1.342 -1.329 12.70578 17.71572 -5.88026
 3.50 5.40 -1.309 -1.306 -1.303 -1.295 -1.283 12.83925 17.93352 -5.66249
 3.50 5.60 -1.267 -1.264 -1.261 -1.253 -1.243 12.96873 18.14911 -5.44692
 3.50 5.80 -1.230 -1.227 -1.224 -1.217 -1.206 13.09513 18.36220 -5.23384
 3.50 6.00 -1.194 -1.192 -1.188 -1.182 -1.172 13.21880 18.57322 -5.02283
 3.50 6.25 -1.151 -1.150 -1.146 -1.140 -1.130 13.37050 18.83416 -4.76189
 3.50 6.50 -1.109 -1.107 -1.105 -1.098 -1.089 13.51904 19.09272 -4.50335
 3.50 6.75 -1.066 -1.063 -1.061 -1.054 -1.046 13.66487 19.34929 -4.24686
 3.50 7.00 -1.020 -1.018 -1.015 -1.010 -1.000 13.80774 19.60433 -3.99183
 3.50 7.25 -0.971 -0.969 -0.966 -0.961 -0.953 13.94744 19.85806 -3.73793
 3.50 7.50 -0.919 -0.918 -0.915 -0.910 -0.902 14.08422 20.11093 -3.48492
 3.50 7.75 -0.865 -0.863 -0.861 -0.857 -0.849 14.21825 20.36324 -3.23254
 3.50 8.00 -0.808 -0.807 -0.804 -0.799 -0.793 14.34947 20.61490 -2.98088
 3.52-2.00 -3.569 -3.562 -3.550 -3.530 -3.503  7.38632 10.33405-13.26193
 3.52-1.50 -3.556 -3.548 -3.532 -3.505 -3.469  7.86130 10.83442-12.76145
 3.52-1.00 -3.552 -3.541 -3.522 -3.488 -3.443  8.31154 11.33486-12.26114
 3.52-0.50 -3.549 -3.536 -3.513 -3.473 -3.419  8.73247 11.83506-11.76095
 3.52 0.00 -3.524 -3.510 -3.484 -3.439 -3.378  9.12156 12.33526-11.26074
 3.52 0.50 -3.460 -3.444 -3.416 -3.366 -3.299  9.47842 12.83544-10.76070
 3.52 1.00 -3.349 -3.332 -3.303 -3.250 -3.180  9.81084 13.33566-10.26043
 3.52 1.25 -3.276 -3.259 -3.228 -3.175 -3.103  9.97155 13.58567-10.01044
 3.52 1.50 -3.191 -3.174 -3.144 -3.090 -3.018 10.13226 13.83569 -9.76045
 3.52 1.75 -3.091 -3.074 -3.043 -2.990 -2.919 10.29409 14.08585 -9.51027
 3.52 2.00 -2.977 -2.961 -2.932 -2.882 -2.812 10.45743 14.33606 -9.26003
 3.52 2.25 -2.849 -2.833 -2.806 -2.758 -2.691 10.62563 14.58628 -9.00978
 3.52 2.50 -2.708 -2.694 -2.668 -2.624 -2.562 10.79810 14.83658 -8.75945
 3.52 2.75 -2.554 -2.541 -2.518 -2.478 -2.423 10.97587 15.08720 -8.50878
 3.52 3.00 -2.392 -2.380 -2.360 -2.326 -2.276 11.15776 15.33826 -8.25767
 3.52 3.20 -2.256 -2.246 -2.228 -2.197 -2.154 11.30619 15.53970 -8.05627
 3.52 3.40 -2.118 -2.109 -2.094 -2.067 -2.029 11.45630 15.74194 -7.85412
 3.52 3.60 -1.980 -1.972 -1.958 -1.935 -1.902 11.60811 15.94524 -7.65089
 3.52 3.80 -1.841 -1.835 -1.824 -1.805 -1.776 11.76091 16.15044 -7.44568
 3.52 4.00 -1.706 -1.700 -1.691 -1.675 -1.652 11.91445 16.35755 -7.23852
 3.52 4.20 -1.579 -1.575 -1.567 -1.554 -1.534 12.06873 16.56801 -7.02800
 3.52 4.40 -1.459 -1.456 -1.450 -1.438 -1.421 12.22302 16.78134 -6.81462
 3.52 4.60 -1.351 -1.349 -1.343 -1.334 -1.319 12.37685 16.99874 -6.59725
 3.52 4.80 -1.256 -1.253 -1.248 -1.240 -1.227 12.52906 17.21860 -6.37746
 3.52 5.00 -1.170 -1.168 -1.164 -1.156 -1.145 12.67970 17.43918 -6.15689
 3.52 5.20 -1.099 -1.097 -1.093 -1.086 -1.075 12.82524 17.66024 -5.93580
 3.52 5.40 -1.037 -1.035 -1.031 -1.025 -1.015 12.96666 17.88131 -5.71470
 3.52 5.60 -0.984 -0.982 -0.979 -0.972 -0.962 13.10323 18.10111 -5.49490
 3.52 5.80 -0.938 -0.936 -0.933 -0.927 -0.918 13.23521 18.31813 -5.27791
 3.52 6.00 -0.898 -0.896 -0.893 -0.887 -0.878 13.36343 18.53314 -5.06293
 3.52 6.25 -0.852 -0.851 -0.847 -0.842 -0.834 13.51926 18.79823 -4.79779
 3.52 6.50 -0.810 -0.808 -0.806 -0.801 -0.792 13.67099 19.06032 -4.53566
 3.52 6.75 -0.769 -0.768 -0.765 -0.760 -0.752 13.81942 19.31973 -4.27626
 3.52 7.00 -0.728 -0.726 -0.724 -0.718 -0.711 13.96459 19.57703 -4.01895
 3.52 7.25 -0.684 -0.684 -0.681 -0.676 -0.668 14.10682 19.83250 -3.76344
 3.52 7.50 -0.640 -0.638 -0.636 -0.631 -0.624 14.24601 20.08672 -3.50920
 3.52 7.75 -0.592 -0.591 -0.589 -0.584 -0.577 14.38213 20.34010 -3.25584
 3.52 8.00 -0.543 -0.541 -0.539 -0.535 -0.528 14.51521 20.59251 -3.00349
 3.54-2.00 -3.562 -3.556 -3.548 -3.532 -3.512  7.37894 10.31387-13.28225
 3.54-1.50 -3.542 -3.534 -3.522 -3.499 -3.470  7.86941 10.81391-12.78199
 3.54-1.00 -3.514 -3.504 -3.486 -3.456 -3.416  8.34811 11.31429-12.28175
 3.54-0.50 -3.477 -3.465 -3.443 -3.404 -3.353  8.80346 11.81465-11.78146
 3.54 0.00 -3.421 -3.406 -3.381 -3.335 -3.274  9.22968 12.31492-11.28100
 3.54 0.50 -3.324 -3.308 -3.280 -3.229 -3.161  9.62356 12.81525-10.78094
 3.54 1.00 -3.183 -3.167 -3.136 -3.083 -3.010  9.98466 13.31534-10.28059
 3.54 1.25 -3.099 -3.082 -3.051 -2.998 -2.925 10.15424 13.56542-10.03050
 3.54 1.50 -3.006 -2.988 -2.958 -2.905 -2.832 10.31931 13.81551 -9.78042
 3.54 1.75 -2.901 -2.885 -2.855 -2.804 -2.733 10.47980 14.06563 -9.53034
 3.54 2.00 -2.790 -2.773 -2.746 -2.695 -2.628 10.64028 14.31576 -9.28026
 3.54 2.25 -2.666 -2.651 -2.625 -2.577 -2.513 10.80094 14.56589 -9.03011
 3.54 2.50 -2.535 -2.521 -2.497 -2.453 -2.393 10.96190 14.81604 -8.77989
 3.54 2.75 -2.392 -2.379 -2.358 -2.318 -2.263 11.12713 15.06642 -8.52958
 3.54 3.00 -2.243 -2.232 -2.212 -2.176 -2.128 11.29601 15.31702 -8.27910
 3.54 3.20 -2.116 -2.106 -2.089 -2.056 -2.012 11.43464 15.51771 -8.07837
 3.54 3.40 -1.986 -1.977 -1.961 -1.933 -1.894 11.57598 15.71876 -7.87723
 3.54 3.60 -1.852 -1.844 -1.831 -1.806 -1.772 11.72024 15.92032 -7.67559
 3.54 3.80 -1.715 -1.708 -1.697 -1.677 -1.647 11.86695 16.12298 -7.47294
 3.54 4.00 -1.577 -1.572 -1.562 -1.546 -1.521 12.01578 16.32675 -7.26922
 3.54 4.20 -1.444 -1.439 -1.432 -1.417 -1.396 12.16677 16.53264 -7.06333
 3.54 4.40 -1.313 -1.310 -1.303 -1.291 -1.273 12.31868 16.74089 -6.85508
 3.54 4.60 -1.191 -1.188 -1.182 -1.171 -1.156 12.47158 16.95234 -6.64363
 3.54 4.80 -1.077 -1.075 -1.070 -1.061 -1.048 12.62479 17.16720 -6.42877
 3.54 5.00 -0.973 -0.970 -0.966 -0.958 -0.947 12.77801 17.38471 -6.21127
 3.54 5.20 -0.883 -0.880 -0.877 -0.870 -0.859 12.92872 17.60596 -5.99003
 3.54 5.40 -0.803 -0.801 -0.798 -0.791 -0.781 13.07695 17.82720 -5.76879
 3.54 5.60 -0.734 -0.732 -0.729 -0.724 -0.714 13.22136 18.04820 -5.54779
 3.54 5.80 -0.676 -0.674 -0.671 -0.666 -0.656 13.36059 18.26831 -5.32767
 3.54 6.00 -0.625 -0.623 -0.620 -0.615 -0.607 13.49554 18.48757 -5.10841
 3.54 6.25 -0.572 -0.570 -0.567 -0.562 -0.554 13.65769 18.75726 -4.83864
 3.54 6.50 -0.525 -0.523 -0.521 -0.516 -0.508 13.81431 19.02366 -4.57219
 3.54 6.75 -0.483 -0.481 -0.479 -0.474 -0.466 13.96629 19.28670 -4.30918
 3.54 7.00 -0.443 -0.442 -0.439 -0.434 -0.426 14.11428 19.54704 -4.04890
 3.54 7.25 -0.404 -0.402 -0.400 -0.395 -0.387 14.25899 19.80497 -3.79110
 3.54 7.50 -0.364 -0.363 -0.360 -0.355 -0.348 14.40036 20.06108 -3.53506
 3.54 7.75 -0.323 -0.322 -0.318 -0.314 -0.307 14.53858 20.31586 -3.28024
 3.54 8.00 -0.280 -0.278 -0.276 -0.271 -0.265 14.67357 20.56914 -3.02683
 3.56-2.00 -3.540 -3.536 -3.529 -3.517 -3.502  7.37291 10.29358-13.30242
 3.56-1.50 -3.535 -3.529 -3.519 -3.503 -3.480  7.86153 10.79358-12.80244
 3.56-1.00 -3.507 -3.498 -3.484 -3.460 -3.428  8.35180 11.29381-12.30225
 3.56-0.50 -3.454 -3.444 -3.424 -3.390 -3.345  8.83257 11.79400-11.80189
 3.56 0.00 -3.369 -3.355 -3.329 -3.286 -3.228  9.29181 12.29447-11.30155
 3.56 0.50 -3.237 -3.220 -3.191 -3.141 -3.074  9.72189 12.79477-10.80134
 3.56 1.00 -3.058 -3.041 -3.010 -2.956 -2.884 10.11959 13.29513-10.30094
 3.56 1.25 -2.956 -2.938 -2.909 -2.855 -2.781 10.30546 13.54519-10.05087
 3.56 1.50 -2.846 -2.829 -2.799 -2.745 -2.672 10.48373 13.79525 -9.80079
 3.56 1.75 -2.732 -2.714 -2.686 -2.633 -2.562 10.65435 14.04541 -9.55065
 3.56 2.00 -2.611 -2.595 -2.567 -2.517 -2.449 10.82000 14.29557 -9.30051
 3.56 2.25 -2.485 -2.470 -2.444 -2.397 -2.332 10.98088 14.54562 -9.05038
 3.56 2.50 -2.355 -2.342 -2.317 -2.274 -2.214 11.14082 14.79567 -8.80025
 3.56 2.75 -2.219 -2.206 -2.184 -2.145 -2.090 11.30018 15.04588 -8.55007
 3.56 3.00 -2.079 -2.067 -2.048 -2.012 -1.963 11.45954 15.29623 -8.29982
 3.56 3.20 -1.960 -1.949 -1.931 -1.899 -1.855 11.58953 15.49660 -8.09948
 3.56 3.40 -1.839 -1.829 -1.814 -1.785 -1.744 11.72150 15.69714 -7.89894
 3.56 3.60 -1.714 -1.706 -1.691 -1.666 -1.630 11.85592 15.89793 -7.69814
 3.56 3.80 -1.584 -1.577 -1.565 -1.543 -1.512 11.99336 16.09929 -7.49674
 3.56 4.00 -1.452 -1.447 -1.437 -1.418 -1.391 12.13354 16.30125 -7.29474
 3.56 4.20 -1.320 -1.316 -1.306 -1.291 -1.269 12.27696 16.50437 -7.09161
 3.56 4.40 -1.187 -1.184 -1.176 -1.163 -1.143 12.42282 16.70902 -6.88698
 3.56 4.60 -1.058 -1.055 -1.049 -1.038 -1.021 12.57163 16.91573 -6.68030
 3.56 4.80 -0.933 -0.931 -0.926 -0.917 -0.902 12.72201 17.12542 -6.47063
 3.56 5.00 -0.814 -0.812 -0.808 -0.799 -0.786 12.87297 17.33786 -6.25822
 3.56 5.20 -0.707 -0.706 -0.701 -0.694 -0.683 13.02434 17.55467 -6.04141
 3.56 5.40 -0.609 -0.608 -0.604 -0.597 -0.587 13.17571 17.77338 -5.82271
 3.56 5.60 -0.523 -0.521 -0.518 -0.512 -0.503 13.32549 17.99423 -5.60185
 3.56 5.80 -0.449 -0.447 -0.444 -0.438 -0.430 13.47120 18.21583 -5.38024
 3.56 6.00 -0.384 -0.382 -0.379 -0.374 -0.367 13.61363 18.43743 -5.15864
 3.56 6.25 -0.317 -0.316 -0.313 -0.308 -0.300 13.78395 18.71136 -4.88472
 3.56 6.50 -0.261 -0.259 -0.257 -0.252 -0.244 13.94768 18.98259 -4.61350
 3.56 6.75 -0.214 -0.212 -0.209 -0.205 -0.197 14.10491 19.24978 -4.34628
 3.56 7.00 -0.172 -0.170 -0.168 -0.162 -0.155 14.25696 19.51375 -4.08228
 3.56 7.25 -0.132 -0.132 -0.130 -0.125 -0.117 14.40467 19.77456 -3.82149
 3.56 7.50 -0.096 -0.095 -0.093 -0.087 -0.081 14.54839 20.03302 -3.56304
 3.56 7.75 -0.060 -0.057 -0.055 -0.051 -0.044 14.68871 20.28976 -3.30631
 3.56 8.00 -0.022 -0.020 -0.018 -0.013 -0.006 14.82543 20.54457 -3.05149
 3.58-2.00 -3.468 -3.464 -3.458 -3.449 -3.435  7.40019 10.27346-13.32248
 3.58-1.50 -3.502 -3.497 -3.490 -3.477 -3.458  7.86237 10.77357-12.82246
 3.58-1.00 -3.497 -3.491 -3.480 -3.462 -3.437  8.34537 11.27370-12.32239
 3.58-0.50 -3.454 -3.445 -3.430 -3.403 -3.366  8.83391 11.77371-11.82246
 3.58 0.00 -3.362 -3.349 -3.328 -3.290 -3.240  9.31555 12.27393-11.32212
 3.58 0.50 -3.204 -3.188 -3.162 -3.115 -3.052  9.77714 12.77423-10.82189
 3.58 1.00 -2.984 -2.968 -2.938 -2.885 -2.815 10.20952 13.27462-10.32130
 3.58 1.25 -2.862 -2.845 -2.815 -2.761 -2.689 10.41351 13.52482-10.07116
 3.58 1.50 -2.731 -2.714 -2.683 -2.629 -2.557 10.60917 13.77503 -9.82102
 3.58 1.75 -2.599 -2.582 -2.552 -2.500 -2.430 10.79592 14.02519 -9.57089
 3.58 2.00 -2.462 -2.446 -2.418 -2.367 -2.299 10.97488 14.27531 -9.32075
 3.58 2.25 -2.325 -2.311 -2.284 -2.237 -2.173 11.14595 14.52539 -9.07060
 3.58 2.50 -2.188 -2.174 -2.149 -2.105 -2.045 11.31175 14.77547 -8.82045
 3.58 2.75 -2.049 -2.036 -2.013 -1.974 -1.919 11.47266 15.02559 -8.57033
 3.58 3.00 -1.910 -1.898 -1.878 -1.842 -1.792 11.63205 15.27577 -8.32021
 3.58 3.20 -1.794 -1.785 -1.766 -1.734 -1.688 11.75869 15.47598 -8.12003
 3.58 3.40 -1.678 -1.669 -1.654 -1.624 -1.583 11.88534 15.67629 -7.91976
 3.58 3.60 -1.560 -1.552 -1.538 -1.512 -1.475 12.01272 15.87674 -7.71934
 3.58 3.80 -1.439 -1.431 -1.419 -1.396 -1.363 12.14212 16.07747 -7.51859
 3.58 4.00 -1.316 -1.309 -1.299 -1.280 -1.250 12.27323 16.27852 -7.31749
 3.58 4.20 -1.189 -1.184 -1.174 -1.158 -1.133 12.40744 16.48017 -7.11580
 3.58 4.40 -1.061 -1.057 -1.049 -1.035 -1.013 12.54442 16.68268 -6.91324
 3.58 4.60 -0.933 -0.930 -0.924 -0.911 -0.893 12.68457 16.88637 -6.70955
 3.58 4.80 -0.807 -0.804 -0.799 -0.788 -0.772 12.82773 17.09212 -6.50385
 3.58 5.00 -0.682 -0.679 -0.675 -0.665 -0.652 12.97345 17.29994 -6.29611
 3.58 5.20 -0.564 -0.562 -0.558 -0.550 -0.538 13.12285 17.51142 -6.08458
 3.58 5.40 -0.452 -0.450 -0.447 -0.440 -0.428 13.27224 17.72575 -5.87021
 3.58 5.60 -0.350 -0.348 -0.345 -0.338 -0.329 13.42153 17.94414 -5.65181
 3.58 5.80 -0.259 -0.257 -0.255 -0.249 -0.240 13.57027 18.16460 -5.43139
 3.58 6.00 -0.178 -0.177 -0.174 -0.168 -0.160 13.71842 18.38525 -5.21077
 3.58 6.25 -0.095 -0.094 -0.090 -0.085 -0.078 13.89636 18.66118 -4.93487
 3.58 6.50 -0.025 -0.023 -0.020 -0.016 -0.009 14.06819 18.93712 -4.65896
 3.58 6.75  0.033  0.034  0.036  0.041  0.049 14.23228 19.20852 -4.38752
 3.58 7.00  0.081  0.082  0.085  0.090  0.097 14.39005 19.47669 -4.11930
 3.58 7.25  0.123  0.124  0.127  0.132  0.139 14.54195 19.74110 -3.85493
 3.58 7.50  0.160  0.162  0.164  0.170  0.176 14.68886 20.00260 -3.59346
 3.58 7.75  0.196  0.197  0.199  0.205  0.212 14.83170 20.26175 -3.33428
 3.58 8.00  0.229  0.230  0.234  0.238  0.246 14.97016 20.51838 -3.07759
 3.60-2.00 -3.319 -3.316 -3.310 -3.300 -3.287  7.50079 10.25334-13.34266
 3.60-1.50 -3.408 -3.404 -3.397 -3.385 -3.368  7.90902 10.75351-12.84254
 3.60-1.00 -3.452 -3.446 -3.438 -3.423 -3.401  8.35583 11.25358-12.34247
 3.60-0.50 -3.444 -3.437 -3.424 -3.403 -3.373  8.83046 11.75358-11.84254
 3.60 0.00 -3.371 -3.361 -3.344 -3.313 -3.272  9.31618 12.25382-11.34228
 3.60 0.50 -3.214 -3.201 -3.178 -3.138 -3.083  9.79741 12.75381-10.84224
 3.60 1.00 -2.969 -2.954 -2.926 -2.878 -2.813 10.25983 13.25407-10.34180
 3.60 1.25 -2.826 -2.809 -2.780 -2.730 -2.663 10.48039 13.50432-10.09157
 3.60 1.50 -2.670 -2.654 -2.624 -2.573 -2.504 10.69320 13.75458 -9.84134
 3.60 1.75 -2.516 -2.500 -2.470 -2.420 -2.352 10.89752 14.00482 -9.59119
 3.60 2.00 -2.358 -2.342 -2.314 -2.264 -2.197 11.09342 14.25503 -9.34103
 3.60 2.25 -2.204 -2.189 -2.162 -2.115 -2.052 11.28035 14.50515 -9.09088
 3.60 2.50 -2.051 -2.036 -2.012 -1.967 -1.908 11.45939 14.75527 -8.84073
 3.60 2.75 -1.901 -1.888 -1.866 -1.826 -1.770 11.63048 15.00539 -8.59060
 3.60 3.00 -1.754 -1.742 -1.721 -1.684 -1.634 11.79609 15.25551 -8.34046
 3.60 3.20 -1.636 -1.626 -1.607 -1.573 -1.526 11.92461 15.45565 -8.14035
 3.60 3.40 -1.520 -1.510 -1.493 -1.463 -1.421 12.05200 15.65584 -7.94021
 3.60 3.60 -1.403 -1.395 -1.380 -1.352 -1.313 12.17824 15.85611 -7.73999
 3.60 3.80 -1.285 -1.277 -1.264 -1.240 -1.206 12.30416 16.05657 -7.53957
 3.60 4.00 -1.166 -1.160 -1.149 -1.128 -1.097 12.43008 16.25720 -7.33895
 3.60 4.20 -1.046 -1.040 -1.031 -1.012 -0.985 12.55757 16.45807 -7.13799
 3.60 4.40 -0.924 -0.919 -0.911 -0.895 -0.871 12.68659 16.65938 -6.93655
 3.60 4.60 -0.801 -0.798 -0.790 -0.776 -0.756 12.81776 16.86134 -6.73450
 3.60 4.80 -0.678 -0.675 -0.669 -0.657 -0.638 12.95206 17.06464 -6.53124
 3.60 5.00 -0.555 -0.552 -0.547 -0.537 -0.521 13.08920 17.26928 -6.32670
 3.60 5.20 -0.434 -0.432 -0.427 -0.419 -0.405 13.23031 17.47639 -6.11962
 3.60 5.40 -0.317 -0.314 -0.310 -0.303 -0.290 13.37386 17.68608 -5.90992
 3.60 5.60 -0.205 -0.203 -0.199 -0.193 -0.181 13.52046 17.89931 -5.69670
 3.60 5.80 -0.102 -0.101 -0.097 -0.091 -0.081 13.66832 18.11585 -5.48019
 3.60 6.00 -0.006 -0.005 -0.002  0.003  0.013 13.81617 18.33466 -5.26138
 3.60 6.25  0.095  0.097  0.100  0.105  0.113 13.99842 18.61153 -4.98445
 3.60 6.50  0.181  0.183  0.186  0.191  0.199 14.17754 18.88840 -4.70752
 3.60 6.75  0.252  0.253  0.256  0.262  0.269 14.34875 19.16321 -4.43273
 3.60 7.00  0.311  0.312  0.315  0.321  0.328 14.51335 19.43584 -4.16015
 3.60 7.25  0.360  0.361  0.363  0.369  0.377 14.67063 19.70422 -3.89180
 3.60 7.50  0.401  0.403  0.405  0.411  0.418 14.82184 19.96932 -3.62672
 3.60 7.75  0.438  0.440  0.442  0.447  0.455 14.96793 20.23146 -3.36461
 3.60 8.00  0.470  0.472  0.475  0.480  0.488 15.10857 20.49052 -3.10557
 3.62-2.00 -3.105 -3.102 -3.096 -3.087 -3.073  7.67468 10.23300-13.36311
 3.62-1.50 -3.237 -3.233 -3.227 -3.215 -3.199  8.03383 10.73320-12.86296
 3.62-1.00 -3.337 -3.332 -3.324 -3.309 -3.289  8.42357 11.23350-12.36261
 3.62-0.50 -3.385 -3.378 -3.367 -3.349 -3.323  8.85333 11.73352-11.86265
 3.62 0.00 -3.358 -3.350 -3.336 -3.311 -3.275  9.31765 12.23350-11.36241
 3.62 0.50 -3.233 -3.221 -3.202 -3.169 -3.123  9.79865 12.73360-10.86233
 3.62 1.00 -2.993 -2.979 -2.956 -2.914 -2.858 10.27853 13.23376-10.36221
 3.62 1.25 -2.838 -2.823 -2.798 -2.753 -2.694 10.51232 13.48386-10.11213
 3.62 1.50 -2.666 -2.651 -2.625 -2.578 -2.516 10.74060 13.73400 -9.86201
 3.62 1.75 -2.489 -2.474 -2.447 -2.401 -2.338 10.96108 13.98426 -9.61183
 3.62 2.00 -2.308 -2.293 -2.266 -2.219 -2.155 11.17377 14.23452 -9.36161
 3.62 2.25 -2.132 -2.118 -2.092 -2.046 -1.986 11.37771 14.48470 -9.11134
 3.62 2.50 -1.958 -1.944 -1.919 -1.875 -1.817 11.57310 14.73488 -8.86107
 3.62 2.75 -1.792 -1.779 -1.756 -1.715 -1.660 11.75947 14.98508 -8.61094
 3.62 3.00 -1.630 -1.618 -1.596 -1.559 -1.507 11.93792 15.23528 -8.36081
 3.62 3.20 -1.503 -1.493 -1.473 -1.438 -1.391 12.07479 15.43541 -8.16068
 3.62 3.40 -1.380 -1.369 -1.352 -1.320 -1.276 12.20812 15.63554 -7.96053
 3.62 3.60 -1.258 -1.249 -1.233 -1.204 -1.163 12.33764 15.83569 -7.76033
 3.62 3.80 -1.138 -1.130 -1.115 -1.089 -1.053 12.46507 16.03595 -7.56007
 3.62 4.00 -1.018 -1.012 -0.999 -0.976 -0.942 12.59129 16.23629 -7.35972
 3.62 4.20 -0.899 -0.893 -0.882 -0.862 -0.832 12.71649 16.43678 -7.15920
 3.62 4.40 -0.780 -0.775 -0.765 -0.748 -0.721 12.84168 16.63752 -6.95841
 3.62 4.60 -0.660 -0.656 -0.648 -0.632 -0.609 12.96747 16.83864 -6.75729
 3.62 4.80 -0.541 -0.537 -0.530 -0.517 -0.496 13.09498 17.04056 -6.55543
 3.62 5.00 -0.421 -0.418 -0.412 -0.401 -0.383 13.22402 17.24329 -6.35281
 3.62 5.20 -0.303 -0.299 -0.294 -0.285 -0.269 13.35622 17.44747 -6.14867
 3.62 5.40 -0.185 -0.182 -0.177 -0.169 -0.155 13.49129 17.65352 -5.94265
 3.62 5.60 -0.071 -0.068 -0.065 -0.057 -0.045 13.63026 17.86215 -5.73401
 3.62 5.80  0.039  0.040  0.044  0.051  0.062 13.77224 18.07410 -5.52201
 3.62 6.00  0.142  0.144  0.147  0.153  0.163 13.91593 18.28892 -5.30715
 3.62 6.25  0.258  0.259  0.262  0.268  0.278 14.09757 18.56314 -5.03299
 3.62 6.50  0.360  0.361  0.364  0.370  0.379 14.27921 18.83866 -4.75746
 3.62 6.75  0.446  0.447  0.450  0.456  0.464 14.45561 19.11506 -4.48100
 3.62 7.00  0.517  0.519  0.521  0.527  0.535 14.62706 19.39146 -4.20454
 3.62 7.25  0.576  0.577  0.580  0.586  0.594 14.79048 19.66367 -3.93236
 3.62 7.50  0.624  0.626  0.628  0.634  0.642 14.94719 19.93273 -3.66334
 3.62 7.75  0.664  0.666  0.669  0.674  0.683 15.09750 20.19817 -3.39788
 3.62 8.00  0.699  0.701  0.704  0.709  0.718 15.24130 20.46015 -3.13585
 3.64-2.00 -2.851 -2.847 -2.842 -2.832 -2.819  7.88897 10.21219-13.38395
 3.64-1.50 -3.010 -3.007 -3.000 -2.988 -2.971  8.22194 10.71273-12.88339
 3.64-1.00 -3.149 -3.145 -3.136 -3.122 -3.102  8.56844 11.21325-12.38289
 3.64-0.50 -3.251 -3.245 -3.235 -3.217 -3.193  8.94161 11.71341-11.88273
 3.64 0.00 -3.286 -3.280 -3.267 -3.244 -3.213  9.35449 12.21352-11.38248
 3.64 0.50 -3.219 -3.209 -3.193 -3.164 -3.123  9.80659 12.71358-10.88240
 3.64 1.00 -3.017 -3.006 -2.985 -2.950 -2.901 10.28172 13.21378-10.38237
 3.64 1.25 -2.869 -2.856 -2.834 -2.796 -2.743 10.52028 13.46376-10.13238
 3.64 1.50 -2.697 -2.682 -2.660 -2.619 -2.564 10.75884 13.71374 -9.88240
 3.64 1.75 -2.508 -2.493 -2.470 -2.428 -2.372 10.99174 13.96388 -9.63218
 3.64 2.00 -2.309 -2.296 -2.272 -2.229 -2.171 11.21932 14.21405 -9.38195
 3.64 2.25 -2.113 -2.099 -2.075 -2.033 -1.977 11.43880 14.46422 -9.13184
 3.64 2.50 -1.917 -1.903 -1.879 -1.839 -1.783 11.65041 14.71441 -8.88173
 3.64 2.75 -1.730 -1.717 -1.694 -1.655 -1.602 11.85334 14.96463 -8.63143
 3.64 3.00 -1.548 -1.535 -1.514 -1.476 -1.424 12.04766 15.21484 -8.38112
 3.64 3.20 -1.408 -1.397 -1.377 -1.342 -1.294 12.19631 15.41501 -8.18097
 3.64 3.40 -1.273 -1.262 -1.243 -1.211 -1.165 12.33988 15.61517 -7.98082
 3.64 3.60 -1.140 -1.131 -1.115 -1.084 -1.041 12.47814 15.81536 -7.78065
 3.64 3.80 -1.012 -1.003 -0.988 -0.961 -0.921 12.61231 16.01561 -7.58044
 3.64 4.00 -0.887 -0.879 -0.866 -0.840 -0.804 12.74304 16.21590 -7.38018
 3.64 4.20 -0.763 -0.756 -0.745 -0.722 -0.690 12.87037 16.41622 -7.17984
 3.64 4.40 -0.641 -0.636 -0.625 -0.606 -0.577 12.99654 16.61661 -6.97938
 3.64 4.60 -0.521 -0.516 -0.507 -0.491 -0.464 13.12149 16.81720 -6.77873
 3.64 4.80 -0.401 -0.398 -0.390 -0.375 -0.352 13.24609 17.01828 -6.57765
 3.64 5.00 -0.283 -0.280 -0.273 -0.260 -0.240 13.37070 17.21985 -6.37613
 3.64 5.20 -0.166 -0.163 -0.157 -0.147 -0.128 13.49695 17.42229 -6.17370
 3.64 5.40 -0.050 -0.047 -0.042 -0.033 -0.018 13.62484 17.62597 -5.97003
 3.64 5.60  0.064  0.066  0.070  0.079  0.093 13.75526 17.83134 -5.76470
 3.64 5.80  0.174  0.176  0.179  0.188  0.200 13.88908 18.03937 -5.55672
 3.64 6.00  0.280  0.282  0.285  0.293  0.304 14.02572 18.24993 -5.34621
 3.64 6.25  0.405  0.406  0.410  0.417  0.427 14.20260 18.51866 -5.07749
 3.64 6.50  0.519  0.520  0.523  0.530  0.539 14.37949 18.79120 -4.80493
 3.64 6.75  0.617  0.618  0.621  0.627  0.637 14.55626 19.06809 -4.52802
 3.64 7.00  0.701  0.702  0.706  0.711  0.720 14.73280 19.34498 -4.25111
 3.64 7.25  0.771  0.772  0.775  0.780  0.790 14.90155 19.62004 -3.97601
 3.64 7.50  0.827  0.829  0.832  0.839  0.847 15.06408 19.89310 -3.70290
 3.64 7.75  0.875  0.875  0.879  0.885  0.894 15.21901 20.16207 -3.43395
 3.64 8.00  0.913  0.914  0.918  0.924  0.934 15.36680 20.42765 -3.16845
 3.66-2.00 -2.566 -2.562 -2.556 -2.548 -2.534  8.13640 10.19033-13.40572
 3.66-1.50 -2.748 -2.744 -2.738 -2.726 -2.709  8.44747 10.69161-12.90448
 3.66-1.00 -2.913 -2.909 -2.899 -2.885 -2.866  8.76930 11.19257-12.40351
 3.66-0.50 -3.051 -3.045 -3.036 -3.018 -2.994  9.10380 11.69293-11.90309
 3.66 0.00 -3.141 -3.134 -3.121 -3.100 -3.069  9.46225 12.19340-11.40274
 3.66 0.50 -3.138 -3.129 -3.115 -3.088 -3.050  9.85866 12.69346-10.90274
 3.66 1.00 -3.001 -2.990 -2.972 -2.939 -2.895 10.29776 13.19368-10.40241
 3.66 1.25 -2.876 -2.865 -2.845 -2.811 -2.762 10.53034 13.44362-10.15241
 3.66 1.50 -2.720 -2.708 -2.687 -2.651 -2.601 10.76530 13.69355 -9.90240
 3.66 1.75 -2.539 -2.525 -2.504 -2.466 -2.415 11.00192 13.94360 -9.65236
 3.66 2.00 -2.339 -2.327 -2.305 -2.266 -2.214 11.23855 14.19368 -9.40231
 3.66 2.25 -2.132 -2.119 -2.097 -2.058 -2.006 11.46981 14.44378 -9.15220
 3.66 2.50 -1.921 -1.908 -1.886 -1.847 -1.796 11.69592 14.69390 -8.90205
 3.66 2.75 -1.714 -1.703 -1.681 -1.643 -1.592 11.91386 14.94405 -8.65185
 3.66 3.00 -1.512 -1.500 -1.480 -1.442 -1.393 12.12385 15.19424 -8.40165
 3.66 3.20 -1.357 -1.346 -1.326 -1.291 -1.243 12.28535 15.39445 -8.20153
 3.66 3.40 -1.206 -1.196 -1.177 -1.143 -1.097 12.44130 15.59467 -8.00142
 3.66 3.60 -1.060 -1.051 -1.033 -1.002 -0.958 12.59141 15.79489 -7.80122
 3.66 3.80 -0.919 -0.911 -0.895 -0.866 -0.824 12.73610 15.99512 -7.60094
 3.66 4.00 -0.783 -0.775 -0.760 -0.734 -0.695 12.87581 16.19534 -7.40066
 3.66 4.20 -0.650 -0.643 -0.631 -0.607 -0.572 13.01049 16.39561 -7.20039
 3.66 4.40 -0.521 -0.516 -0.504 -0.482 -0.451 13.14185 16.59592 -7.00011
 3.66 4.60 -0.396 -0.390 -0.381 -0.362 -0.333 13.26958 16.79632 -6.79973
 3.66 4.80 -0.273 -0.269 -0.259 -0.243 -0.218 13.39544 16.99695 -6.59903
 3.66 5.00 -0.152 -0.148 -0.141 -0.127 -0.104 13.52035 17.19783 -6.39805
 3.66 5.20 -0.033 -0.030 -0.024 -0.012  0.009 13.64452 17.39929 -6.19662
 3.66 5.40  0.084  0.087  0.091  0.102  0.120 13.76870 17.60153 -5.99447
 3.66 5.60  0.198  0.200  0.204  0.214  0.229 13.89366 17.80481 -5.79128
 3.66 5.80  0.308  0.309  0.313  0.322  0.337 14.02081 18.00995 -5.58616
 3.66 6.00  0.416  0.418  0.421  0.429  0.442 14.14984 18.21696 -5.37914
 3.66 6.25  0.544  0.546  0.549  0.556  0.568 14.31655 18.48031 -5.11581
 3.66 6.50  0.663  0.665  0.669  0.675  0.687 14.48686 18.74811 -4.84802
 3.66 6.75  0.771  0.772  0.776  0.783  0.793 14.66137 19.02226 -4.57372
 3.66 7.00  0.866  0.867  0.871  0.877  0.888 14.83588 19.29776 -4.29817
 3.66 7.25  0.946  0.947  0.951  0.957  0.967 15.00701 19.57417 -4.02181
 3.66 7.50  1.013  1.014  1.017  1.024  1.035 15.17435 19.85059 -3.74545
 3.66 7.75  1.067  1.069  1.072  1.079  1.089 15.33358 20.12278 -3.47323
 3.66 8.00  1.111  1.112  1.116  1.123  1.133 15.48615 20.39217 -3.20377
 3.68-2.00 -2.259 -2.256 -2.251 -2.241 -2.227  8.41280 10.16673-13.42934
 3.68-1.50 -2.461 -2.457 -2.451 -2.440 -2.423  8.70148 10.66950-12.92665
 3.68-1.00 -2.647 -2.642 -2.634 -2.619 -2.600  9.00217 11.17114-12.42481
 3.68-0.50 -2.810 -2.803 -2.793 -2.776 -2.752  9.31345 11.67219-11.92372
 3.68 0.00 -2.933 -2.926 -2.914 -2.892 -2.863  9.63729 12.17289-11.42308
 3.68 0.50 -2.984 -2.975 -2.960 -2.934 -2.897  9.98286 12.67321-10.92263
 3.68 1.00 -2.912 -2.901 -2.885 -2.853 -2.811 10.36455 13.17348-10.42251
 3.68 1.25 -2.820 -2.810 -2.791 -2.758 -2.712 10.57254 13.42353-10.17257
 3.68 1.50 -2.695 -2.683 -2.664 -2.630 -2.582 10.79007 13.67357 -9.92263
 3.68 1.75 -2.537 -2.525 -2.505 -2.470 -2.421 11.01804 13.92367 -9.67251
 3.68 2.00 -2.356 -2.344 -2.323 -2.287 -2.238 11.24944 14.17377 -9.42239
 3.68 2.25 -2.156 -2.144 -2.123 -2.086 -2.037 11.48343 14.42376 -9.17233
 3.68 2.50 -1.945 -1.933 -1.912 -1.876 -1.827 11.71742 14.67376 -8.92227
 3.68 2.75 -1.730 -1.719 -1.698 -1.662 -1.613 11.94635 14.92391 -8.67218
 3.68 3.00 -1.515 -1.503 -1.484 -1.448 -1.400 12.17026 15.17406 -8.42205
 3.68 3.20 -1.346 -1.336 -1.316 -1.281 -1.235 12.34337 15.37416 -8.22185
 3.68 3.40 -1.181 -1.171 -1.151 -1.118 -1.072 12.51134 15.57426 -8.02164
 3.68 3.60 -1.020 -1.011 -0.993 -0.962 -0.917 12.67384 15.77443 -7.82146
 3.68 3.80 -0.866 -0.857 -0.840 -0.810 -0.768 12.83054 15.97467 -7.62130
 3.68 4.00 -0.715 -0.707 -0.691 -0.663 -0.623 12.98168 16.17493 -7.42113
 3.68 4.20 -0.571 -0.563 -0.549 -0.523 -0.486 13.12674 16.37519 -7.22091
 3.68 4.40 -0.430 -0.424 -0.411 -0.388 -0.354 13.26696 16.57546 -7.02062
 3.68 4.60 -0.294 -0.289 -0.278 -0.257 -0.226 13.40215 16.77576 -6.82027
 3.68 4.80 -0.164 -0.160 -0.150 -0.132 -0.103 13.53365 16.97616 -6.61980
 3.68 5.00 -0.037 -0.032 -0.024 -0.008  0.017 13.66210 17.17667 -6.41919
 3.68 5.20  0.087  0.090  0.097  0.111  0.133 13.78726 17.37758 -6.21830
 3.68 5.40  0.207  0.209  0.216  0.228  0.248 13.91194 17.57899 -6.01697
 3.68 5.60  0.324  0.326  0.331  0.341  0.359 14.03616 17.78101 -5.81503
 3.68 5.80  0.436  0.438  0.442  0.452  0.469 14.16030 17.98420 -5.61184
 3.68 6.00  0.545  0.547  0.551  0.560  0.575 14.28443 18.18865 -5.40738
 3.68 6.25  0.676  0.678  0.682  0.690  0.704 14.44314 18.44768 -5.14838
 3.68 6.50  0.800  0.801  0.806  0.813  0.826 14.60498 18.71071 -4.88539
 3.68 6.75  0.914  0.916  0.920  0.928  0.939 14.77283 18.97996 -4.61613
 3.68 7.00  1.017  1.019  1.023  1.030  1.041 14.94161 19.25285 -4.34323
 3.68 7.25  1.106  1.108  1.111  1.118  1.130 15.11098 19.52965 -4.06646
 3.68 7.50  1.181  1.183  1.187  1.194  1.206 15.28035 19.80645 -3.78968
 3.68 7.75  1.243  1.245  1.248  1.256  1.268 15.44231 20.08117 -3.51496
 3.68 8.00  1.293  1.296  1.299  1.307  1.318 15.59934 20.35449 -3.24162
 3.70-2.00 -1.943 -1.939 -1.934 -1.925 -1.911  8.70157 10.13862-13.45730
 3.70-1.50 -2.158 -2.155 -2.148 -2.137 -2.121  8.97713 10.64493-12.95117
 3.70-1.00 -2.360 -2.355 -2.347 -2.334 -2.315  9.25983 11.14860-12.44745
 3.70-0.50 -2.542 -2.536 -2.525 -2.509 -2.484  9.55206 11.65070-11.94539
 3.70 0.00 -2.689 -2.681 -2.669 -2.648 -2.618  9.85443 12.15198-11.44406
 3.70 0.50 -2.773 -2.765 -2.750 -2.724 -2.687 10.16850 12.65263-10.94348
 3.70 1.00 -2.753 -2.742 -2.725 -2.694 -2.651 10.50284 13.15320-10.44285
 3.70 1.25 -2.691 -2.680 -2.661 -2.629 -2.584 10.68213 13.40326-10.19278
 3.70 1.50 -2.597 -2.586 -2.566 -2.533 -2.486 10.87105 13.65331 -9.94271
 3.70 1.75 -2.471 -2.459 -2.439 -2.404 -2.356 11.07234 13.90341 -9.69260
 3.70 2.00 -2.319 -2.307 -2.287 -2.252 -2.204 11.28375 14.15351 -9.44249
 3.70 2.25 -2.143 -2.131 -2.111 -2.075 -2.026 11.50636 14.40355 -9.19241
 3.70 2.50 -1.952 -1.940 -1.919 -1.883 -1.836 11.73352 14.65360 -8.94233
 3.70 2.75 -1.746 -1.734 -1.714 -1.678 -1.631 11.96443 14.90371 -8.69229
 3.70 3.00 -1.533 -1.521 -1.502 -1.467 -1.420 12.19535 15.15382 -8.44225
 3.70 3.20 -1.359 -1.349 -1.329 -1.295 -1.249 12.37650 15.35384 -8.24214
 3.70 3.40 -1.186 -1.175 -1.157 -1.124 -1.079 12.55448 15.55387 -8.04202
 3.70 3.60 -1.015 -1.006 -0.988 -0.956 -0.911 12.72824 15.75399 -7.84189
 3.70 3.80 -0.848 -0.839 -0.822 -0.791 -0.748 12.89631 15.95421 -7.64177
 3.70 4.00 -0.684 -0.675 -0.660 -0.630 -0.589 13.05919 16.15442 -7.44165
 3.70 4.20 -0.526 -0.518 -0.503 -0.476 -0.438 13.21601 16.35463 -7.24150
 3.70 4.40 -0.373 -0.365 -0.353 -0.327 -0.291 13.36732 16.55484 -7.04131
 3.70 4.60 -0.225 -0.219 -0.206 -0.185 -0.151 13.51283 16.75509 -6.84103
 3.70 4.80 -0.082 -0.078 -0.067 -0.047 -0.016 13.65321 16.95547 -6.64062
 3.70 5.00  0.056  0.060  0.068  0.086  0.114 13.78895 17.15594 -6.44009
 3.70 5.20  0.186  0.190  0.197  0.214  0.238 13.92000 17.35655 -6.23949
 3.70 5.40  0.314  0.317  0.323  0.337  0.359 14.04840 17.55740 -6.03866
 3.70 5.60  0.435  0.439  0.444  0.456  0.476 14.17367 17.75861 -5.83746
 3.70 5.80  0.552  0.553  0.559  0.570  0.588 14.29780 17.96062 -5.63541
 3.70 6.00  0.664  0.666  0.671  0.682  0.698 14.42194 18.16346 -5.43250
 3.70 6.25  0.799  0.801  0.805  0.814  0.830 14.57724 18.41940 -5.17656
 3.70 6.50  0.927  0.928  0.933  0.942  0.956 14.73280 18.67843 -4.91757
 3.70 6.75  1.047  1.049  1.053  1.061  1.075 14.89259 18.94269 -4.65341
 3.70 7.00  1.157  1.158  1.162  1.171  1.184 15.05500 19.21139 -4.38479
 3.70 7.25  1.253  1.255  1.259  1.267  1.280 15.22093 19.48615 -4.10987
 3.70 7.50  1.337  1.339  1.342  1.350  1.363 15.38686 19.76178 -3.83416
 3.70 7.75  1.405  1.407  1.411  1.420  1.433 15.54905 20.03769 -3.55821
 3.70 8.00  1.462  1.464  1.468  1.477  1.490 15.70876 20.31408 -3.28183
 3.73-2.00 -1.473 -1.470 -1.466 -1.457 -1.443  9.11394 10.08027-13.51584
 3.73-1.50 -1.697 -1.694 -1.688 -1.677 -1.661  9.39164 10.59824-12.99783
 3.73-1.00 -1.911 -1.907 -1.900 -1.887 -1.868  9.66474 11.10890-12.48705
 3.73-0.50 -2.110 -2.104 -2.095 -2.079 -2.056  9.93907 11.61511-11.98088
 3.73 0.00 -2.280 -2.273 -2.261 -2.241 -2.213 10.21906 12.11893-11.47729
 3.73 0.50 -2.398 -2.389 -2.375 -2.350 -2.314 10.50651 12.62086-10.97510
 3.73 1.00 -2.425 -2.414 -2.398 -2.367 -2.325 10.80305 13.12222-10.47392
 3.73 1.25 -2.395 -2.384 -2.365 -2.333 -2.288 10.95598 13.37249-10.22344
 3.73 1.50 -2.336 -2.325 -2.305 -2.271 -2.224 11.11327 13.62273 -9.97306
 3.73 1.75 -2.248 -2.236 -2.217 -2.181 -2.133 11.27668 13.87298 -9.72287
 3.73 2.00 -2.138 -2.126 -2.105 -2.070 -2.022 11.44747 14.12320 -9.47276
 3.73 2.25 -2.005 -1.993 -1.973 -1.937 -1.888 11.62863 14.37335 -9.22270
 3.73 2.50 -1.857 -1.844 -1.824 -1.789 -1.740 11.82014 14.62346 -8.97265
 3.73 2.75 -1.689 -1.678 -1.658 -1.622 -1.574 12.02443 14.87349 -8.72251
 3.73 3.00 -1.510 -1.498 -1.478 -1.443 -1.395 12.23754 15.12353 -8.47237
 3.73 3.20 -1.355 -1.344 -1.323 -1.289 -1.242 12.41614 15.32357 -8.27232
 3.73 3.40 -1.194 -1.184 -1.164 -1.130 -1.084 12.59474 15.52363 -8.07227
 3.73 3.60 -1.028 -1.018 -0.999 -0.966 -0.920 12.77330 15.72369 -7.87222
 3.73 3.80 -0.858 -0.849 -0.831 -0.799 -0.755 12.95162 15.92377 -7.67217
 3.73 4.00 -0.688 -0.678 -0.661 -0.630 -0.587 13.12969 16.12385 -7.47211
 3.73 4.20 -0.516 -0.507 -0.492 -0.463 -0.422 13.30139 16.32396 -7.27203
 3.73 4.40 -0.347 -0.340 -0.325 -0.298 -0.259 13.46851 16.52410 -7.07191
 3.73 4.60 -0.182 -0.175 -0.162 -0.137 -0.100 13.63049 16.72427 -6.87173
 3.73 4.80 -0.020 -0.015 -0.003  0.019  0.053 13.78669 16.92452 -6.67144
 3.73 5.00  0.136  0.141  0.151  0.171  0.203 13.93747 17.12483 -6.47108
 3.73 5.20  0.284  0.288  0.297  0.315  0.343 14.08222 17.32527 -6.27067
 3.73 5.40  0.428  0.431  0.438  0.455  0.479 14.22212 17.52587 -6.07013
 3.73 5.60  0.563  0.566  0.572  0.586  0.609 14.35691 17.72666 -5.86942
 3.73 5.80  0.690  0.693  0.699  0.711  0.733 14.48794 17.92781 -5.66834
 3.73 6.00  0.813  0.816  0.821  0.833  0.852 14.61595 18.12937 -5.46686
 3.73 6.25  0.956  0.958  0.963  0.975  0.993 14.77192 18.38242 -5.21366
 3.73 6.50  1.092  1.094  1.099  1.109  1.127 14.92711 18.63719 -4.95861
 3.73 6.75  1.220  1.222  1.227  1.237  1.254 15.08183 18.89555 -4.70033
 3.73 7.00  1.340  1.342  1.346  1.357  1.372 15.23654 19.15776 -4.43830
 3.73 7.25  1.448  1.451  1.455  1.464  1.480 15.39459 19.42577 -4.17028
 3.73 7.50  1.543  1.546  1.550  1.559  1.574 15.55291 19.69775 -3.89825
 3.73 7.75  1.623  1.625  1.630  1.640  1.655 15.71132 19.97278 -3.62319
 3.73 8.00  1.690  1.691  1.696  1.706  1.720 15.86988 20.25115 -3.34477
 3.76-2.00 -1.039 -1.037 -1.033 -1.024 -1.010  9.45194  9.98349-13.61261
 3.76-1.50 -1.251 -1.248 -1.243 -1.233 -1.217  9.76358 10.52569-13.07033
 3.76-1.00 -1.464 -1.460 -1.454 -1.442 -1.424 10.05192 11.05346-12.54257
 3.76-0.50 -1.666 -1.661 -1.653 -1.640 -1.618 10.32818 11.57019-12.02581
 3.76 0.00 -1.844 -1.839 -1.829 -1.810 -1.784 10.60032 12.08027-11.51584
 3.76 0.50 -1.979 -1.970 -1.957 -1.934 -1.901 10.87373 12.58591-11.01015
 3.76 1.00 -2.034 -2.025 -2.009 -1.980 -1.940 11.15137 13.08920-10.50682
 3.76 1.25 -2.024 -2.014 -1.996 -1.965 -1.921 11.29255 13.34023-10.25573
 3.76 1.50 -1.987 -1.976 -1.957 -1.924 -1.878 11.43569 13.59107-10.00489
 3.76 1.75 -1.924 -1.913 -1.893 -1.859 -1.812 11.58101 13.84180 -9.75425
 3.76 2.00 -1.841 -1.829 -1.810 -1.775 -1.727 11.72933 14.09237 -9.50376
 3.76 2.25 -1.739 -1.727 -1.707 -1.672 -1.623 11.88191 14.34269 -9.25342
 3.76 2.50 -1.623 -1.612 -1.592 -1.556 -1.508 12.03981 14.59295 -9.00314
 3.76 2.75 -1.493 -1.481 -1.462 -1.426 -1.378 12.20520 14.84321 -8.75287
 3.76 3.00 -1.353 -1.341 -1.322 -1.286 -1.238 12.37912 15.09342 -8.50266
 3.76 3.20 -1.230 -1.219 -1.199 -1.164 -1.117 12.52669 15.29346 -8.30260
 3.76 3.40 -1.100 -1.089 -1.070 -1.036 -0.988 12.68078 15.49349 -8.10255
 3.76 3.60 -0.962 -0.952 -0.933 -0.898 -0.852 12.84279 15.69356 -7.90250
 3.76 3.80 -0.816 -0.806 -0.788 -0.754 -0.708 13.01035 15.89367 -7.70244
 3.76 4.00 -0.664 -0.655 -0.637 -0.604 -0.559 13.18127 16.09377 -7.50238
 3.76 4.20 -0.504 -0.495 -0.478 -0.447 -0.404 13.35540 16.29380 -7.30232
 3.76 4.40 -0.340 -0.331 -0.316 -0.287 -0.245 13.52952 16.49383 -7.10225
 3.76 4.60 -0.174 -0.166 -0.152 -0.124 -0.085 13.70217 16.69387 -6.90217
 3.76 4.80 -0.004  0.002  0.014  0.040  0.076 13.87086 16.89397 -6.70202
 3.76 5.00  0.163  0.169  0.179  0.202  0.237 14.03623 17.09412 -6.50183
 3.76 5.20  0.326  0.330  0.339  0.360  0.392 14.19567 17.29436 -6.30158
 3.76 5.40  0.485  0.489  0.498  0.516  0.544 14.34998 17.49472 -6.10125
 3.76 5.60  0.637  0.640  0.648  0.664  0.690 14.49870 17.69522 -5.90080
 3.76 5.80  0.780  0.783  0.789  0.804  0.828 14.64205 17.89594 -5.70012
 3.76 6.00  0.918  0.921  0.927  0.941  0.962 14.78053 18.09691 -5.49922
 3.76 6.25  1.074  1.077  1.082  1.095  1.117 14.94689 18.34861 -5.24750
 3.76 6.50  1.223  1.226  1.231  1.243  1.264 15.10823 18.60119 -4.99482
 3.76 6.75  1.362  1.365  1.371  1.382  1.402 15.26503 18.85579 -4.74014
 3.76 7.00  1.493  1.496  1.502  1.513  1.532 15.42012 19.11294 -4.48294
 3.76 7.25  1.613  1.616  1.622  1.632  1.651 15.57398 19.37462 -4.22137
 3.76 7.50  1.722  1.724  1.729  1.740  1.759 15.72762 19.64068 -3.95546
 3.76 7.75  1.815  1.817  1.822  1.833  1.851 15.88119 19.91182 -3.68433
 3.76 8.00  1.892  1.895  1.900  1.911  1.928 16.03463 20.18780 -3.40827
 3.79-2.00 -0.716 -0.714 -0.709 -0.701 -0.686  9.64924  9.85679-13.73921
 3.79-1.50 -0.862 -0.860 -0.855 -0.845 -0.830 10.03743 10.41313-13.18283
 3.79-1.00 -1.043 -1.040 -1.035 -1.023 -1.006 10.37639 10.96586-12.63023
 3.79-0.50 -1.230 -1.227 -1.220 -1.207 -1.187 10.68052 11.50406-12.09194
 3.79 0.00 -1.402 -1.397 -1.388 -1.373 -1.349 10.96459 12.02857-11.56735
 3.79 0.50 -1.536 -1.530 -1.519 -1.499 -1.468 11.23880 12.54332-11.05271
 3.79 1.00 -1.606 -1.598 -1.584 -1.558 -1.520 11.51001 13.05192-10.54409
 3.79 1.25 -1.609 -1.599 -1.585 -1.556 -1.516 11.64595 13.30473-10.29127
 3.79 1.50 -1.588 -1.579 -1.562 -1.531 -1.488 11.78233 13.55690-10.03910
 3.79 1.75 -1.545 -1.535 -1.517 -1.486 -1.441 11.91978 13.80864 -9.78740
 3.79 2.00 -1.482 -1.472 -1.454 -1.421 -1.374 12.05843 14.05994 -9.53611
 3.79 2.25 -1.401 -1.391 -1.372 -1.339 -1.292 12.19869 14.31078 -9.28520
 3.79 2.50 -1.308 -1.297 -1.279 -1.245 -1.198 12.34104 14.56146 -9.03452
 3.79 2.75 -1.203 -1.192 -1.174 -1.140 -1.092 12.48624 14.81208 -8.78399
 3.79 3.00 -1.089 -1.078 -1.059 -1.026 -0.979 12.63518 15.06258 -8.53358
 3.79 3.20 -0.990 -0.979 -0.961 -0.927 -0.880 12.75821 15.26277 -8.33332
 3.79 3.40 -0.886 -0.876 -0.858 -0.824 -0.777 12.88543 15.46294 -8.13310
 3.79 3.60 -0.775 -0.766 -0.748 -0.714 -0.668 13.01750 15.66308 -7.93294
 3.79 3.80 -0.659 -0.650 -0.632 -0.599 -0.552 13.15575 15.86321 -7.73280
 3.79 4.00 -0.536 -0.528 -0.510 -0.477 -0.432 13.29994 16.06333 -7.53269
 3.79 4.20 -0.404 -0.395 -0.379 -0.346 -0.303 13.45226 16.26345 -7.33261
 3.79 4.40 -0.266 -0.257 -0.241 -0.211 -0.168 13.60972 16.46355 -7.13254
 3.79 4.60 -0.120 -0.113 -0.097 -0.068 -0.027 13.77374 16.66362 -6.93246
 3.79 4.80  0.034  0.041  0.054  0.081  0.121 13.94048 16.86367 -6.73236
 3.79 5.00  0.191  0.197  0.208  0.233  0.271 14.10721 17.06371 -6.53224
 3.79 5.20  0.352  0.357  0.368  0.389  0.425 14.27307 17.26385 -6.33211
 3.79 5.40  0.514  0.517  0.527  0.547  0.580 14.43770 17.46406 -6.13194
 3.79 5.60  0.673  0.676  0.684  0.702  0.732 14.59923 17.66433 -5.93170
 3.79 5.80  0.826  0.830  0.837  0.854  0.881 14.75518 17.86471 -5.73131
 3.79 6.00  0.978  0.980  0.987  1.003  1.028 14.90661 18.06521 -5.53077
 3.79 6.25  1.149  1.151  1.158  1.173  1.197 15.08784 18.31619 -5.27980
 3.79 6.50  1.313  1.317  1.323  1.337  1.361 15.26174 18.56773 -5.02831
 3.79 6.75  1.467  1.470  1.476  1.490  1.513 15.42832 18.82035 -4.77570
 3.79 7.00  1.612  1.615  1.621  1.635  1.656 15.58973 19.07445 -4.52158
 3.79 7.25  1.746  1.748  1.754  1.767  1.788 15.74677 19.33131 -4.26471
 3.79 7.50  1.868  1.870  1.876  1.889  1.910 15.90097 19.59151 -4.00450
 3.79 7.75  1.976  1.979  1.984  1.997  2.016 16.05335 19.85711 -3.73887
 3.79 8.00  2.069  2.072  2.077  2.089  2.109 16.20358 20.12743 -3.46852
 3.82-2.00 -0.579 -0.577 -0.572 -0.562 -0.548  9.69854  9.77004-13.82594
 3.82-1.50 -0.621 -0.619 -0.614 -0.603 -0.587 10.16256 10.29776-13.29817
 3.82-1.00 -0.710 -0.707 -0.701 -0.691 -0.673 10.58456 10.84671-12.74934
 3.82-0.50 -0.839 -0.835 -0.830 -0.817 -0.799 10.95347 11.40381-12.19226
 3.82 0.00 -0.977 -0.973 -0.965 -0.951 -0.930 11.27784 11.95168-11.64436
 3.82 0.50 -1.092 -1.088 -1.079 -1.061 -1.035 11.57299 12.48444-11.11154
 3.82 1.00 -1.160 -1.153 -1.141 -1.119 -1.086 11.85230 13.00475-10.59108
 3.82 1.25 -1.168 -1.161 -1.148 -1.123 -1.087 11.98863 13.26170-10.33422
 3.82 1.50 -1.158 -1.150 -1.136 -1.109 -1.070 12.12418 13.51706-10.07894
 3.82 1.75 -1.129 -1.120 -1.105 -1.077 -1.036 12.25914 13.77103 -9.82493
 3.82 2.00 -1.083 -1.075 -1.059 -1.030 -0.987 12.39410 14.02408 -9.57187
 3.82 2.25 -1.021 -1.013 -0.997 -0.966 -0.923 12.52953 14.27646 -9.31955
 3.82 2.50 -0.947 -0.938 -0.921 -0.891 -0.847 12.66549 14.52828 -9.06778
 3.82 2.75 -0.860 -0.851 -0.835 -0.804 -0.760 12.80249 14.77959 -8.81645
 3.82 3.00 -0.765 -0.757 -0.740 -0.709 -0.665 12.94082 15.03060 -8.56543
 3.82 3.20 -0.683 -0.674 -0.658 -0.627 -0.582 13.05292 15.23126 -8.36479
 3.82 3.40 -0.597 -0.588 -0.571 -0.540 -0.497 13.16673 15.43178 -8.16426
 3.82 3.60 -0.505 -0.497 -0.480 -0.450 -0.405 13.28252 15.63212 -7.96383
 3.82 3.80 -0.409 -0.400 -0.384 -0.354 -0.309 13.40137 15.83237 -7.76348
 3.82 4.00 -0.309 -0.301 -0.285 -0.253 -0.210 13.52336 16.03262 -7.56320
 3.82 4.20 -0.201 -0.193 -0.178 -0.147 -0.104 13.64986 16.23288 -7.36303
 3.82 4.40 -0.089 -0.082 -0.067 -0.037  0.005 13.78123 16.43313 -7.16289
 3.82 4.60  0.030  0.037  0.052  0.080  0.122 13.91837 16.63330 -6.96278
 3.82 4.80  0.156  0.163  0.176  0.204  0.244 14.06166 16.83336 -6.76267
 3.82 5.00  0.289  0.295  0.307  0.333  0.371 14.21032 17.03342 -6.56257
 3.82 5.20  0.430  0.435  0.446  0.470  0.507 14.36629 17.23355 -6.36246
 3.82 5.40  0.574  0.580  0.590  0.611  0.646 14.52386 17.43369 -6.16234
 3.82 5.60  0.722  0.727  0.736  0.756  0.788 14.68304 17.63385 -5.96218
 3.82 5.80  0.872  0.876  0.883  0.903  0.933 14.84260 17.83402 -5.76194
 3.82 6.00  1.023  1.026  1.033  1.049  1.077 15.00217 18.03423 -5.56162
 3.82 6.25  1.198  1.201  1.208  1.225  1.252 15.19509 18.28478 -5.31111
 3.82 6.50  1.372  1.375  1.382  1.398  1.424 15.38238 18.53568 -5.06038
 3.82 6.75  1.536  1.539  1.546  1.561  1.587 15.56168 18.78713 -4.80899
 3.82 7.00  1.695  1.698  1.704  1.719  1.744 15.73424 19.03941 -4.55674
 3.82 7.25  1.842  1.845  1.852  1.865  1.890 15.89999 19.29322 -4.30288
 3.82 7.50  1.980  1.983  1.989  2.003  2.026 16.06032 19.54913 -4.04687
 3.82 7.75  2.103  2.106  2.112  2.126  2.148 16.21636 19.80929 -3.78669
 3.82 8.00  2.213  2.216  2.221  2.235  2.258 16.36773 20.07299 -3.52302
 3.85-2.00 -0.550 -0.548 -0.543 -0.533 -0.516  9.68503  9.72575-13.87031
 3.85-1.50 -0.543 -0.541 -0.535 -0.523 -0.506 10.17754 10.23249-13.36361
 3.85-1.00 -0.544 -0.541 -0.535 -0.523 -0.505 10.65581 10.75043-12.84558
 3.85-0.50 -0.567 -0.564 -0.558 -0.546 -0.526 11.10278 11.28847-12.30759
 3.85 0.00 -0.619 -0.617 -0.610 -0.597 -0.576 11.49982 11.84367-11.75227
 3.85 0.50 -0.682 -0.678 -0.669 -0.655 -0.630 11.84609 12.39794-11.19805
 3.85 1.00 -0.720 -0.715 -0.706 -0.687 -0.658 12.15503 12.93882-10.65718
 3.85 1.25 -0.724 -0.719 -0.708 -0.688 -0.656 12.30005 13.20361-10.39241
 3.85 1.50 -0.715 -0.709 -0.698 -0.675 -0.642 12.44122 13.46538-10.13065
 3.85 1.75 -0.693 -0.687 -0.674 -0.650 -0.614 12.57940 13.72446 -9.87160
 3.85 2.00 -0.658 -0.651 -0.638 -0.613 -0.576 12.71584 13.98150 -9.61457
 3.85 2.25 -0.611 -0.604 -0.590 -0.564 -0.526 12.85083 14.23684 -9.35920
 3.85 2.50 -0.552 -0.546 -0.531 -0.505 -0.466 12.98547 14.49094 -9.10507
 3.85 2.75 -0.484 -0.476 -0.462 -0.435 -0.396 13.11989 14.74408 -8.85200
 3.85 3.00 -0.407 -0.399 -0.385 -0.358 -0.318 13.25431 14.99647 -8.59964
 3.85 3.20 -0.338 -0.331 -0.317 -0.289 -0.250 13.36230 15.19791 -8.39814
 3.85 3.40 -0.266 -0.258 -0.245 -0.217 -0.176 13.47076 15.39907 -8.19693
 3.85 3.60 -0.189 -0.182 -0.167 -0.140 -0.100 13.57987 15.59997 -7.99600
 3.85 3.80 -0.107 -0.100 -0.086 -0.058 -0.019 13.69016 15.80070 -7.79525
 3.85 4.00 -0.023 -0.016 -0.002  0.025  0.065 13.80168 16.00130 -7.59465
 3.85 4.20  0.067  0.074  0.087  0.115  0.155 13.91520 16.20182 -7.39415
 3.85 4.40  0.161  0.167  0.181  0.208  0.248 14.03108 16.40225 -7.19373
 3.85 4.60  0.259  0.266  0.279  0.306  0.345 14.14963 16.60256 -6.99341
 3.85 4.80  0.364  0.371  0.383  0.409  0.447 14.27195 16.80281 -6.79315
 3.85 5.00  0.474  0.479  0.491  0.515  0.553 14.39811 17.00303 -6.59295
 3.85 5.20  0.590  0.595  0.606  0.630  0.666 14.52978 17.20324 -6.39281
 3.85 5.40  0.712  0.716  0.726  0.748  0.783 14.66626 17.40343 -6.19266
 3.85 5.60  0.837  0.842  0.851  0.872  0.905 14.80865 17.60359 -5.99250
 3.85 5.80  0.969  0.973  0.981  1.000  1.031 14.95537 17.80374 -5.79231
 3.85 6.00  1.104  1.107  1.115  1.132  1.162 15.10483 18.00389 -5.59210
 3.85 6.25  1.267  1.270  1.279  1.296  1.325 15.29506 18.25414 -5.34183
 3.85 6.50  1.434  1.437  1.444  1.461  1.490 15.48530 18.50447 -5.09152
 3.85 6.75  1.597  1.600  1.608  1.624  1.652 15.67170 18.75523 -4.84078
 3.85 7.00  1.760  1.763  1.770  1.786  1.813 15.85418 19.00647 -4.58956
 3.85 7.25  1.914  1.917  1.924  1.939  1.967 16.02949 19.25841 -4.33762
 3.85 7.50  2.063  2.066  2.073  2.088  2.114 16.19866 19.51148 -4.08455
 3.85 7.75  2.200  2.203  2.209  2.224  2.249 16.36161 19.76730 -3.82880
 3.85 8.00  2.326  2.330  2.336  2.350  2.375 16.51838 20.02531 -3.57089
 3.88-2.00 -0.551 -0.549 -0.544 -0.535 -0.520  9.65801  9.69302-13.90309
 3.88-1.50 -0.533 -0.530 -0.525 -0.512 -0.494 10.15655 10.19424-13.40165
 3.88-1.00 -0.505 -0.502 -0.495 -0.481 -0.461 10.65176 10.69862-12.89757
 3.88-0.50 -0.463 -0.460 -0.453 -0.439 -0.418 11.13799 11.21032-12.38563
 3.88 0.00 -0.414 -0.410 -0.403 -0.390 -0.368 11.60152 11.73870-11.85730
 3.88 0.50 -0.369 -0.367 -0.359 -0.345 -0.322 12.02202 12.28803-11.30812
 3.88 1.00 -0.335 -0.330 -0.322 -0.306 -0.281 12.39005 12.84504-10.75105
 3.88 1.25 -0.315 -0.311 -0.303 -0.285 -0.259 12.55609 13.12023-10.47581
 3.88 1.50 -0.292 -0.287 -0.278 -0.259 -0.231 12.71341 13.39252-10.20350
 3.88 1.75 -0.264 -0.258 -0.249 -0.229 -0.199 12.86338 13.66051 -9.93557
 3.88 2.00 -0.229 -0.223 -0.213 -0.193 -0.162 13.00817 13.92511 -9.67101
 3.88 2.25 -0.188 -0.183 -0.171 -0.150 -0.118 13.14875 14.18643 -9.40963
 3.88 2.50 -0.140 -0.134 -0.123 -0.101 -0.067 13.28668 14.44529 -9.15070
 3.88 2.75 -0.084 -0.079 -0.067 -0.045 -0.010 13.42257 14.70211 -8.89389
 3.88 3.00 -0.022 -0.016 -0.004  0.018  0.052 13.55739 14.95737 -8.63865
 3.88 3.20  0.032  0.038  0.050  0.073  0.108 13.66447 15.16060 -8.43543
 3.88 3.40  0.092  0.097  0.109  0.133  0.167 13.77156 15.36324 -8.23280
 3.88 3.60  0.155  0.161  0.173  0.197  0.232 13.87868 15.56534 -8.03072
 3.88 3.80  0.223  0.229  0.241  0.265  0.300 13.98597 15.76707 -7.82901
 3.88 4.00  0.295  0.301  0.312  0.336  0.372 14.09342 15.96844 -7.62764
 3.88 4.20  0.372  0.377  0.389  0.413  0.448 14.20156 16.16949 -7.42654
 3.88 4.40  0.451  0.457  0.468  0.491  0.528 14.31052 16.37035 -7.22565
 3.88 4.60  0.535  0.541  0.551  0.575  0.611 14.42055 16.57104 -7.02497
 3.88 4.80  0.623  0.628  0.640  0.662  0.699 14.53242 16.77164 -6.82441
 3.88 5.00  0.715  0.720  0.730  0.753  0.788 14.64611 16.97211 -6.62397
 3.88 5.20  0.812  0.817  0.827  0.849  0.883 14.76247 17.17248 -6.42362
 3.88 5.40  0.914  0.918  0.927  0.948  0.982 14.88186 17.37278 -6.22333
 3.88 5.60  1.020  1.023  1.032  1.052  1.084 15.00481 17.57300 -6.02310
 3.88 5.80  1.130  1.133  1.141  1.161  1.193 15.13200 17.77319 -5.82289
 3.88 6.00  1.245  1.248  1.256  1.273  1.303 15.26316 17.97336 -5.62269
 3.88 6.25  1.388  1.391  1.398  1.416  1.445 15.43405 18.22357 -5.37246
 3.88 6.50  1.536  1.539  1.546  1.562  1.592 15.60949 18.47378 -5.12223
 3.88 6.75  1.685  1.688  1.696  1.712  1.742 15.78969 18.72416 -4.87182
 3.88 7.00  1.837  1.841  1.848  1.865  1.894 15.96988 18.97474 -4.62124
 3.88 7.25  1.989  1.992  2.000  2.016  2.044 16.14796 19.22561 -4.37037
 3.88 7.50  2.139  2.142  2.149  2.165  2.193 16.32346 19.47698 -4.11902
 3.88 7.75  2.282  2.285  2.292  2.307  2.334 16.49240 19.72972 -3.86627
 3.88 8.00  2.419  2.422  2.428  2.444  2.470 16.65610 19.98354 -3.61243
 3.91-2.00 -0.558 -0.556 -0.552 -0.544 -0.530  9.62859  9.66247-13.93367
 3.91-1.50 -0.540 -0.538 -0.533 -0.521 -0.505 10.12840 10.16286-13.43321
 3.91-1.00 -0.508 -0.505 -0.498 -0.485 -0.464 10.62726 10.66380-12.93219
 3.91-0.50 -0.451 -0.447 -0.441 -0.426 -0.401 11.12418 11.16643-12.42946
 3.91 0.00 -0.358 -0.354 -0.347 -0.331 -0.306 11.61469 11.67486-11.92118
 3.91 0.50 -0.227 -0.223 -0.215 -0.200 -0.176 12.08849 12.19618-11.39979
 3.91 1.00 -0.078 -0.074 -0.066 -0.050 -0.026 12.52634 12.73862-10.85730
 3.91 1.25 -0.008 -0.004  0.004  0.019  0.043 12.72582 13.01687-10.57908
 3.91 1.50  0.056  0.060  0.068  0.084  0.109 12.91276 13.29513-10.30086
 3.91 1.75  0.114  0.117  0.125  0.142  0.167 13.08649 13.57208-10.02392
 3.91 2.00  0.168  0.171  0.180  0.197  0.223 13.25018 13.84739 -9.74861
 3.91 2.25  0.218  0.222  0.230  0.248  0.275 13.40503 14.11798 -9.47801
 3.91 2.50  0.268  0.272  0.281  0.299  0.326 13.55352 14.38507 -9.21091
 3.91 2.75  0.319  0.324  0.332  0.350  0.380 13.69680 14.64863 -8.94744
 3.91 3.00  0.373  0.378  0.387  0.406  0.435 13.83658 14.90934 -8.68677
 3.91 3.20  0.419  0.424  0.433  0.452  0.481 13.94627 15.11597 -8.48003
 3.91 3.40  0.467  0.473  0.482  0.502  0.531 14.05494 15.32144 -8.27450
 3.91 3.60  0.520  0.525  0.535  0.554  0.584 14.16261 15.52583 -8.07014
 3.91 3.80  0.576  0.581  0.590  0.610  0.641 14.26982 15.72946 -7.86658
 3.91 4.00  0.635  0.640  0.649  0.669  0.700 14.37676 15.93237 -7.66374
 3.91 4.20  0.697  0.702  0.712  0.733  0.764 14.48348 16.13465 -7.46145
 3.91 4.40  0.765  0.769  0.779  0.799  0.831 14.59019 16.33651 -7.25956
 3.91 4.60  0.834  0.839  0.849  0.869  0.901 14.69712 16.53797 -7.05804
 3.91 4.80  0.909  0.913  0.923  0.942  0.974 14.80470 16.73917 -6.85679
 3.91 5.00  0.986  0.990  0.999  1.020  1.051 14.91286 16.94012 -6.65580
 3.91 5.20  1.068  1.072  1.081  1.100  1.132 15.02223 17.14084 -6.45511
 3.91 5.40  1.154  1.158  1.166  1.186  1.217 15.13301 17.34144 -6.25453
 3.91 5.60  1.243  1.247  1.255  1.274  1.305 15.24545 17.54194 -6.05404
 3.91 5.80  1.338  1.341  1.349  1.367  1.396 15.36030 17.74236 -5.85361
 3.91 6.00  1.436  1.439  1.445  1.462  1.491 15.47756 17.94270 -5.65326
 3.91 6.25  1.559  1.562  1.569  1.586  1.614 15.62883 18.19298 -5.40300
 3.91 6.50  1.687  1.690  1.697  1.712  1.741 15.78505 18.44327 -5.15274
 3.91 6.75  1.817  1.820  1.827  1.843  1.872 15.94725 18.69355 -4.90243
 3.91 7.00  1.951  1.955  1.962  1.979  2.007 16.11327 18.94384 -4.65209
 3.91 7.25  2.090  2.094  2.101  2.117  2.145 16.28345 19.19425 -4.40171
 3.91 7.50  2.231  2.234  2.241  2.257  2.285 16.45362 19.44483 -4.15126
 3.91 7.75  2.370  2.373  2.380  2.396  2.423 16.62186 19.69585 -3.90023
 3.91 8.00  2.508  2.511  2.517  2.533  2.559 16.78881 19.94724 -3.64878
 3.94-2.00 -0.562 -0.561 -0.558 -0.551 -0.539  9.59901  9.63215-13.96377
 3.94-1.50 -0.549 -0.547 -0.543 -0.533 -0.517 10.09864 10.13226-13.46369
 3.94-1.00 -0.523 -0.520 -0.514 -0.502 -0.481 10.59846 10.63266-12.96337
 3.94-0.50 -0.470 -0.466 -0.459 -0.444 -0.419 11.09760 11.13322-12.46268
 3.94 0.00 -0.372 -0.368 -0.359 -0.343 -0.316 11.59528 11.63538-11.96059
 3.94 0.50 -0.213 -0.209 -0.201 -0.183 -0.155 12.08814 12.14145-11.45445
 3.94 1.00  0.008  0.012  0.020  0.037  0.064 12.56832 12.65839-10.93779
 3.94 1.25  0.132  0.135  0.144  0.160  0.187 12.79796 12.92426-10.67192
 3.94 1.50  0.256  0.260  0.267  0.284  0.310 13.01828 13.19479-10.40132
 3.94 1.75  0.370  0.374  0.382  0.397  0.422 13.22520 13.47181-10.12414
 3.94 2.00  0.471  0.475  0.483  0.498  0.522 13.41963 13.74912 -9.84680
 3.94 2.25  0.556  0.559  0.567  0.583  0.607 13.60012 14.02659 -9.56936
 3.94 2.50  0.630  0.633  0.641  0.656  0.681 13.76960 14.30406 -9.29192
 3.94 2.75  0.693  0.697  0.705  0.720  0.745 13.92900 14.57682 -9.01917
 3.94 3.00  0.753  0.757  0.764  0.780  0.805 14.08099 14.84615 -8.74982
 3.94 3.20  0.798  0.801  0.809  0.826  0.850 14.19790 15.05863 -8.53736
 3.94 3.40  0.842  0.847  0.854  0.870  0.896 14.31215 15.26913 -8.32686
 3.94 3.60  0.887  0.892  0.900  0.916  0.942 14.42390 15.47770 -8.11832
 3.94 3.80  0.935  0.939  0.947  0.964  0.990 14.53411 15.68480 -7.91125
 3.94 4.00  0.985  0.988  0.996  1.013  1.040 14.64296 15.89053 -7.70553
 3.94 4.20  1.036  1.039  1.047  1.065  1.093 14.75062 16.09508 -7.50096
 3.94 4.40  1.090  1.094  1.102  1.119  1.148 14.85780 16.29881 -7.29722
 3.94 4.60  1.148  1.152  1.160  1.178  1.206 14.96448 16.50178 -7.09427
 3.94 4.80  1.209  1.213  1.221  1.238  1.267 15.07101 16.70423 -6.89187
 3.94 5.00  1.274  1.277  1.285  1.303  1.332 15.17754 16.90617 -6.68995
 3.94 5.20  1.342  1.345  1.353  1.372  1.401 15.28437 17.10768 -6.48841
 3.94 5.40  1.414  1.418  1.425  1.442  1.471 15.39156 17.30891 -6.28715
 3.94 5.60  1.490  1.494  1.501  1.518  1.547 15.49938 17.50990 -6.08614
 3.94 5.80  1.571  1.574  1.581  1.598  1.625 15.60841 17.71072 -5.88531
 3.94 6.00  1.655  1.658  1.664  1.680  1.707 15.71859 17.91137 -5.68466
 3.94 6.25  1.762  1.764  1.770  1.786  1.813 15.85888 18.16199 -5.43407
 3.94 6.50  1.873  1.875  1.882  1.897  1.924 16.00217 18.41246 -5.18363
 3.94 6.75  1.985  1.988  1.995  2.010  2.037 16.14929 18.66282 -4.93330
 3.94 7.00  2.102  2.105  2.112  2.128  2.155 16.30016 18.91313 -4.68298
 3.94 7.25  2.225  2.227  2.234  2.250  2.277 16.45561 19.16338 -4.43268
 3.94 7.50  2.352  2.354  2.360  2.377  2.404 16.61374 19.41364 -4.18237
 3.94 7.75  2.480  2.483  2.490  2.504  2.531 16.77358 19.66402 -3.93197
 3.94 8.00  2.610  2.614  2.620  2.635  2.661 16.93546 19.91450 -3.68152
 3.97-2.00 -0.560 -0.559 -0.556 -0.549 -0.539  9.57078  9.60054-13.99568
 3.97-1.50 -0.553 -0.552 -0.548 -0.539 -0.526 10.06930 10.10175-13.49444
 3.97-1.00 -0.535 -0.532 -0.527 -0.516 -0.498 10.56879 10.60228-12.99354
 3.97-0.50 -0.493 -0.490 -0.484 -0.469 -0.447 11.06819 11.10278-12.49336
 3.97 0.00 -0.408 -0.405 -0.396 -0.378 -0.351 11.56761 11.60336-11.99268
 3.97 0.50 -0.253 -0.249 -0.240 -0.220 -0.190 12.06558 12.10517-11.49093
 3.97 1.00 -0.016 -0.012 -0.002  0.018  0.049 12.56003 12.61013-10.98590
 3.97 1.25  0.130  0.135  0.145  0.164  0.194 12.80363 12.86565-10.73043
 3.97 1.50  0.293  0.297  0.306  0.325  0.354 13.04336 13.12418-10.47198
 3.97 1.75  0.458  0.461  0.470  0.488  0.516 13.27637 13.38775-10.20838
 3.97 2.00  0.617  0.621  0.630  0.646  0.673 13.50120 13.65600 -9.94006
 3.97 2.25  0.760  0.764  0.771  0.788  0.814 13.71342 13.93088 -9.66516
 3.97 2.50  0.885  0.888  0.895  0.911  0.936 13.91344 14.20763 -9.38838
 3.97 2.75  0.987  0.990  0.997  1.013  1.036 14.09915 14.48576 -9.11024
 3.97 3.00  1.072  1.076  1.083  1.099  1.122 14.27323 14.76388 -8.83209
 3.97 3.20  1.131  1.134  1.141  1.156  1.180 14.40434 14.98337 -8.61259
 3.97 3.40  1.184  1.187  1.194  1.209  1.233 14.53026 15.20082 -8.39514
 3.97 3.60  1.233  1.236  1.243  1.258  1.282 14.65114 15.41588 -8.18010
 3.97 3.80  1.279  1.282  1.289  1.304  1.329 14.76856 15.62853 -7.96750
 3.97 4.00  1.324  1.328  1.335  1.350  1.375 14.88292 15.83910 -7.75696
 3.97 4.20  1.370  1.373  1.380  1.395  1.421 14.99476 16.04766 -7.54840
 3.97 4.40  1.416  1.420  1.427  1.442  1.467 15.10502 16.25475 -7.34130
 3.97 4.60  1.465  1.468  1.475  1.490  1.516 15.21378 16.46043 -7.13562
 3.97 4.80  1.516  1.518  1.526  1.541  1.567 15.32170 16.66510 -6.93096
 3.97 5.00  1.569  1.572  1.579  1.595  1.621 15.42895 16.86882 -6.72723
 3.97 5.20  1.625  1.628  1.635  1.651  1.677 15.53553 17.07173 -6.52426
 3.97 5.40  1.686  1.689  1.696  1.711  1.737 15.64211 17.27412 -6.32184
 3.97 5.60  1.750  1.752  1.759  1.775  1.800 15.74874 17.47604 -6.11994
 3.97 5.80  1.817  1.820  1.826  1.842  1.867 15.85563 17.67765 -5.91839
 3.97 6.00  1.888  1.891  1.897  1.911  1.937 15.96275 17.87892 -5.71715
 3.97 6.25  1.980  1.983  1.989  2.003  2.028 16.09790 18.13006 -5.46595
 3.97 6.50  2.077  2.079  2.085  2.099  2.124 16.23452 18.38094 -5.21503
 3.97 6.75  2.174  2.176  2.182  2.197  2.221 16.37351 18.63167 -4.96432
 3.97 7.00  2.276  2.278  2.284  2.298  2.324 16.51495 18.88224 -4.71377
 3.97 7.25  2.382  2.385  2.391  2.405  2.431 16.65936 19.13260 -4.46338
 3.97 7.50  2.493  2.495  2.502  2.516  2.542 16.80652 19.38292 -4.21304
 3.97 7.75  2.607  2.610  2.615  2.630  2.655 16.95636 19.63322 -3.96272
 3.97 8.00  2.726  2.727  2.734  2.747  2.772 17.10890 19.88349 -3.71242
 4.00-2.00 -0.543 -0.541 -0.539 -0.532 -0.522  9.55084  9.56691-14.02909
 4.00-1.50 -0.546 -0.544 -0.541 -0.533 -0.520 10.04532 10.07225-13.52389
 4.00-1.00 -0.538 -0.536 -0.531 -0.521 -0.504 10.54170 10.57553-13.02050
 4.00-0.50 -0.510 -0.507 -0.501 -0.488 -0.467 11.04021 11.07700-12.51913
 4.00 0.00 -0.444 -0.441 -0.433 -0.415 -0.389 11.53933 11.57761-12.01836
 4.00 0.50 -0.310 -0.306 -0.296 -0.276 -0.245 12.03862 12.07846-11.51770
 4.00 1.00 -0.084 -0.080 -0.068 -0.046 -0.012 12.53681 12.57990-11.01610
 4.00 1.25  0.064  0.068  0.079  0.102  0.137 12.78491 12.83152-10.76438
 4.00 1.50  0.235  0.240  0.251  0.273  0.308 13.03181 13.08422-10.51159
 4.00 1.75  0.420  0.425  0.435  0.457  0.492 13.27631 13.33914-10.25671
 4.00 2.00  0.615  0.619  0.629  0.650  0.683 13.51746 13.59682 -9.99913
 4.00 2.25  0.804  0.809  0.819  0.839  0.868 13.75233 13.85902 -9.73689
 4.00 2.50  0.985  0.988  0.997  1.016  1.045 13.97959 14.12581 -9.47006
 4.00 2.75  1.144  1.146  1.155  1.172  1.200 14.19504 14.39945 -9.19661
 4.00 3.00  1.280  1.283  1.291  1.308  1.334 14.39863 14.67569 -8.92046
 4.00 3.20  1.371  1.374  1.382  1.397  1.422 14.55094 14.89841 -8.69768
 4.00 3.40  1.450  1.453  1.460  1.475  1.500 14.69561 15.12113 -8.47490
 4.00 3.60  1.517  1.520  1.527  1.541  1.566 14.83237 15.34286 -8.25315
 4.00 3.80  1.576  1.578  1.585  1.600  1.623 14.96284 15.56217 -8.03384
 4.00 4.00  1.628  1.632  1.638  1.653  1.676 15.08778 15.77960 -7.81645
 4.00 4.20  1.677  1.680  1.685  1.700  1.724 15.20794 15.99397 -7.60203
 4.00 4.40  1.722  1.725  1.732  1.746  1.770 15.32481 16.20622 -7.38975
 4.00 4.60  1.767  1.770  1.776  1.791  1.815 15.43855 16.41634 -7.17965
 4.00 4.80  1.812  1.815  1.822  1.836  1.859 15.55027 16.62476 -6.97129
 4.00 5.00  1.859  1.862  1.868  1.882  1.905 15.66020 16.83161 -6.76447
 4.00 5.20  1.907  1.910  1.916  1.930  1.954 15.76862 17.03706 -6.55898
 4.00 5.40  1.957  1.960  1.966  1.980  2.003 15.87628 17.24154 -6.35447
 4.00 5.60  2.011  2.013  2.019  2.033  2.056 15.98310 17.44511 -6.15092
 4.00 5.80  2.068  2.070  2.076  2.089  2.112 16.08964 17.64806 -5.94802
 4.00 6.00  2.128  2.130  2.135  2.148  2.171 16.19618 17.85040 -5.74569
 4.00 6.25  2.206  2.208  2.213  2.226  2.248 16.32948 18.10261 -5.49337
 4.00 6.50  2.289  2.291  2.296  2.308  2.331 16.46300 18.35430 -5.24162
 4.00 6.75  2.372  2.374  2.379  2.392  2.415 16.59781 18.60564 -4.99040
 4.00 7.00  2.461  2.463  2.468  2.481  2.504 16.73392 18.85667 -4.73945
 4.00 7.25  2.555  2.556  2.562  2.575  2.598 16.87191 19.10738 -4.48868
 4.00 7.50  2.652  2.655  2.660  2.673  2.696 17.01199 19.35793 -4.23807
 4.00 7.75  2.756  2.757  2.763  2.775  2.799 17.15482 19.60841 -3.98762
 4.00 8.00  2.863  2.865  2.870  2.883  2.905 17.30016 19.85878 -3.73731
 4.05-2.00 -0.516 -0.515 -0.511 -0.503 -0.491  9.51014  9.50772-14.08826
 4.05-1.50 -0.514 -0.512 -0.508 -0.500 -0.485 10.00860 10.00903-13.58687
 4.05-1.00 -0.510 -0.508 -0.505 -0.494 -0.478 10.50569 10.51215-13.08381
 4.05-0.50 -0.503 -0.500 -0.495 -0.483 -0.463 11.00043 11.01745-12.57873
 4.05 0.00 -0.475 -0.471 -0.464 -0.449 -0.424 11.49485 11.52257-12.07340
 4.05 0.50 -0.394 -0.390 -0.381 -0.361 -0.330 11.99127 12.02572-11.57025
 4.05 1.00 -0.224 -0.219 -0.207 -0.184 -0.146 12.48968 12.52737-11.06859
 4.05 1.25 -0.096 -0.090 -0.079 -0.052 -0.012 12.73899 12.77797-10.81805
 4.05 1.50  0.060  0.066  0.079  0.105  0.148 12.98829 13.02857-10.56751
 4.05 1.75  0.243  0.249  0.262  0.289  0.332 13.23729 13.27950-10.31659
 4.05 2.00  0.447  0.453  0.466  0.494  0.537 13.48586 13.53084-10.06520
 4.05 2.25  0.663  0.669  0.681  0.709  0.750 13.73329 13.78308 -9.81289
 4.05 2.50  0.883  0.890  0.901  0.928  0.969 13.97914 14.03663 -9.55925
 4.05 2.75  1.102  1.107  1.118  1.143  1.181 14.22190 14.29295 -9.30297
 4.05 3.00  1.314  1.318  1.329  1.351  1.388 14.46045 14.55255 -9.04345
 4.05 3.20  1.470  1.475  1.484  1.505  1.539 14.64585 14.76411 -8.83183
 4.05 3.40  1.616  1.621  1.629  1.648  1.681 14.82559 14.97867 -8.61721
 4.05 3.60  1.747  1.750  1.759  1.776  1.806 14.99846 15.19746 -8.39839
 4.05 3.80  1.861  1.863  1.871  1.887  1.915 15.16282 15.41868 -8.17720
 4.05 4.00  1.959  1.962  1.969  1.984  2.010 15.31931 15.64048 -7.95546
 4.05 4.20  2.042  2.044  2.050  2.066  2.090 15.46646 15.86265 -7.73337
 4.05 4.40  2.113  2.115  2.122  2.135  2.160 15.60645 16.08482 -7.51127
 4.05 4.60  2.175  2.178  2.183  2.197  2.220 15.73919 16.30558 -7.29052
 4.05 4.80  2.230  2.233  2.237  2.250  2.273 15.86639 16.52333 -7.07269
 4.05 5.00  2.280  2.283  2.288  2.300  2.321 15.98874 16.73894 -6.85699
 4.05 5.20  2.327  2.329  2.334  2.346  2.367 16.10695 16.95182 -6.64410
 4.05 5.40  2.373  2.375  2.380  2.391  2.411 16.22234 17.16271 -6.43323
 4.05 5.60  2.419  2.421  2.425  2.436  2.456 16.33501 17.37164 -6.22437
 4.05 5.80  2.465  2.467  2.471  2.482  2.500 16.44600 17.57904 -6.01704
 4.05 6.00  2.513  2.515  2.518  2.528  2.546 16.55558 17.78505 -5.81107
 4.05 6.25  2.574  2.576  2.579  2.589  2.607 16.69097 18.04085 -5.55516
 4.05 6.50  2.640  2.641  2.645  2.654  2.671 16.82562 18.29535 -5.30060
 4.05 6.75  2.706  2.707  2.711  2.720  2.737 16.95970 18.54886 -5.04715
 4.05 7.00  2.776  2.778  2.781  2.791  2.808 17.09377 18.80154 -4.79453
 4.05 7.25  2.852  2.855  2.858  2.867  2.885 17.22859 19.05346 -4.54258
 4.05 7.50  2.936  2.937  2.941  2.950  2.967 17.36418 19.30492 -4.29107
 4.05 7.75  3.023  3.025  3.029  3.038  3.055 17.50114 19.55612 -4.03982
 4.05 8.00  3.116  3.118  3.122  3.131  3.147 17.63929 19.80699 -3.78888
 4.10-2.00 -0.498 -0.497 -0.492 -0.480 -0.461  9.46090  9.45697-14.13900
 4.10-1.50 -0.493 -0.492 -0.486 -0.474 -0.454  9.96066  9.95713-13.63884
 4.10-1.00 -0.488 -0.485 -0.480 -0.467 -0.446 10.46045 10.45743-13.13859
 4.10-0.50 -0.478 -0.475 -0.469 -0.455 -0.432 10.95961 10.95813-12.63790
 4.10 0.00 -0.457 -0.454 -0.447 -0.431 -0.404 11.45788 11.46000-12.13596
 4.10 0.50 -0.410 -0.405 -0.397 -0.378 -0.347 11.95386 11.96388-11.63209
 4.10 1.00 -0.304 -0.299 -0.289 -0.266 -0.227 12.44809 12.46953-11.12650
 4.10 1.25 -0.216 -0.211 -0.199 -0.173 -0.131 12.69540 12.72204-10.87400
 4.10 1.50 -0.101 -0.095 -0.082 -0.054 -0.008 12.94295 12.97424-10.62178
 4.10 1.75  0.046  0.052  0.066  0.097  0.146 13.19133 13.22583-10.37019
 4.10 2.00  0.222  0.229  0.243  0.275  0.325 13.43996 13.47712-10.11890
 4.10 2.25  0.424  0.430  0.444  0.478  0.529 13.68882 13.72813 -9.86790
 4.10 2.50  0.643  0.650  0.664  0.696  0.747 13.93767 13.97914 -9.61690
 4.10 2.75  0.874  0.880  0.894  0.925  0.975 14.18604 14.23063 -9.36541
 4.10 3.00  1.110  1.116  1.129  1.158  1.206 14.43377 14.48273 -9.11328
 4.10 3.20  1.296  1.301  1.313  1.341  1.386 14.63068 14.68546 -8.91057
 4.10 3.40  1.480  1.484  1.496  1.521  1.564 14.82604 14.88946 -8.70661
 4.10 3.60  1.657  1.661  1.671  1.695  1.735 15.01940 15.09518 -8.50090
 4.10 3.80  1.825  1.829  1.838  1.859  1.896 15.20908 15.30362 -8.29243
 4.10 4.00  1.984  1.987  1.996  2.016  2.049 15.39498 15.51468 -8.08134
 4.10 4.20  2.128  2.132  2.139  2.156  2.187 15.57423 15.73014 -7.86594
 4.10 4.40  2.258  2.261  2.267  2.283  2.310 15.74670 15.94811 -7.64798
 4.10 4.60  2.372  2.375  2.380  2.394  2.419 15.91124 16.16927 -7.42678
 4.10 4.80  2.470  2.472  2.477  2.490  2.513 16.06708 16.39171 -7.20425
 4.10 5.00  2.555  2.556  2.561  2.573  2.594 16.21511 16.61416 -6.98172
 4.10 5.20  2.627  2.628  2.632  2.643  2.663 16.35481 16.83540 -6.76046
 4.10 5.40  2.691  2.692  2.696  2.706  2.724 16.48834 17.05541 -6.54049
 4.10 5.60  2.747  2.748  2.752  2.761  2.779 16.61571 17.27342 -6.32252
 4.10 5.80  2.799  2.801  2.804  2.812  2.828 16.73868 17.48871 -6.10724
 4.10 6.00  2.849  2.851  2.853  2.862  2.877 16.85782 17.70183 -5.89415
 4.10 6.25  2.909  2.910  2.912  2.920  2.934 17.00250 17.96493 -5.63106
 4.10 6.50  2.968  2.969  2.971  2.978  2.993 17.14395 18.22531 -5.37069
 4.10 6.75  3.028  3.029  3.031  3.038  3.052 17.28273 18.48339 -5.11262
 4.10 7.00  3.090  3.091  3.094  3.101  3.114 17.42029 18.73965 -4.85636
 4.10 7.25  3.156  3.157  3.160  3.167  3.181 17.55683 18.99436 -4.60166
 4.10 7.50  3.227  3.228  3.231  3.237  3.250 17.69337 19.24797 -4.34804
 4.10 7.75  3.304  3.305  3.308  3.314  3.326 17.83041 19.50086 -4.09517
 4.10 8.00  3.386  3.388  3.390  3.397  3.409 17.96778 19.75289 -3.84315
 4.15-2.00 -0.496 -0.494 -0.490 -0.479 -0.462  9.41095  9.40688-14.18916
 4.15-1.50 -0.481 -0.479 -0.474 -0.460 -0.438  9.91089  9.90687-13.68909
 4.15-1.00 -0.466 -0.464 -0.457 -0.441 -0.414 10.41078 10.40705-13.18903
 4.15-0.50 -0.452 -0.449 -0.442 -0.424 -0.395 10.91068 10.90709-12.68888
 4.15 0.00 -0.435 -0.432 -0.423 -0.404 -0.372 11.41044 11.40739-12.18863
 4.15 0.50 -0.401 -0.397 -0.389 -0.367 -0.331 11.90993 11.90784-11.68825
 4.15 1.00 -0.327 -0.323 -0.312 -0.288 -0.246 12.40858 12.40926-11.18675
 4.15 1.25 -0.264 -0.259 -0.247 -0.220 -0.176 12.65730 12.66054-10.93551
 4.15 1.50 -0.179 -0.174 -0.162 -0.132 -0.083 12.90553 12.91228-10.68382
 4.15 1.75 -0.068 -0.062 -0.049 -0.017  0.034 13.15299 13.16479-10.43122
 4.15 2.00  0.065  0.072  0.086  0.119  0.174 13.40019 13.41747-10.17849
 4.15 2.25  0.227  0.233  0.248  0.283  0.340 13.64720 13.67028 -9.92567
 4.15 2.50  0.410  0.416  0.431  0.466  0.523 13.89421 13.92309 -9.67285
 4.15 2.75  0.617  0.623  0.638  0.673  0.729 14.14195 14.17524 -9.42079
 4.15 3.00  0.837  0.844  0.859  0.891  0.947 14.38988 14.42716 -9.16890
 4.15 3.20  1.026  1.031  1.045  1.076  1.129 14.58834 14.62853 -8.96748
 4.15 3.40  1.217  1.222  1.236  1.265  1.314 14.78681 14.82991 -8.76606
 4.15 3.60  1.410  1.414  1.426  1.454  1.501 14.98503 15.03153 -8.56442
 4.15 3.80  1.602  1.606  1.617  1.643  1.686 15.18239 15.23395 -8.36203
 4.15 4.00  1.789  1.793  1.803  1.826  1.867 15.37894 15.43712 -8.15895
 4.15 4.20  1.970  1.974  1.982  2.004  2.041 15.57339 15.64191 -7.95413
 4.15 4.40  2.146  2.148  2.156  2.175  2.208 15.76522 15.84865 -7.74734
 4.15 4.60  2.312  2.314  2.321  2.338  2.368 15.95370 16.05805 -7.53792
 4.15 4.80  2.466  2.469  2.474  2.489  2.515 16.13671 16.27086 -7.32515
 4.15 5.00  2.608  2.610  2.615  2.628  2.651 16.31429 16.48657 -7.10947
 4.15 5.20  2.734  2.735  2.740  2.750  2.771 16.48349 16.70684 -6.88916
 4.15 5.40  2.844  2.845  2.849  2.858  2.877 16.64509 16.92785 -6.66814
 4.15 5.60  2.938  2.940  2.943  2.951  2.968 16.79831 17.14955 -6.44644
 4.15 5.80  3.021  3.022  3.025  3.032  3.047 16.94365 17.37142 -6.22459
 4.15 6.00  3.094  3.095  3.097  3.103  3.117 17.08207 17.59329 -6.00275
 4.15 6.25  3.172  3.173  3.175  3.181  3.193 17.24606 17.86644 -5.72962
 4.15 6.50  3.243  3.245  3.247  3.252  3.263 17.40278 18.13640 -5.45967
 4.15 6.75  3.309  3.311  3.312  3.318  3.329 17.55338 18.40240 -5.19364
 4.15 7.00  3.374  3.375  3.377  3.381  3.392 17.70001 18.66530 -4.93070
 4.15 7.25  3.439  3.440  3.442  3.447  3.457 17.84335 18.92537 -4.67063
 4.15 7.50  3.507  3.508  3.510  3.514  3.524 17.98525 19.18327 -4.41274
 4.15 7.75  3.579  3.580  3.582  3.587  3.595 18.12645 19.43954 -4.15648
 4.15 8.00  3.656  3.657  3.658  3.663  3.671 18.26670 19.69399 -3.90205
 4.20-2.00 -0.502 -0.502 -0.499 -0.493 -0.481  9.36097  9.35679-14.23920
 4.20-1.50 -0.491 -0.489 -0.486 -0.477 -0.461  9.86094  9.85679-13.73921
 4.20-1.00 -0.473 -0.471 -0.465 -0.453 -0.431 10.36097 10.35679-13.23913
 4.20-0.50 -0.449 -0.446 -0.439 -0.422 -0.393 10.86088 10.85691-12.73921
 4.20 0.00 -0.419 -0.415 -0.406 -0.385 -0.350 11.36078 11.35698-12.23905
 4.20 0.50 -0.382 -0.377 -0.367 -0.343 -0.301 11.86064 11.85709-11.73898
 4.20 1.00 -0.326 -0.321 -0.309 -0.281 -0.233 12.36040 12.35736-11.23860
 4.20 1.25 -0.282 -0.276 -0.263 -0.234 -0.183 12.61018 12.60758-10.98843
 4.20 1.50 -0.220 -0.215 -0.201 -0.169 -0.115 12.85986 12.85788-10.73826
 4.20 1.75 -0.137 -0.132 -0.117 -0.082 -0.024 13.10939 13.10836-10.48771
 4.20 2.00 -0.032 -0.025 -0.010  0.026  0.087 13.35870 13.35908-10.23687
 4.20 2.25  0.101  0.107  0.124  0.162  0.226 13.60751 13.61025 -9.98577
 4.20 2.50  0.254  0.261  0.277  0.316  0.381 13.85582 13.86189 -9.73424
 4.20 2.75  0.432  0.438  0.455  0.493  0.556 14.10343 14.11427 -9.48176
 4.20 3.00  0.623  0.630  0.645  0.681  0.742 14.35064 14.36698 -9.22900
 4.20 3.20  0.790  0.797  0.811  0.845  0.904 14.54807 14.56940 -9.02663
 4.20 3.40  0.964  0.969  0.983  1.015  1.070 14.74551 14.77182 -8.82426
 4.20 3.60  1.144  1.150  1.161  1.192  1.243 14.94311 14.97410 -8.62200
 4.20 3.80  1.332  1.336  1.348  1.375  1.424 15.14089 15.17625 -8.41984
 4.20 4.00  1.521  1.526  1.536  1.562  1.605 15.33866 15.37840 -8.21767
 4.20 4.20  1.714  1.719  1.727  1.750  1.792 15.53621 15.58064 -8.01542
 4.20 4.40  1.908  1.911  1.920  1.940  1.977 15.73344 15.78303 -7.81301
 4.20 4.60  2.098  2.101  2.108  2.127  2.160 15.92997 15.98602 -7.61000
 4.20 4.80  2.284  2.286  2.293  2.309  2.339 16.12469 16.19057 -7.40543
 4.20 5.00  2.464  2.465  2.471  2.485  2.513 16.31765 16.39655 -7.19942
 4.20 5.20  2.635  2.638  2.642  2.654  2.678 16.50685 16.60544 -6.99058
 4.20 5.40  2.797  2.799  2.804  2.813  2.833 16.69169 16.81704 -6.77903
 4.20 5.60  2.946  2.948  2.951  2.960  2.976 16.87110 17.03231 -6.56377
 4.20 5.80  3.081  3.081  3.084  3.092  3.106 17.04312 17.25059 -6.34547
 4.20 6.00  3.200  3.201  3.203  3.209  3.221 17.20817 17.47071 -6.12534
 4.20 6.25  3.326  3.326  3.328  3.333  3.345 17.40206 17.74821 -5.84788
 4.20 6.50  3.434  3.434  3.435  3.441  3.450 17.58478 18.02572 -5.57041
 4.20 6.75  3.525  3.525  3.527  3.531  3.540 17.75664 18.30046 -5.29565
 4.20 7.00  3.608  3.608  3.609  3.613  3.622 17.92049 18.57264 -5.02342
 4.20 7.25  3.685  3.685  3.687  3.690  3.698 18.07735 18.84067 -4.75529
 4.20 7.50  3.760  3.760  3.761  3.765  3.772 18.22994 19.10551 -4.49039
 4.20 7.75  3.835  3.836  3.837  3.840  3.847 18.37992 19.36759 -4.22839
 4.20 8.00  3.913  3.913  3.914  3.918  3.924 18.52673 19.62675 -3.96940
 4.25-2.00 -0.495 -0.493 -0.491 -0.485 -0.477  9.31112  9.30664-14.28937
 4.25-1.50 -0.488 -0.488 -0.485 -0.478 -0.466  9.81104  9.80672-13.78941
 4.25-1.00 -0.479 -0.477 -0.474 -0.465 -0.450 10.31091 10.30685-13.28921
 4.25-0.50 -0.461 -0.460 -0.455 -0.443 -0.423 10.81090 10.80686-12.78915
 4.25 0.00 -0.434 -0.431 -0.425 -0.409 -0.382 11.31091 11.30685-12.28912
 4.25 0.50 -0.394 -0.390 -0.382 -0.361 -0.324 11.81084 11.80693-11.78915
 4.25 1.00 -0.333 -0.328 -0.317 -0.289 -0.243 12.31069 12.30707-11.28895
 4.25 1.25 -0.292 -0.286 -0.275 -0.244 -0.192 12.56063 12.55713-11.03892
 4.25 1.50 -0.237 -0.231 -0.218 -0.183 -0.125 12.81057 12.80720-10.78888
 4.25 1.75 -0.171 -0.165 -0.150 -0.113 -0.050 13.06045 13.05732-10.53870
 4.25 2.00 -0.086 -0.079 -0.063 -0.023  0.045 13.31027 13.30750-10.28845
 4.25 2.25  0.017  0.024  0.041  0.083  0.155 13.56000 13.55776-10.03817
 4.25 2.50  0.140  0.148  0.166  0.209  0.285 13.80963 13.80814 -9.78781
 4.25 2.75  0.289  0.296  0.314  0.358  0.433 14.05911 14.05866 -9.53728
 4.25 3.00  0.456  0.462  0.480  0.522  0.595 14.30835 14.30942 -9.28651
 4.25 3.20  0.608  0.615  0.631  0.671  0.740 14.50735 14.51041 -9.08557
 4.25 3.40  0.768  0.774  0.789  0.826  0.890 14.70602 14.71173 -8.88432
 4.25 3.60  0.937  0.942  0.956  0.990  1.049 14.90429 14.91350 -8.68259
 4.25 3.80  1.112  1.118  1.130  1.161  1.215 15.10217 15.11565 -8.48043
 4.25 4.00  1.290  1.295  1.306  1.334  1.382 15.29973 15.31806 -8.27803
 4.25 4.20  1.475  1.479  1.489  1.513  1.558 15.49690 15.52066 -8.07545
 4.25 4.40  1.661  1.664  1.673  1.695  1.734 15.69393 15.72338 -7.87275
 4.25 4.60  1.850  1.854  1.861  1.881  1.916 15.89089 15.92615 -7.66997
 4.25 4.80  2.043  2.046  2.053  2.070  2.102 16.08775 16.12902 -7.46707
 4.25 5.00  2.235  2.238  2.244  2.260  2.288 16.28443 16.33204 -7.26400
 4.25 5.20  2.430  2.431  2.437  2.450  2.474 16.48018 16.53581 -7.06022
 4.25 5.40  2.618  2.620  2.624  2.635  2.656 16.67471 16.74056 -6.85549
 4.25 5.60  2.801  2.803  2.806  2.816  2.834 16.86738 16.94684 -6.64921
 4.25 5.80  2.977  2.978  2.982  2.990  3.004 17.05639 17.15572 -6.44031
 4.25 6.00  3.144  3.145  3.147  3.154  3.166 17.24180 17.36698 -6.22900
 4.25 6.25  3.332  3.332  3.334  3.339  3.349 17.46470 17.63644 -5.95952
 4.25 6.50  3.498  3.499  3.500  3.504  3.513 17.67779 17.90940 -5.68655
 4.25 6.75  3.639  3.641  3.641  3.645  3.652 17.87821 18.18620 -5.40978
 4.25 7.00  3.763  3.763  3.765  3.768  3.774 18.06782 18.46300 -5.13300
 4.25 7.25  3.870  3.870  3.871  3.873  3.879 18.24640 18.73819 -4.85785
 4.25 7.50  3.966  3.966  3.967  3.970  3.975 18.41697 19.01157 -4.58453
 4.25 7.75  4.056  4.056  4.057  4.059  4.064 18.58165 19.28094 -4.31515
 4.25 8.00  4.143  4.144  4.144  4.146  4.151 18.73973 19.54704 -4.04900
 4.30-2.00 -0.476 -0.475 -0.473 -0.467 -0.456  9.26293  9.25503-14.34104
 4.30-1.50 -0.471 -0.470 -0.467 -0.461 -0.447  9.76185  9.75587-13.84013
 4.30-1.00 -0.465 -0.463 -0.460 -0.451 -0.437 10.26150 10.25648-13.33961
 4.30-0.50 -0.454 -0.453 -0.449 -0.439 -0.421 10.76110 10.75664-12.83923
 4.30 0.00 -0.437 -0.435 -0.430 -0.418 -0.396 11.26103 11.25672-12.33923
 4.30 0.50 -0.407 -0.405 -0.399 -0.384 -0.356 11.76087 11.75686-11.83923
 4.30 1.00 -0.360 -0.357 -0.349 -0.328 -0.292 12.26079 12.25696-11.33904
 4.30 1.25 -0.326 -0.322 -0.312 -0.289 -0.247 12.51076 12.50699-11.08898
 4.30 1.50 -0.282 -0.278 -0.266 -0.239 -0.190 12.76072 12.75702-10.83893
 4.30 1.75 -0.223 -0.219 -0.206 -0.174 -0.119 13.01064 13.00710-10.58889
 4.30 2.00 -0.148 -0.142 -0.128 -0.091 -0.030 13.26055 13.25720-10.33885
 4.30 2.25 -0.056 -0.049 -0.034  0.006  0.075 13.51045 13.50729-10.08876
 4.30 2.50  0.056  0.063  0.080  0.125  0.201 13.76035 13.75740 -9.83863
 4.30 2.75  0.184  0.191  0.210  0.256  0.336 14.01023 14.00763 -9.58844
 4.30 3.00  0.331  0.338  0.357  0.404  0.486 14.26007 14.25792 -9.33819
 4.30 3.20  0.462  0.469  0.488  0.533  0.613 14.45978 14.45816 -9.13794
 4.30 3.40  0.604  0.610  0.627  0.671  0.748 14.65938 14.65845 -8.93762
 4.30 3.60  0.757  0.765  0.780  0.821  0.892 14.85889 14.85888 -8.73717
 4.30 3.80  0.923  0.929  0.943  0.979  1.044 15.05826 15.05960 -8.53647
 4.30 4.00  1.094  1.099  1.111  1.143  1.202 15.25744 15.26055 -8.33555
 4.30 4.20  1.275  1.280  1.290  1.319  1.371 15.45614 15.46177 -8.13432
 4.30 4.40  1.457  1.461  1.470  1.495  1.541 15.65444 15.66333 -7.93273
 4.30 4.60  1.643  1.646  1.655  1.676  1.716 15.85225 15.86540 -7.73066
 4.30 4.80  1.832  1.835  1.842  1.861  1.895 16.04958 16.06797 -7.52809
 4.30 5.00  2.020  2.023  2.029  2.045  2.075 16.24650 16.27091 -7.32514
 4.30 5.20  2.214  2.217  2.222  2.236  2.262 16.44317 16.47404 -7.12196
 4.30 5.40  2.408  2.410  2.414  2.426  2.449 16.63936 16.67755 -6.91838
 4.30 5.60  2.602  2.604  2.608  2.618  2.637 16.83510 16.88143 -6.71447
 4.30 5.80  2.797  2.798  2.801  2.809  2.826 17.02995 17.08599 -6.50992
 4.30 6.00  2.985  2.986  2.989  2.995  3.009 17.22375 17.29137 -6.30461
 4.30 6.25  3.215  3.215  3.217  3.223  3.234 17.46227 17.55097 -6.04507
 4.30 6.50  3.431  3.432  3.434  3.438  3.446 17.69592 17.81385 -5.78225
 4.30 6.75  3.629  3.630  3.632  3.635  3.642 17.92123 18.08206 -5.51405
 4.30 7.00  3.808  3.809  3.810  3.812  3.819 18.13767 18.35373 -5.24238
 4.30 7.25  3.963  3.963  3.964  3.967  3.971 18.34227 18.62941 -4.96669
 4.30 7.50  4.101  4.101  4.101  4.104  4.108 18.53681 18.90509 -4.69101
 4.30 7.75  4.220  4.220  4.220  4.222  4.226 18.72209 19.17960 -4.41648
 4.30 8.00  4.329  4.330  4.330  4.332  4.335 18.89785 19.45332 -4.14273
 4.35-2.00 -0.452 -0.451 -0.449 -0.444 -0.437  9.22505  9.19229-14.40373
 4.35-1.50 -0.448 -0.447 -0.445 -0.438 -0.427  9.72024  9.69723-13.89894
 4.35-1.00 -0.443 -0.442 -0.438 -0.430 -0.414 10.21564 10.20194-13.39405
 4.35-0.50 -0.433 -0.432 -0.428 -0.417 -0.397 10.71307 10.70467-12.89144
 4.35 0.00 -0.419 -0.417 -0.412 -0.400 -0.376 11.21192 11.20602-12.39019
 4.35 0.50 -0.396 -0.395 -0.389 -0.374 -0.347 11.71130 11.70646-11.88975
 4.35 1.00 -0.361 -0.359 -0.352 -0.335 -0.303 12.21112 12.20683-11.38923
 4.35 1.25 -0.335 -0.332 -0.325 -0.306 -0.271 12.46100 12.45686-11.13915
 4.35 1.50 -0.303 -0.301 -0.292 -0.270 -0.231 12.71088 12.70689-10.88907
 4.35 1.75 -0.261 -0.257 -0.248 -0.223 -0.179 12.96087 12.95699-10.63900
 4.35 2.00 -0.206 -0.202 -0.191 -0.163 -0.113 13.21085 13.20710-10.38892
 4.35 2.25 -0.134 -0.128 -0.116 -0.084 -0.028 13.46070 13.45716-10.13883
 4.35 2.50 -0.043 -0.037 -0.024  0.012  0.075 13.71054 13.70723 -9.88874
 4.35 2.75  0.069  0.076  0.091  0.131  0.201 13.96043 13.95730 -9.63867
 4.35 3.00  0.203  0.210  0.226  0.269  0.344 14.21032 14.20737 -9.38860
 4.35 3.20  0.325  0.331  0.348  0.391  0.469 14.41022 14.40748 -9.18853
 4.35 3.40  0.458  0.465  0.482  0.525  0.604 14.61010 14.60765 -8.98845
 4.35 3.60  0.604  0.610  0.627  0.668  0.745 14.80996 14.80785 -8.78829
 4.35 3.80  0.760  0.766  0.780  0.819  0.891 15.00977 15.00811 -8.58801
 4.35 4.00  0.923  0.928  0.942  0.978  1.045 15.20952 15.20844 -8.38764
 4.35 4.20  1.095  1.100  1.112  1.145  1.205 15.40907 15.40885 -8.18723
 4.35 4.40  1.271  1.276  1.286  1.315  1.370 15.60845 15.60938 -7.98670
 4.35 4.60  1.454  1.459  1.468  1.493  1.540 15.80770 15.81009 -7.78598
 4.35 4.80  1.642  1.646  1.654  1.675  1.716 16.00673 16.01112 -7.58491
 4.35 5.00  1.831  1.833  1.840  1.858  1.892 16.20547 16.21245 -7.38352
 4.35 5.20  2.027  2.030  2.035  2.050  2.079 16.40353 16.41430 -7.18172
 4.35 5.40  2.221  2.223  2.228  2.241  2.266 16.60103 16.61664 -6.97944
 4.35 5.60  2.417  2.418  2.422  2.433  2.453 16.79802 16.81952 -6.77659
 4.35 5.80  2.612  2.614  2.617  2.626  2.643 16.99439 17.02301 -6.57309
 4.35 6.00  2.807  2.808  2.810  2.818  2.832 17.19005 17.22712 -6.36896
 4.35 6.25  3.054  3.055  3.056  3.062  3.074 17.43348 17.48302 -6.11307
 4.35 6.50  3.293  3.293  3.295  3.299  3.308 17.67495 17.74036 -5.85574
 4.35 6.75  3.527  3.528  3.529  3.532  3.539 17.91308 18.00027 -5.59573
 4.35 7.00  3.748  3.748  3.750  3.752  3.758 18.14675 18.26316 -5.33273
 4.35 7.25  3.953  3.953  3.954  3.956  3.961 18.37267 18.53089 -5.06509
 4.35 7.50  4.139  4.139  4.141  4.142  4.146 18.59051 18.80182 -4.79426
 4.35 7.75  4.302  4.302  4.303  4.304  4.307 18.79807 19.07517 -4.52093
 4.35 8.00  4.450  4.450  4.451  4.451  4.455 18.99607 19.35122 -4.24489
 4.40-2.00 -0.444 -0.444 -0.442 -0.440 -0.433  9.17927  9.13735-14.45855
 4.40-1.50 -0.438 -0.437 -0.435 -0.431 -0.423  9.67879  9.63799-13.95821
 4.40-1.00 -0.428 -0.427 -0.424 -0.419 -0.408 10.17754 10.13956-13.45655
 4.40-0.50 -0.415 -0.414 -0.410 -0.403 -0.387 10.67449 10.64266-12.95351
 4.40 0.00 -0.399 -0.398 -0.393 -0.382 -0.361 11.16967 11.14768-12.44818
 4.40 0.50 -0.376 -0.374 -0.368 -0.353 -0.326 11.66530 11.65234-11.94348
 4.40 1.00 -0.343 -0.340 -0.333 -0.314 -0.281 12.16286 12.15503-11.44105
 4.40 1.25 -0.321 -0.317 -0.310 -0.290 -0.253 12.41214 12.40563-11.19051
 4.40 1.50 -0.293 -0.289 -0.281 -0.261 -0.220 12.66162 12.65610-10.94006
 4.40 1.75 -0.258 -0.255 -0.245 -0.222 -0.180 12.91130 12.90653-10.68962
 4.40 2.00 -0.215 -0.211 -0.203 -0.177 -0.131 13.16107 13.15685-10.43926
 4.40 2.25 -0.160 -0.155 -0.146 -0.118 -0.067 13.41092 13.40698-10.18906
 4.40 2.50 -0.092 -0.088 -0.076 -0.045  0.010 13.66077 13.65706 -9.93892
 4.40 2.75 -0.004  0.001  0.014  0.047  0.108 13.91062 13.90711 -9.68885
 4.40 3.00  0.101  0.106  0.120  0.157  0.221 14.16047 14.15716 -9.43878
 4.40 3.20  0.205  0.211  0.225  0.263  0.331 14.36040 14.35731 -9.23870
 4.40 3.40  0.321  0.327  0.342  0.380  0.449 14.56033 14.55746 -9.03860
 4.40 3.60  0.453  0.458  0.472  0.511  0.579 14.76022 14.75758 -8.83848
 4.40 3.80  0.600  0.604  0.619  0.655  0.722 14.96006 14.95767 -8.63833
 4.40 4.00  0.756  0.761  0.773  0.808  0.873 15.15987 15.15776 -8.43818
 4.40 4.20  0.925  0.930  0.942  0.974  1.035 15.35968 15.35796 -8.23803
 4.40 4.40  1.102  1.105  1.116  1.146  1.201 15.55946 15.55823 -8.03788
 4.40 4.60  1.283  1.286  1.297  1.323  1.373 15.75920 15.75857 -7.83761
 4.40 4.80  1.469  1.472  1.481  1.504  1.549 15.95884 15.95901 -7.63713
 4.40 5.00  1.657  1.660  1.668  1.688  1.727 16.15836 16.15957 -7.43652
 4.40 5.20  1.852  1.855  1.861  1.878  1.911 16.35766 16.36026 -7.23583
 4.40 5.40  2.048  2.049  2.055  2.069  2.098 16.55669 16.56118 -7.03494
 4.40 5.60  2.245  2.247  2.251  2.263  2.286 16.75542 16.76241 -6.83372
 4.40 5.80  2.444  2.446  2.449  2.458  2.478 16.95366 16.96416 -6.63191
 4.40 6.00  2.641  2.642  2.645  2.653  2.668 17.15137 17.16643 -6.42957
 4.40 6.25  2.894  2.895  2.897  2.903  2.915 17.39724 17.42031 -6.17562
 4.40 6.50  3.142  3.142  3.144  3.148  3.157 17.64167 17.67541 -5.92046
 4.40 6.75  3.393  3.394  3.395  3.398  3.406 17.88455 17.93183 -5.66402
 4.40 7.00  3.635  3.635  3.636  3.638  3.644 18.12516 18.19005 -5.40583
 4.40 7.25  3.871  3.872  3.872  3.874  3.879 18.36235 18.45087 -5.14505
 4.40 7.50  4.094  4.094  4.095  4.097  4.101 18.59505 18.71458 -4.88140
 4.40 7.75  4.300  4.300  4.301  4.302  4.305 18.82013 18.98209 -4.61397
 4.40 8.00  4.490  4.490  4.490  4.491  4.493 19.03862 19.25310 -4.34304
 4.45-2.00 -0.434 -0.433 -0.433 -0.428 -0.422  9.12969  9.08743-14.50878
 4.45-1.50 -0.428 -0.428 -0.427 -0.423 -0.414  9.62951  9.58726-14.00877
 4.45-1.00 -0.422 -0.421 -0.419 -0.414 -0.405 10.12937 10.08743-13.50864
 4.45-0.50 -0.412 -0.411 -0.409 -0.403 -0.391 10.62910 10.58771-13.00838
 4.45 0.00 -0.396 -0.396 -0.393 -0.385 -0.369 11.12840 11.08849-12.50752
 4.45 0.50 -0.372 -0.371 -0.367 -0.356 -0.336 11.62665 11.59040-12.00564
 4.45 1.00 -0.336 -0.334 -0.329 -0.313 -0.286 12.12287 12.09447-11.50155
 4.45 1.25 -0.312 -0.310 -0.303 -0.286 -0.254 12.37030 12.34712-11.24883
 4.45 1.50 -0.282 -0.279 -0.271 -0.252 -0.214 12.61773 12.59977-10.99611
 4.45 1.75 -0.247 -0.243 -0.235 -0.213 -0.171 12.86564 12.85199-10.74397
 4.45 2.00 -0.203 -0.199 -0.190 -0.164 -0.117 13.11394 13.10380-10.49228
 4.45 2.25 -0.153 -0.148 -0.139 -0.111 -0.059 13.36282 13.35495-10.24131
 4.45 2.50 -0.091 -0.087 -0.075 -0.046  0.010 13.61204 13.60574 -9.99055
 4.45 2.75 -0.019 -0.014 -0.001  0.031  0.091 13.86164 13.85618 -9.73986
 4.45 3.00  0.068  0.072  0.086  0.120  0.185 14.11126 14.10653 -9.48932
 4.45 3.20  0.153  0.158  0.171  0.208  0.275 14.31096 14.30680 -9.28913
 4.45 3.40  0.248  0.253  0.267  0.304  0.372 14.51069 14.50703 -9.08895
 4.45 3.60  0.359  0.364  0.378  0.414  0.482 14.71049 14.70722 -8.88876
 4.45 3.80  0.486  0.491  0.504  0.539  0.604 14.91037 14.90738 -8.68857
 4.45 4.00  0.622  0.627  0.639  0.673  0.734 15.11025 15.10755 -8.48838
 4.45 4.20  0.780  0.785  0.796  0.826  0.885 15.31009 15.30772 -8.28823
 4.45 4.40  0.946  0.949  0.960  0.987  1.040 15.50991 15.50790 -8.08808
 4.45 4.60  1.122  1.125  1.134  1.159  1.207 15.70971 15.70809 -7.88792
 4.45 4.80  1.306  1.310  1.317  1.339  1.383 15.90949 15.90831 -7.68771
 4.45 5.00  1.494  1.497  1.504  1.523  1.562 16.10924 16.10857 -7.48745
 4.45 5.20  1.690  1.692  1.699  1.715  1.750 16.30890 16.30890 -7.28708
 4.45 5.40  1.887  1.888  1.894  1.908  1.938 16.50846 16.50934 -7.08660
 4.45 5.60  2.086  2.087  2.092  2.104  2.129 16.70792 16.70988 -6.88603
 4.45 5.80  2.286  2.286  2.291  2.300  2.322 16.90717 16.91063 -6.68531
 4.45 6.00  2.484  2.486  2.489  2.497  2.514 17.10619 17.11160 -6.48439
 4.45 6.25  2.740  2.740  2.743  2.750  2.763 17.35433 17.36342 -6.23262
 4.45 6.50  2.991  2.991  2.993  2.997  3.008 17.60163 17.61605 -5.98005
 4.45 6.75  3.251  3.252  3.253  3.256  3.265 17.84761 17.86991 -5.72622
 4.45 7.00  3.505  3.505  3.506  3.509  3.514 18.09202 18.12516 -5.47096
 4.45 7.25  3.761  3.762  3.762  3.764  3.769 18.33437 18.38213 -5.21386
 4.45 7.50  4.005  4.005  4.006  4.008  4.011 18.57403 18.64118 -4.95468
 4.45 7.75  4.240  4.240  4.240  4.241  4.245 18.80940 18.90309 -4.69279
 4.45 8.00  4.460  4.461  4.461  4.462  4.464 19.04100 19.16761 -4.42841
 4.50-2.00 -0.431 -0.431 -0.431 -0.427 -0.421  9.07954  9.03703-14.55878
 4.50-1.50 -0.424 -0.423 -0.422 -0.418 -0.410  9.57956  9.53719-14.05884
 4.50-1.00 -0.414 -0.413 -0.411 -0.406 -0.397 10.07954 10.03743-13.55878
 4.50-0.50 -0.403 -0.402 -0.400 -0.394 -0.382 10.57944 10.53732-13.05874
 4.50 0.00 -0.390 -0.389 -0.387 -0.379 -0.364 11.07954 11.03743-12.55862
 4.50 0.50 -0.373 -0.372 -0.369 -0.361 -0.342 11.57921 11.53757-12.05849
 4.50 1.00 -0.347 -0.345 -0.341 -0.331 -0.308 12.07882 12.03822-11.55783
 4.50 1.25 -0.326 -0.324 -0.320 -0.308 -0.281 12.32825 12.28877-11.30728
 4.50 1.50 -0.300 -0.298 -0.292 -0.278 -0.250 12.57738 12.53958-11.05646
 4.50 1.75 -0.264 -0.262 -0.256 -0.238 -0.206 12.82613 12.79105-10.80504
 4.50 2.00 -0.220 -0.216 -0.209 -0.190 -0.152 13.07445 13.04297-10.55315
 4.50 2.25 -0.164 -0.162 -0.153 -0.131 -0.086 13.32197 13.29550-10.30057
 4.50 2.50 -0.098 -0.095 -0.085 -0.058 -0.009 13.56949 13.54802-10.04798
 4.50 2.75 -0.024 -0.020 -0.009  0.021  0.078 13.81710 13.80044 -9.79556
 4.50 3.00  0.064  0.068  0.081  0.115  0.178 14.06483 14.05270 -9.54333
 4.50 3.20  0.141  0.147  0.160  0.195  0.262 14.26362 14.25399 -9.34206
 4.50 3.40  0.229  0.234  0.248  0.285  0.355 14.46267 14.45503 -9.14104
 4.50 3.60  0.327  0.332  0.347  0.385  0.456 14.66200 14.65583 -8.94028
 4.50 3.80  0.438  0.443  0.457  0.494  0.564 14.86149 14.85645 -8.73970
 4.50 4.00  0.558  0.563  0.576  0.612  0.679 15.06108 15.05690 -8.53925
 4.50 4.20  0.699  0.703  0.715  0.748  0.811 15.26073 15.25716 -8.33895
 4.50 4.40  0.847  0.851  0.862  0.891  0.949 15.46041 15.45740 -8.13866
 4.50 4.60  1.009  1.013  1.022  1.048  1.099 15.66011 15.65762 -7.93840
 4.50 4.80  1.183  1.186  1.194  1.215  1.260 15.85983 15.85783 -7.73815
 4.50 5.00  1.360  1.362  1.368  1.387  1.425 16.05956 16.05805 -7.53790
 4.50 5.20  1.549  1.552  1.557  1.573  1.606 16.25937 16.25829 -7.33766
 4.50 5.40  1.740  1.742  1.747  1.760  1.789 16.45917 16.45856 -7.13742
 4.50 5.60  1.937  1.938  1.942  1.954  1.978 16.65892 16.65890 -6.93712
 4.50 5.80  2.137  2.138  2.141  2.152  2.173 16.85855 16.85937 -6.73667
 4.50 6.00  2.338  2.338  2.341  2.349  2.366 17.05805 17.05994 -6.53611
 4.50 6.25  2.591  2.593  2.595  2.602  2.615 17.30708 17.31084 -6.28522
 4.50 6.50  2.843  2.843  2.845  2.850  2.861 17.55570 17.56206 -6.03400
 4.50 6.75  3.105  3.105  3.107  3.110  3.119 17.80382 17.81396 -5.78213
 4.50 7.00  3.363  3.364  3.365  3.367  3.373 18.05115 18.06670 -5.52944
 4.50 7.25  3.629  3.629  3.630  3.632  3.638 18.29696 18.32065 -5.27545
 4.50 7.50  3.888  3.888  3.888  3.890  3.893 18.54096 18.57611 -5.01991
 4.50 7.75  4.145  4.145  4.146  4.147  4.149 18.78212 18.83391 -4.76209
 4.50 8.00  4.385  4.385  4.385  4.387  4.389 19.02078 19.09377 -4.50224
 4.55-2.00 -0.430 -0.430 -0.429 -0.427 -0.421  9.02979  8.98722-14.60889
 4.55-1.50 -0.425 -0.425 -0.424 -0.421 -0.414  9.52956  9.48714-14.10885
 4.55-1.00 -0.417 -0.417 -0.415 -0.412 -0.404 10.02979  9.98722-13.60889
 4.55-0.50 -0.405 -0.405 -0.403 -0.398 -0.389 10.52956 10.48714-13.10880
 4.55 0.00 -0.390 -0.389 -0.387 -0.382 -0.368 11.02938 10.98726-12.60871
 4.55 0.50 -0.370 -0.369 -0.367 -0.359 -0.341 11.52943 11.48728-12.10874
 4.55 1.00 -0.345 -0.344 -0.340 -0.331 -0.309 12.02938 11.98740-11.60854
 4.55 1.25 -0.330 -0.329 -0.325 -0.313 -0.289 12.27931 12.23747-11.35850
 4.55 1.50 -0.312 -0.310 -0.306 -0.293 -0.266 12.52917 12.48756-11.10846
 4.55 1.75 -0.286 -0.285 -0.280 -0.266 -0.236 12.77893 12.73780-10.85822
 4.55 2.00 -0.254 -0.252 -0.246 -0.230 -0.198 13.02857 12.98816-10.60783
 4.55 2.25 -0.207 -0.206 -0.199 -0.181 -0.145 13.27813 13.23866-10.35734
 4.55 2.50 -0.149 -0.146 -0.139 -0.119 -0.079 13.52750 13.48940-10.10663
 4.55 2.75 -0.072 -0.069 -0.061 -0.038  0.008 13.77643 13.74069 -9.85537
 4.55 3.00  0.019  0.022  0.032  0.057  0.109 14.02490 13.99247 -9.60363
 4.55 3.20  0.103  0.108  0.117  0.146  0.203 14.22292 14.19445 -9.40159
 4.55 3.40  0.197  0.201  0.212  0.244  0.304 14.42095 14.39646 -9.19956
 4.55 3.60  0.299  0.303  0.315  0.349  0.413 14.61900 14.59851 -8.99753
 4.55 3.80  0.409  0.414  0.426  0.460  0.528 14.81713 14.80055 -8.79549
 4.55 4.00  0.529  0.533  0.546  0.581  0.650 15.01536 15.00260 -8.59346
 4.55 4.20  0.659  0.663  0.675  0.709  0.775 15.21389 15.20397 -8.39208
 4.55 4.40  0.799  0.803  0.814  0.845  0.908 15.41267 15.40509 -8.19096
 4.55 4.60  0.950  0.954  0.964  0.992  1.049 15.61182 15.60600 -7.99011
 4.55 4.80  1.111  1.114  1.122  1.147  1.197 15.81123 15.80675 -7.78943
 4.55 5.00  1.276  1.280  1.286  1.306  1.349 16.01073 16.00732 -7.58889
 4.55 5.20  1.453  1.455  1.461  1.479  1.516 16.21026 16.20764 -7.38846
 4.55 5.40  1.631  1.633  1.638  1.652  1.683 16.40982 16.40796 -7.18807
 4.55 5.60  1.817  1.819  1.822  1.835  1.861 16.60940 16.60829 -6.98772
 4.55 5.80  2.010  2.011  2.015  2.025  2.046 16.80900 16.80865 -6.78738
 4.55 6.00  2.202  2.203  2.206  2.214  2.232 17.00860 17.00903 -6.58704
 4.55 6.25  2.453  2.454  2.456  2.463  2.477 17.25806 17.25958 -6.33646
 4.55 6.50  2.701  2.701  2.703  2.708  2.720 17.50745 17.51028 -6.08571
 4.55 6.75  2.959  2.959  2.961  2.964  2.973 17.75653 17.76134 -5.83465
 4.55 7.00  3.217  3.217  3.218  3.220  3.227 18.00518 18.01284 -5.58319
 4.55 7.25  3.483  3.484  3.484  3.487  3.491 18.25295 18.26492 -5.33111
 4.55 7.50  3.746  3.746  3.747  3.748  3.752 18.49969 18.51786 -5.07816
 4.55 7.75  4.012  4.012  4.012  4.014  4.017 18.74476 18.77250 -4.82354
 4.55 8.00  4.269  4.269  4.269  4.270  4.272 18.98838 19.02857 -4.56751
 4.60-2.00 -0.423 -0.422 -0.421 -0.419 -0.412  8.97959  8.93717-14.65876
 4.60-1.50 -0.419 -0.419 -0.418 -0.415 -0.409  9.47958  9.43712-14.15889
 4.60-1.00 -0.414 -0.414 -0.413 -0.410 -0.402  9.97959  9.93722-13.65876
 4.60-0.50 -0.407 -0.406 -0.405 -0.401 -0.393 10.47958 10.43712-13.15883
 4.60 0.00 -0.397 -0.396 -0.395 -0.391 -0.380 10.97955 10.93722-12.65876
 4.60 0.50 -0.381 -0.381 -0.378 -0.373 -0.359 11.47958 11.43727-12.15883
 4.60 1.00 -0.358 -0.358 -0.355 -0.346 -0.330 11.97950 11.93732-11.65876
 4.60 1.25 -0.343 -0.342 -0.338 -0.330 -0.311 12.22947 12.18730-11.40873
 4.60 1.50 -0.324 -0.323 -0.319 -0.310 -0.287 12.47943 12.43727-11.15870
 4.60 1.75 -0.303 -0.301 -0.297 -0.285 -0.259 12.72940 12.68736-10.90864
 4.60 2.00 -0.275 -0.272 -0.268 -0.254 -0.225 12.97937 12.93747-10.65857
 4.60 2.25 -0.240 -0.238 -0.233 -0.217 -0.183 13.22928 13.18759-10.40847
 4.60 2.50 -0.194 -0.192 -0.186 -0.169 -0.132 13.47914 13.43775-10.15833
 4.60 2.75 -0.134 -0.132 -0.125 -0.106 -0.065 13.72893 13.68798 -9.90811
 4.60 3.00 -0.058 -0.055 -0.047 -0.027  0.019 13.97859 13.93832 -9.65777
 4.60 3.20  0.019  0.021  0.030  0.052  0.101 14.17819 14.13872 -9.45734
 4.60 3.40  0.108  0.111  0.119  0.145  0.195 14.37761 14.33930 -9.25672
 4.60 3.60  0.211  0.214  0.224  0.250  0.304 14.57682 14.54016 -9.05583
 4.60 3.80  0.327  0.331  0.340  0.368  0.424 14.77572 14.74140 -8.85459
 4.60 4.00  0.452  0.456  0.466  0.495  0.553 14.97433 14.94295 -8.65306
 4.60 4.20  0.591  0.595  0.605  0.634  0.691 15.17235 15.14501 -8.45099
 4.60 4.40  0.738  0.741  0.750  0.778  0.835 15.37037 15.34706 -8.24892
 4.60 4.60  0.891  0.893  0.903  0.928  0.983 15.56840 15.54911 -8.04686
 4.60 4.80  1.050  1.053  1.062  1.086  1.135 15.76647 15.75115 -7.84482
 4.60 5.00  1.215  1.218  1.224  1.246  1.291 15.96459 15.95318 -7.64283
 4.60 5.20  1.383  1.385  1.391  1.410  1.449 16.16317 16.15458 -7.44142
 4.60 5.40  1.553  1.555  1.560  1.576  1.611 16.36199 16.35573 -7.24026
 4.60 5.60  1.730  1.730  1.735  1.749  1.778 16.56111 16.55663 -7.03940
 4.60 5.80  1.910  1.911  1.914  1.926  1.951 16.76041 16.75739 -6.83870
 4.60 6.00  2.091  2.092  2.095  2.105  2.125 16.95980 16.95804 -6.63808
 4.60 6.25  2.329  2.331  2.333  2.340  2.356 17.20915 17.20872 -6.38738
 4.60 6.50  2.568  2.569  2.570  2.576  2.588 17.45849 17.45939 -6.13668
 4.60 6.75  2.816  2.816  2.818  2.822  2.831 17.70773 17.71014 -5.88592
 4.60 7.00  3.066  3.066  3.068  3.070  3.076 17.95684 17.96099 -5.63508
 4.60 7.25  3.327  3.327  3.328  3.330  3.335 18.20555 18.21221 -5.38384
 4.60 7.50  3.585  3.586  3.586  3.588  3.592 18.45378 18.46389 -5.13212
 4.60 7.75  3.851  3.851  3.852  3.852  3.856 18.70105 18.71655 -4.87945
 4.60 8.00  4.110  4.110  4.110  4.111  4.113 18.94753 18.97002 -4.62599
 4.65-2.00 -0.417 -0.416 -0.415 -0.412 -0.406  8.92962  8.88717-14.70885
 4.65-1.50 -0.412 -0.412 -0.412 -0.409 -0.402  9.42959  9.38721-14.20887
 4.65-1.00 -0.409 -0.409 -0.407 -0.404 -0.397  9.92962  9.88722-13.70885
 4.65-0.50 -0.403 -0.403 -0.402 -0.399 -0.391 10.42959 10.38721-13.20887
 4.65 0.00 -0.396 -0.396 -0.394 -0.391 -0.382 10.92957 10.88722-12.70885
 4.65 0.50 -0.385 -0.385 -0.383 -0.378 -0.368 11.42959 11.38721-12.20880
 4.65 1.00 -0.370 -0.369 -0.367 -0.361 -0.347 11.92952 11.88728-11.70885
 4.65 1.25 -0.359 -0.358 -0.356 -0.349 -0.333 12.17947 12.13725-11.45879
 4.65 1.50 -0.346 -0.345 -0.343 -0.335 -0.317 12.42943 12.38721-11.20873
 4.65 1.75 -0.329 -0.328 -0.324 -0.315 -0.296 12.67945 12.63730-10.95868
 4.65 2.00 -0.308 -0.306 -0.303 -0.293 -0.271 12.92947 12.88739-10.70863
 4.65 2.25 -0.279 -0.278 -0.273 -0.262 -0.236 13.17946 13.13739-10.45861
 4.65 2.50 -0.242 -0.241 -0.236 -0.223 -0.194 13.42943 13.38739-10.20859
 4.65 2.75 -0.194 -0.192 -0.186 -0.171 -0.138 13.67937 13.63749 -9.95852
 4.65 3.00 -0.131 -0.128 -0.123 -0.104 -0.066 13.92927 13.88762 -9.70841
 4.65 3.20 -0.067 -0.065 -0.058 -0.040  0.003 14.12917 14.08772 -9.50831
 4.65 3.40  0.008  0.012  0.019  0.040  0.084 14.32903 14.28785 -9.30818
 4.65 3.60  0.099  0.101  0.109  0.132  0.180 14.52885 14.48803 -9.10799
 4.65 3.80  0.204  0.207  0.215  0.238  0.289 14.72859 14.68833 -8.90770
 4.65 4.00  0.322  0.324  0.332  0.357  0.409 14.92824 14.88874 -8.70730
 4.65 4.20  0.456  0.460  0.467  0.491  0.544 15.12771 15.08932 -8.50675
 4.65 4.40  0.602  0.604  0.613  0.637  0.688 15.32696 15.29011 -8.30598
 4.65 4.60  0.760  0.763  0.771  0.793  0.842 15.52594 15.49121 -8.10487
 4.65 4.80  0.929  0.932  0.938  0.959  1.005 15.72458 15.69268 -7.90337
 4.65 5.00  1.102  1.104  1.111  1.129  1.171 15.92293 15.89443 -7.70158
 4.65 5.20  1.280  1.281  1.287  1.304  1.342 16.12082 16.09660 -7.49938
 4.65 5.40  1.457  1.458  1.464  1.479  1.512 16.31870 16.29876 -7.29717
 4.65 5.60  1.633  1.635  1.639  1.652  1.683 16.51665 16.50089 -7.09502
 4.65 5.80  1.809  1.811  1.815  1.826  1.853 16.71478 16.70287 -6.89304
 4.65 6.00  1.987  1.988  1.991  2.001  2.024 16.91307 16.90472 -6.69122
 4.65 6.25  2.214  2.214  2.217  2.225  2.243 17.16143 17.15627 -6.43969
 4.65 6.50  2.441  2.442  2.444  2.451  2.465 17.41010 17.40756 -6.18843
 4.65 6.75  2.676  2.676  2.678  2.683  2.694 17.65913 17.65861 -5.93738
 4.65 7.00  2.912  2.912  2.913  2.917  2.925 17.90816 17.90966 -5.68634
 4.65 7.25  3.161  3.161  3.162  3.165  3.172 18.15708 18.16072 -5.43529
 4.65 7.50  3.409  3.409  3.410  3.411  3.416 18.40586 18.41179 -5.18422
 4.65 7.75  3.665  3.666  3.666  3.668  3.671 18.65419 18.66349 -4.93255
 4.65 8.00  3.918  3.918  3.919  3.920  3.923 18.90217 18.91561 -4.68048
 4.70-2.00 -0.414 -0.414 -0.414 -0.411 -0.405  8.87961  8.83721-14.75895
 4.70-1.50 -0.409 -0.408 -0.407 -0.405 -0.397  9.37949  9.33706-14.25885
 4.70-1.00 -0.403 -0.402 -0.401 -0.399 -0.391  9.87961  9.83721-13.75870
 4.70-0.50 -0.398 -0.397 -0.396 -0.393 -0.384 10.37949 10.33726-13.25885
 4.70 0.00 -0.392 -0.392 -0.391 -0.387 -0.378 10.87955 10.83721-12.75870
 4.70 0.50 -0.384 -0.384 -0.383 -0.379 -0.369 11.37949 11.33726-12.25885
 4.70 1.00 -0.373 -0.373 -0.372 -0.367 -0.355 11.87955 11.83727-11.75870
 4.70 1.25 -0.365 -0.364 -0.363 -0.358 -0.345 12.12952 12.08727-11.50874
 4.70 1.50 -0.356 -0.355 -0.354 -0.348 -0.333 12.37949 12.33726-11.25877
 4.70 1.75 -0.344 -0.344 -0.341 -0.334 -0.318 12.62949 12.58730-11.00874
 4.70 2.00 -0.329 -0.329 -0.326 -0.318 -0.300 12.87950 12.83734-10.75870
 4.70 2.25 -0.309 -0.308 -0.306 -0.297 -0.276 13.12940 13.08730-10.50870
 4.70 2.50 -0.285 -0.284 -0.280 -0.271 -0.248 13.37931 13.33726-10.25869
 4.70 2.75 -0.251 -0.249 -0.245 -0.234 -0.207 13.62934 13.58736-10.00857
 4.70 3.00 -0.205 -0.204 -0.199 -0.186 -0.156 13.87938 13.83746 -9.75845
 4.70 3.20 -0.156 -0.154 -0.150 -0.135 -0.102 14.07928 14.03746 -9.55845
 4.70 3.40 -0.095 -0.094 -0.089 -0.072 -0.037 14.27918 14.23746 -9.35845
 4.70 3.60 -0.021 -0.019 -0.014  0.003  0.042 14.47911 14.43753 -9.15843
 4.70 3.80  0.068  0.071  0.077  0.095  0.138 14.67907 14.63768 -8.95834
 4.70 4.00  0.175  0.177  0.183  0.204  0.248 14.87904 14.83784 -8.75820
 4.70 4.20  0.296  0.299  0.306  0.326  0.373 15.07891 15.03800 -8.55804
 4.70 4.40  0.433  0.435  0.442  0.463  0.510 15.27871 15.23817 -8.35781
 4.70 4.60  0.582  0.585  0.591  0.612  0.658 15.47843 15.43843 -8.15750
 4.70 4.80  0.743  0.746  0.752  0.772  0.817 15.67803 15.63890 -7.95706
 4.70 5.00  0.913  0.915  0.921  0.939  0.982 15.87749 15.83954 -7.75647
 4.70 5.20  1.094  1.095  1.101  1.118  1.156 16.07666 16.04041 -7.55563
 4.70 5.40  1.278  1.280  1.285  1.299  1.335 16.27558 16.24155 -7.35450
 4.70 5.60  1.465  1.467  1.470  1.484  1.515 16.47415 16.44310 -7.15290
 4.70 5.80  1.652  1.653  1.657  1.668  1.697 16.67241 16.64499 -6.95094
 4.70 6.00  1.837  1.839  1.842  1.852  1.877 16.87046 16.84708 -6.74885
 4.70 6.25  2.068  2.069  2.072  2.081  2.101 17.11769 17.09992 -6.49611
 4.70 6.50  2.298  2.299  2.301  2.307  2.325 17.36493 17.35276 -6.24336
 4.70 6.75  2.526  2.526  2.529  2.535  2.548 17.61272 17.60508 -5.99101
 4.70 7.00  2.748  2.748  2.750  2.753  2.764 17.86082 17.85703 -5.73898
 4.70 7.25  2.982  2.983  2.983  2.987  2.994 18.10924 18.10843 -5.48755
 4.70 7.50  3.216  3.217  3.218  3.220  3.226 18.35774 18.35983 -5.23612
 4.70 7.75  3.460  3.460  3.460  3.462  3.467 18.60628 18.61136 -4.98462
 4.70 8.00  3.701  3.701  3.701  3.702  3.706 18.85485 18.86296 -4.73306
 4.75-2.00 -0.417 -0.417 -0.415 -0.413 -0.407  8.82963  8.78718-14.80883
 4.75-1.50 -0.411 -0.411 -0.411 -0.408 -0.401  9.32960  9.28713-14.30883
 4.75-1.00 -0.406 -0.405 -0.405 -0.401 -0.394  9.82963  9.78718-13.80883
 4.75-0.50 -0.398 -0.398 -0.396 -0.393 -0.385 10.32960 10.28713-13.30883
 4.75 0.00 -0.388 -0.387 -0.387 -0.383 -0.373 10.82956 10.78725-12.80883
 4.75 0.50 -0.378 -0.378 -0.377 -0.373 -0.363 11.32960 11.28713-12.30883
 4.75 1.00 -0.370 -0.370 -0.368 -0.363 -0.351 11.82956 11.78725-11.80883
 4.75 1.25 -0.364 -0.364 -0.363 -0.358 -0.345 12.07948 12.03730-11.55879
 4.75 1.50 -0.359 -0.358 -0.357 -0.352 -0.338 12.32940 12.28735-11.30874
 4.75 1.75 -0.350 -0.350 -0.349 -0.343 -0.329 12.57945 12.53734-11.05879
 4.75 2.00 -0.341 -0.340 -0.339 -0.333 -0.317 12.82950 12.78732-10.80883
 4.75 2.25 -0.327 -0.326 -0.324 -0.317 -0.301 13.07945 13.03733-10.55880
 4.75 2.50 -0.310 -0.309 -0.307 -0.299 -0.280 13.32940 13.28735-10.30874
 4.75 2.75 -0.285 -0.285 -0.281 -0.273 -0.252 13.57942 13.53741-10.05865
 4.75 3.00 -0.254 -0.253 -0.250 -0.240 -0.215 13.82943 13.78746 -9.80855
 4.75 3.20 -0.220 -0.219 -0.215 -0.205 -0.178 14.02934 13.98751 -9.60856
 4.75 3.40 -0.178 -0.177 -0.173 -0.161 -0.131 14.22924 14.18756 -9.40856
 4.75 3.60 -0.124 -0.123 -0.119 -0.105 -0.073 14.42919 14.38760 -9.20851
 4.75 3.80 -0.056 -0.054 -0.049 -0.035 -0.001 14.62918 14.58764 -9.00839
 4.75 4.00  0.026  0.027  0.032  0.047  0.084 14.82918 14.78767 -8.80827
 4.75 4.20  0.128  0.130  0.135  0.152  0.190 15.02912 14.98772 -8.60825
 4.75 4.40  0.246  0.249  0.253  0.271  0.311 15.22904 15.18777 -8.40822
 4.75 4.60  0.382  0.384  0.389  0.407  0.448 15.42894 15.38788 -8.20814
 4.75 4.80  0.533  0.535  0.540  0.558  0.600 15.62879 15.58807 -8.00796
 4.75 5.00  0.696  0.698  0.703  0.720  0.761 15.82860 15.78831 -7.80771
 4.75 5.20  0.870  0.873  0.877  0.893  0.933 16.02834 15.98858 -7.60744
 4.75 5.40  1.051  1.053  1.058  1.073  1.109 16.22798 16.18893 -7.40709
 4.75 5.60  1.237  1.238  1.243  1.257  1.290 16.42752 16.38942 -7.20661
 4.75 5.80  1.424  1.426  1.430  1.442  1.474 16.62687 16.59016 -7.00589
 4.75 6.00  1.614  1.615  1.620  1.630  1.659 16.82601 16.79113 -6.80493
 4.75 6.25  1.854  1.855  1.859  1.868  1.892 17.07434 17.04289 -6.55318
 4.75 6.50  2.094  2.095  2.098  2.106  2.126 17.32222 17.29513 -6.30094
 4.75 6.75  2.330  2.330  2.332  2.339  2.356 17.56950 17.54803 -6.04801
 4.75 7.00  2.558  2.559  2.560  2.566  2.579 17.81677 17.80092 -5.79507
 4.75 7.25  2.786  2.787  2.788  2.793  2.803 18.06411 18.05366 -5.54230
 4.75 7.50  3.016  3.016  3.017  3.020  3.028 18.31154 18.30621 -5.28971
 4.75 7.75  3.245  3.245  3.245  3.247  3.253 18.55936 18.55843 -5.03753
 4.75 8.00  3.472  3.472  3.474  3.475  3.480 18.80747 18.81037 -4.78569
 4.80-2.00 -0.415 -0.415 -0.414 -0.411 -0.405  8.77960  8.73719-14.85886
 4.80-1.50 -0.413 -0.413 -0.411 -0.409 -0.402  9.27967  9.23704-14.35882
 4.80-1.00 -0.409 -0.409 -0.407 -0.405 -0.397  9.77960  9.73719-13.85886
 4.80-0.50 -0.402 -0.402 -0.401 -0.398 -0.391 10.27967 10.23704-13.35882
 4.80 0.00 -0.395 -0.395 -0.394 -0.390 -0.382 10.77960 10.73719-12.85886
 4.80 0.50 -0.384 -0.383 -0.382 -0.378 -0.370 11.27944 11.23729-12.35882
 4.80 1.00 -0.370 -0.369 -0.368 -0.364 -0.353 11.77960 11.73727-11.85886
 4.80 1.25 -0.363 -0.363 -0.361 -0.356 -0.344 12.02952 11.98728-11.60884
 4.80 1.50 -0.354 -0.354 -0.352 -0.347 -0.334 12.27944 12.23729-11.35882
 4.80 1.75 -0.346 -0.346 -0.345 -0.339 -0.325 12.52948 12.48728-11.10884
 4.80 2.00 -0.337 -0.337 -0.335 -0.330 -0.314 12.77952 12.73727-10.85886
 4.80 2.25 -0.328 -0.327 -0.326 -0.319 -0.303 13.02948 12.98728-10.60880
 4.80 2.50 -0.317 -0.317 -0.314 -0.308 -0.290 13.27944 13.23729-10.35872
 4.80 2.75 -0.302 -0.301 -0.299 -0.292 -0.273 13.52945 13.48736-10.10864
 4.80 3.00 -0.282 -0.281 -0.279 -0.271 -0.252 13.77945 13.73743 -9.85855
 4.80 3.20 -0.259 -0.258 -0.255 -0.246 -0.225 13.97936 13.93748 -9.65858
 4.80 3.40 -0.231 -0.229 -0.226 -0.217 -0.194 14.17926 14.13753 -9.45861
 4.80 3.60 -0.192 -0.192 -0.188 -0.178 -0.153 14.37922 14.33755 -9.25862
 4.80 3.80 -0.144 -0.142 -0.139 -0.127 -0.100 14.57923 14.53757 -9.05860
 4.80 4.00 -0.084 -0.082 -0.079 -0.066 -0.036 14.77924 14.73759 -8.85855
 4.80 4.20 -0.007 -0.005 -0.001  0.013  0.045 14.97924 14.93767 -8.65846
 4.80 4.40  0.085  0.086  0.090  0.105  0.140 15.17922 15.13775 -8.45837
 4.80 4.60  0.196  0.197  0.201  0.216  0.253 15.37917 15.33782 -8.25831
 4.80 4.80  0.325  0.326  0.331  0.345  0.383 15.57908 15.53786 -8.05827
 4.80 5.00  0.467  0.469  0.474  0.488  0.526 15.77895 15.73791 -7.85824
 4.80 5.20  0.631  0.632  0.637  0.651  0.688 15.97880 15.93802 -7.65807
 4.80 5.40  0.803  0.805  0.809  0.824  0.859 16.17863 16.13819 -7.45786
 4.80 5.60  0.985  0.987  0.990  1.004  1.038 16.37842 16.33842 -7.25761
 4.80 5.80  1.173  1.174  1.178  1.191  1.222 16.57817 16.53872 -7.05733
 4.80 6.00  1.363  1.365  1.368  1.381  1.410 16.77786 16.73910 -6.85698
 4.80 6.25  1.602  1.604  1.607  1.618  1.645 17.02729 16.98970 -6.60632
 4.80 6.50  1.843  1.844  1.847  1.857  1.881 17.27646 17.24055 -6.35536
 4.80 6.75  2.082  2.082  2.085  2.093  2.114 17.52512 17.49209 -6.10394
 4.80 7.00  2.320  2.321  2.323  2.330  2.348 17.77328 17.74414 -5.85201
 4.80 7.25  2.552  2.553  2.555  2.560  2.575 18.02067 17.99679 -5.59926
 4.80 7.50  2.786  2.786  2.787  2.792  2.803 18.26788 18.24969 -5.34631
 4.80 7.75  3.011  3.011  3.013  3.016  3.025 18.51500 18.50270 -5.09328
 4.80 8.00  3.236  3.236  3.237  3.239  3.246 18.76200 18.75587 -4.84013
 4.85-2.00 -0.412 -0.412 -0.411 -0.409 -0.402  8.72965  8.68717-14.90868
 4.85-1.50 -0.409 -0.409 -0.407 -0.405 -0.397  9.22968  9.18724-14.40882
 4.85-1.00 -0.405 -0.405 -0.404 -0.401 -0.393  9.72957  9.68717-13.90868
 4.85-0.50 -0.401 -0.401 -0.400 -0.398 -0.388 10.22968 10.18724-13.40882
 4.85 0.00 -0.397 -0.397 -0.396 -0.392 -0.384 10.72957 10.68717-12.90868
 4.85 0.50 -0.391 -0.389 -0.389 -0.386 -0.377 11.22943 11.18724-12.40882
 4.85 1.00 -0.380 -0.380 -0.378 -0.375 -0.364 11.72957 11.68726-11.90869
 4.85 1.25 -0.373 -0.373 -0.372 -0.367 -0.356 11.97950 11.93725-11.65876
 4.85 1.50 -0.365 -0.364 -0.363 -0.359 -0.347 12.22943 12.18724-11.40882
 4.85 1.75 -0.355 -0.354 -0.354 -0.349 -0.336 12.47946 12.43725-11.15876
 4.85 2.00 -0.345 -0.344 -0.343 -0.338 -0.324 12.72949 12.68726-10.90869
 4.85 2.25 -0.332 -0.331 -0.330 -0.324 -0.309 12.97946 12.93725-10.65870
 4.85 2.50 -0.317 -0.317 -0.315 -0.309 -0.293 13.22943 13.18724-10.40871
 4.85 2.75 -0.303 -0.302 -0.300 -0.293 -0.275 13.47946 13.43728-10.15871
 4.85 3.00 -0.285 -0.284 -0.282 -0.275 -0.255 13.72949 13.68735 -9.90868
 4.85 3.20 -0.269 -0.268 -0.266 -0.258 -0.237 13.92947 13.88742 -9.70866
 4.85 3.40 -0.250 -0.250 -0.247 -0.238 -0.216 14.12944 14.08749 -9.50863
 4.85 3.60 -0.225 -0.225 -0.221 -0.213 -0.190 14.32941 14.28753 -9.30855
 4.85 3.80 -0.193 -0.192 -0.190 -0.180 -0.156 14.52937 14.48753 -9.10844
 4.85 4.00 -0.153 -0.153 -0.149 -0.140 -0.114 14.72933 14.68753 -8.90833
 4.85 4.20 -0.098 -0.097 -0.093 -0.083 -0.056 14.92926 14.88753 -8.70835
 4.85 4.40 -0.031 -0.030 -0.027 -0.015  0.014 15.12920 15.08752 -8.50837
 4.85 4.60  0.052  0.054  0.058  0.069  0.101 15.32915 15.28757 -8.30838
 4.85 4.80  0.156  0.157  0.161  0.174  0.206 15.52912 15.48768 -8.10837
 4.85 5.00  0.273  0.274  0.278  0.292  0.326 15.72908 15.68780 -7.90833
 4.85 5.20  0.414  0.414  0.419  0.432  0.466 15.92891 15.88791 -7.70817
 4.85 5.40  0.566  0.567  0.571  0.584  0.618 16.12874 16.08802 -7.50801
 4.85 5.60  0.732  0.734  0.737  0.750  0.783 16.32861 16.28815 -7.30787
 4.85 5.80  0.911  0.913  0.916  0.928  0.960 16.52852 16.48832 -7.10775
 4.85 6.00  1.097  1.098  1.102  1.112  1.142 16.72844 16.68851 -6.90763
 4.85 6.25  1.336  1.337  1.340  1.350  1.378 16.97809 16.93881 -6.65729
 4.85 6.50  1.576  1.578  1.581  1.590  1.615 17.22763 17.18921 -6.40683
 4.85 6.75  1.814  1.816  1.819  1.827  1.850 17.47710 17.43980 -6.15628
 4.85 7.00  2.057  2.057  2.059  2.068  2.088 17.72640 17.69064 -5.90553
 4.85 7.25  2.289  2.290  2.292  2.299  2.316 17.97519 17.94192 -5.65417
 4.85 7.50  2.525  2.526  2.527  2.533  2.548 18.22350 18.19368 -5.40230
 4.85 7.75  2.751  2.752  2.753  2.758  2.770 18.47123 18.44614 -5.14987
 4.85 8.00  2.979  2.980  2.981  2.984  2.994 18.71842 18.69923 -4.89688
 4.90-2.00 -0.419 -0.418 -0.418 -0.416 -0.410  8.67961  8.63719-14.95900
 4.90-1.50 -0.413 -0.413 -0.412 -0.410 -0.403  9.17955  9.13704-14.45892
 4.90-1.00 -0.406 -0.406 -0.405 -0.402 -0.396  9.67961  9.63719-13.95900
 4.90-0.50 -0.400 -0.400 -0.398 -0.395 -0.387 10.17955 10.13704-13.45892
 4.90 0.00 -0.394 -0.392 -0.392 -0.389 -0.378 10.67961 10.63719-12.95900
 4.90 0.50 -0.387 -0.387 -0.385 -0.382 -0.371 11.17955 11.13704-12.45880
 4.90 1.00 -0.380 -0.380 -0.378 -0.375 -0.363 11.67961 11.63719-11.95861
 4.90 1.25 -0.375 -0.375 -0.375 -0.370 -0.359 11.92958 11.88727-11.70870
 4.90 1.50 -0.371 -0.371 -0.369 -0.365 -0.353 12.17955 12.13735-11.45880
 4.90 1.75 -0.364 -0.364 -0.363 -0.358 -0.345 12.42953 12.38732-11.20870
 4.90 2.00 -0.357 -0.356 -0.355 -0.350 -0.338 12.67952 12.63729-10.95861
 4.90 2.25 -0.346 -0.346 -0.345 -0.340 -0.326 12.92954 12.88732-10.70870
 4.90 2.50 -0.335 -0.335 -0.332 -0.327 -0.312 13.17955 13.13735-10.45880
 4.90 2.75 -0.319 -0.318 -0.317 -0.311 -0.294 13.42950 13.38738-10.20870
 4.90 3.00 -0.301 -0.300 -0.298 -0.292 -0.274 13.67943 13.63739 -9.95861
 4.90 3.20 -0.283 -0.282 -0.280 -0.273 -0.255 13.87936 13.83738 -9.75863
 4.90 3.40 -0.262 -0.262 -0.260 -0.252 -0.231 14.07930 14.03736 -9.55866
 4.90 3.60 -0.239 -0.239 -0.236 -0.228 -0.206 14.27928 14.23738 -9.35867
 4.90 3.80 -0.213 -0.212 -0.208 -0.200 -0.177 14.47931 14.43743 -9.15865
 4.90 4.00 -0.180 -0.179 -0.176 -0.167 -0.142 14.67934 14.63749 -8.95861
 4.90 4.20 -0.141 -0.140 -0.137 -0.127 -0.101 14.87932 14.83756 -8.75854
 4.90 4.40 -0.093 -0.091 -0.089 -0.079 -0.051 15.07928 15.03763 -8.55846
 4.90 4.60 -0.032 -0.031 -0.028 -0.018  0.010 15.27925 15.23767 -8.35838
 4.90 4.80  0.043  0.044  0.047  0.058  0.087 15.47921 15.43768 -8.15830
 4.90 5.00  0.130  0.132  0.135  0.146  0.176 15.67916 15.63769 -7.95821
 4.90 5.20  0.243  0.245  0.248  0.259  0.290 15.87909 15.83781 -7.75820
 4.90 5.40  0.371  0.372  0.375  0.386  0.417 16.07902 16.03793 -7.55818
 4.90 5.60  0.516  0.516  0.520  0.531  0.561 16.27893 16.23803 -7.35811
 4.90 5.80  0.676  0.678  0.681  0.692  0.721 16.47883 16.43811 -7.15797
 4.90 6.00  0.846  0.847  0.850  0.860  0.888 16.67870 16.63819 -6.95782
 4.90 6.25  1.075  1.076  1.079  1.089  1.115 16.92841 16.88837 -6.70763
 4.90 6.50  1.312  1.312  1.315  1.324  1.348 17.17811 17.13862 -6.45742
 4.90 6.75  1.545  1.546  1.548  1.557  1.579 17.42786 17.38895 -6.20709
 4.90 7.00  1.788  1.789  1.792  1.799  1.820 17.67761 17.63939 -5.95664
 4.90 7.25  2.023  2.024  2.026  2.033  2.052 17.92699 17.88998 -5.70603
 4.90 7.50  2.261  2.262  2.264  2.270  2.286 18.17609 18.14082 -5.45519
 4.90 7.75  2.489  2.490  2.491  2.497  2.510 18.42486 18.39221 -5.20379
 4.90 8.00  2.720  2.720  2.720  2.725  2.737 18.67330 18.64404 -4.95195
 4.95-2.00 -0.425 -0.425 -0.425 -0.424 -0.421  8.62961  8.58715-15.00882
 4.95-1.50 -0.423 -0.423 -0.423 -0.420 -0.417  9.12969  9.08707-14.50892
 4.95-1.00 -0.418 -0.418 -0.418 -0.415 -0.410  9.62961  9.58715-14.00882
 4.95-0.50 -0.411 -0.410 -0.410 -0.407 -0.401 10.12969 10.08707-13.50892
 4.95 0.00 -0.401 -0.401 -0.400 -0.398 -0.390 10.62961 10.58715-13.00882
 4.95 0.50 -0.389 -0.389 -0.389 -0.385 -0.376 11.12969 11.08707-12.50878
 4.95 1.00 -0.378 -0.377 -0.377 -0.373 -0.361 11.62961 11.58726-12.00882
 4.95 1.25 -0.373 -0.373 -0.371 -0.367 -0.354 11.87965 11.83717-11.75880
 4.95 1.50 -0.367 -0.367 -0.365 -0.361 -0.347 12.12969 12.08707-11.50878
 4.95 1.75 -0.361 -0.361 -0.359 -0.354 -0.340 12.37960 12.33717-11.25877
 4.95 2.00 -0.355 -0.354 -0.352 -0.348 -0.333 12.62951 12.58726-11.00877
 4.95 2.25 -0.347 -0.347 -0.345 -0.340 -0.326 12.87943 12.83735-10.75878
 4.95 2.50 -0.340 -0.339 -0.338 -0.332 -0.317 13.12937 13.08743-10.50878
 4.95 2.75 -0.329 -0.329 -0.327 -0.321 -0.306 13.37944 13.33740-10.25873
 4.95 3.00 -0.317 -0.317 -0.315 -0.309 -0.293 13.62951 13.58737-10.00869
 4.95 3.20 -0.303 -0.303 -0.301 -0.294 -0.277 13.82945 13.78739 -9.80867
 4.95 3.40 -0.288 -0.286 -0.285 -0.278 -0.261 14.02940 13.98742 -9.60865
 4.95 3.60 -0.268 -0.267 -0.264 -0.258 -0.239 14.22938 14.18744 -9.40862
 4.95 3.80 -0.243 -0.242 -0.240 -0.233 -0.212 14.42939 14.38746 -9.20859
 4.95 4.00 -0.214 -0.213 -0.211 -0.203 -0.181 14.62941 14.58749 -9.00855
 4.95 4.20 -0.178 -0.176 -0.174 -0.166 -0.142 14.82940 14.78746 -8.80853
 4.95 4.40 -0.135 -0.134 -0.132 -0.123 -0.097 15.02938 14.98744 -8.60851
 4.95 4.60 -0.084 -0.083 -0.080 -0.071 -0.045 15.22933 15.18748 -8.40848
 4.95 4.80 -0.023 -0.022 -0.019 -0.010  0.019 15.42927 15.38760 -8.20843
 4.95 5.00  0.048  0.049  0.053  0.063  0.092 15.62921 15.58771 -8.00838
 4.95 5.20  0.135  0.137  0.140  0.150  0.179 15.82914 15.78774 -7.80832
 4.95 5.40  0.236  0.236  0.239  0.250  0.280 16.02908 15.98777 -7.60825
 4.95 5.60  0.353  0.354  0.357  0.368  0.396 16.22901 16.18782 -7.40818
 4.95 5.80  0.488  0.489  0.492  0.502  0.530 16.42891 16.38792 -7.20808
 4.95 6.00  0.634  0.635  0.638  0.647  0.674 16.62880 16.58805 -7.00798
 4.95 6.25  0.844  0.845  0.847  0.856  0.881 16.87860 16.83827 -6.75783
 4.95 6.50  1.064  1.065  1.068  1.076  1.099 17.12840 17.08849 -6.50766
 4.95 6.75  1.289  1.290  1.292  1.300  1.322 17.37824 17.33871 -6.25741
 4.95 7.00  1.526  1.527  1.529  1.536  1.556 17.62808 17.58894 -6.00709
 4.95 7.25  1.761  1.762  1.763  1.770  1.788 17.87766 17.83936 -5.75673
 4.95 7.50  1.999  1.999  2.002  2.007  2.023 18.12711 18.08990 -5.50626
 4.95 7.75  2.230  2.230  2.232  2.237  2.252 18.37647 18.34059 -5.25555
 4.95 8.00  2.464  2.464  2.465  2.470  2.483 18.62572 18.59140 -5.00463
 5.00-2.00 -0.428 -0.428 -0.428 -0.428 -0.426  8.57967  8.53719-15.05884
 5.00-1.50 -0.428 -0.428 -0.427 -0.426 -0.424  9.07954  9.03703-14.55893
 5.00-1.00 -0.425 -0.425 -0.425 -0.424 -0.421  9.57967  9.53719-14.05884
 5.00-0.50 -0.422 -0.422 -0.422 -0.420 -0.417 10.07954 10.03703-13.55893
 5.00 0.00 -0.417 -0.417 -0.417 -0.414 -0.410 10.57955 10.53719-13.05884
 5.00 0.50 -0.408 -0.408 -0.407 -0.405 -0.400 11.07954 11.03703-12.55878
 5.00 1.00 -0.396 -0.395 -0.395 -0.391 -0.383 11.57956 11.53719-12.05879
 5.00 1.25 -0.387 -0.387 -0.386 -0.383 -0.374 11.82955 11.78711-11.80878
 5.00 1.50 -0.378 -0.378 -0.377 -0.373 -0.363 12.07954 12.03703-11.55878
 5.00 1.75 -0.368 -0.368 -0.368 -0.363 -0.352 12.32955 12.28717-11.30878
 5.00 2.00 -0.358 -0.358 -0.356 -0.352 -0.339 12.57956 12.53732-11.05879
 5.00 2.25 -0.348 -0.348 -0.346 -0.341 -0.327 12.82955 12.78739-10.80879
 5.00 2.50 -0.337 -0.337 -0.336 -0.330 -0.314 13.07954 13.03743-10.55878
 5.00 2.75 -0.327 -0.326 -0.325 -0.319 -0.303 13.32955 13.28737-10.30873
 5.00 3.00 -0.316 -0.315 -0.313 -0.307 -0.289 13.57956 13.53732-10.05869
 5.00 3.20 -0.305 -0.304 -0.303 -0.296 -0.278 13.77956 13.73736 -9.85872
 5.00 3.40 -0.294 -0.293 -0.290 -0.284 -0.266 13.97955 13.93740 -9.65876
 5.00 3.60 -0.279 -0.278 -0.276 -0.270 -0.250 14.17953 14.13743 -9.45874
 5.00 3.80 -0.262 -0.261 -0.259 -0.252 -0.232 14.37950 14.33744 -9.25866
 5.00 4.00 -0.241 -0.240 -0.238 -0.231 -0.211 14.57944 14.53744 -9.05859
 5.00 4.20 -0.213 -0.212 -0.210 -0.202 -0.181 14.77934 14.73744 -8.85860
 5.00 4.40 -0.180 -0.178 -0.176 -0.169 -0.146 14.97923 14.93743 -8.65861
 5.00 4.60 -0.138 -0.137 -0.134 -0.125 -0.103 15.17919 15.13744 -8.45857
 5.00 4.80 -0.085 -0.084 -0.082 -0.073 -0.049 15.37920 15.33750 -8.25848
 5.00 5.00 -0.024 -0.023 -0.021 -0.011  0.014 15.57921 15.53757 -8.05839
 5.00 5.20  0.052  0.053  0.055  0.064  0.091 15.77921 15.73767 -7.85836
 5.00 5.40  0.138  0.140  0.142  0.152  0.179 15.97920 15.93777 -7.65832
 5.00 5.60  0.239  0.240  0.242  0.253  0.281 16.17913 16.13785 -7.45825
 5.00 5.80  0.354  0.355  0.358  0.368  0.396 16.37901 16.33790 -7.25815
 5.00 6.00  0.481  0.483  0.485  0.495  0.522 16.57887 16.53794 -7.05804
 5.00 6.25  0.663  0.664  0.667  0.676  0.701 16.82866 16.78806 -6.80794
 5.00 6.50  0.860  0.860  0.863  0.870  0.893 17.07846 17.03822 -6.55783
 5.00 6.75  1.073  1.074  1.076  1.084  1.104 17.32838 17.28846 -6.30763
 5.00 7.00  1.293  1.293  1.295  1.301  1.319 17.57830 17.53870 -6.05740
 5.00 7.25  1.522  1.523  1.524  1.530  1.547 17.82806 17.78886 -5.80716
 5.00 7.50  1.755  1.756  1.757  1.763  1.778 18.07773 18.03902 -5.55689
 5.00 7.75  1.987  1.987  1.989  1.993  2.007 18.32731 18.28950 -5.30641
 5.00 8.00  2.220  2.221  2.223  2.227  2.238 18.57680 18.54021 -5.05576
 5.05-2.00 -0.427 -0.427 -0.427 -0.426 -0.424  8.52969  8.48714-15.10885
 5.05-1.50 -0.426 -0.426 -0.426 -0.426 -0.424  9.02938  8.98713-14.60889
 5.05-1.00 -0.426 -0.426 -0.426 -0.426 -0.423  9.52956  9.48714-14.10885
 5.05-0.50 -0.424 -0.424 -0.424 -0.424 -0.421 10.02938  9.98717-13.60889
 5.05 0.00 -0.423 -0.423 -0.422 -0.421 -0.418 10.52956 10.48714-13.10880
 5.05 0.50 -0.419 -0.419 -0.418 -0.417 -0.413 11.02938 10.98717-12.60889
 5.05 1.00 -0.412 -0.412 -0.412 -0.410 -0.405 11.52956 11.48728-12.10880
 5.05 1.25 -0.407 -0.407 -0.407 -0.405 -0.399 11.77947 11.73723-11.85884
 5.05 1.50 -0.401 -0.401 -0.400 -0.399 -0.393 12.02938 11.98717-11.60889
 5.05 1.75 -0.394 -0.394 -0.393 -0.391 -0.383 12.27947 12.23723-11.35884
 5.05 2.00 -0.385 -0.385 -0.384 -0.381 -0.373 12.52956 12.48728-11.10880
 5.05 2.25 -0.373 -0.373 -0.373 -0.369 -0.359 12.77947 12.73725-10.85875
 5.05 2.50 -0.360 -0.360 -0.359 -0.355 -0.344 13.02938 12.98722-10.60871
 5.05 2.75 -0.345 -0.345 -0.343 -0.339 -0.326 13.27947 13.23725-10.35873
 5.05 3.00 -0.328 -0.327 -0.326 -0.321 -0.307 13.52956 13.48728-10.10874
 5.05 3.20 -0.314 -0.313 -0.312 -0.307 -0.290 13.72949 13.68729 -9.90874
 5.05 3.40 -0.299 -0.298 -0.296 -0.290 -0.273 13.92942 13.88730 -9.70872
 5.05 3.60 -0.282 -0.282 -0.280 -0.273 -0.255 14.12939 14.08733 -9.50870
 5.05 3.80 -0.266 -0.264 -0.263 -0.256 -0.236 14.32941 14.28738 -9.30866
 5.05 4.00 -0.246 -0.245 -0.243 -0.235 -0.215 14.52943 14.48742 -9.10863
 5.05 4.20 -0.224 -0.223 -0.221 -0.213 -0.191 14.72942 14.68743 -8.90859
 5.05 4.40 -0.197 -0.197 -0.195 -0.187 -0.164 14.92940 14.88744 -8.70855
 5.05 4.60 -0.166 -0.164 -0.162 -0.154 -0.131 15.12937 15.08747 -8.50852
 5.05 4.80 -0.125 -0.124 -0.122 -0.113 -0.090 15.32934 15.28752 -8.30849
 5.05 5.00 -0.078 -0.077 -0.075 -0.067 -0.043 15.52930 15.48756 -8.10846
 5.05 5.20 -0.017 -0.016 -0.014 -0.005  0.019 15.72917 15.68760 -7.90843
 5.05 5.40  0.054  0.056  0.057  0.067  0.090 15.92904 15.88765 -7.70838
 5.05 5.60  0.140  0.141  0.143  0.152  0.176 16.12899 16.08770 -7.50831
 5.05 5.80  0.241  0.242  0.244  0.254  0.278 16.32902 16.28777 -7.30822
 5.05 6.00  0.354  0.355  0.358  0.366  0.391 16.52905 16.48785 -7.10813
 5.05 6.25  0.520  0.521  0.522  0.531  0.555 16.77881 16.73795 -6.85807
 5.05 6.50  0.701  0.702  0.704  0.712  0.735 17.02857 16.98807 -6.60801
 5.05 6.75  0.903  0.903  0.905  0.912  0.933 17.27849 17.23822 -6.35779
 5.05 7.00  1.105  1.105  1.107  1.113  1.131 17.52840 17.48841 -6.10757
 5.05 7.25  1.323  1.325  1.326  1.332  1.347 17.77830 17.73862 -5.85735
 5.05 7.50  1.547  1.548  1.549  1.554  1.567 18.02817 17.98887 -5.60713
 5.05 7.75  1.774  1.775  1.776  1.780  1.793 18.27784 18.23923 -5.35678
 5.05 8.00  2.004  2.004  2.005  2.009  2.020 18.52737 18.48968 -5.10635
 5.10-2.00 -0.419 -0.419 -0.419 -0.419 -0.417  8.47958  8.43712-15.15883
 5.10-1.50 -0.419 -0.419 -0.419 -0.419 -0.417  8.97959  8.93717-14.65896
 5.10-1.00 -0.419 -0.419 -0.419 -0.419 -0.417  9.47958  9.43712-14.15883
 5.10-0.50 -0.419 -0.419 -0.419 -0.418 -0.416  9.97959  9.93717-13.65896
 5.10 0.00 -0.419 -0.419 -0.418 -0.418 -0.415 10.47958 10.43712-13.15883
 5.10 0.50 -0.417 -0.417 -0.417 -0.416 -0.414 10.97955 10.93717-12.65876
 5.10 1.00 -0.414 -0.414 -0.414 -0.412 -0.410 11.47958 11.43727-12.15883
 5.10 1.25 -0.412 -0.412 -0.411 -0.410 -0.407 11.72956 11.68722-11.90880
 5.10 1.50 -0.410 -0.409 -0.409 -0.407 -0.404 11.97955 11.93717-11.65876
 5.10 1.75 -0.405 -0.405 -0.405 -0.404 -0.400 12.22956 12.18722-11.40876
 5.10 2.00 -0.400 -0.400 -0.400 -0.399 -0.394 12.47958 12.43727-11.15877
 5.10 2.25 -0.394 -0.394 -0.394 -0.391 -0.387 12.72954 12.68725-10.90876
 5.10 2.50 -0.387 -0.387 -0.386 -0.383 -0.377 12.97950 12.93722-10.65876
 5.10 2.75 -0.376 -0.376 -0.376 -0.373 -0.365 13.22954 13.18725-10.40876
 5.10 3.00 -0.364 -0.363 -0.363 -0.359 -0.351 13.47958 13.43727-10.15877
 5.10 3.20 -0.350 -0.350 -0.350 -0.346 -0.336 13.67953 13.63727 -9.95877
 5.10 3.40 -0.336 -0.336 -0.335 -0.331 -0.319 13.87948 13.83727 -9.75876
 5.10 3.60 -0.318 -0.317 -0.317 -0.312 -0.299 14.07945 14.03730 -9.55874
 5.10 3.80 -0.298 -0.297 -0.296 -0.290 -0.276 14.27944 14.23737 -9.35869
 5.10 4.00 -0.274 -0.273 -0.272 -0.266 -0.249 14.47943 14.43743 -9.15864
 5.10 4.20 -0.249 -0.248 -0.246 -0.240 -0.221 14.67941 14.63743 -8.95861
 5.10 4.40 -0.218 -0.218 -0.216 -0.208 -0.189 14.87938 14.83742 -8.75858
 5.10 4.60 -0.185 -0.185 -0.183 -0.175 -0.153 15.07935 15.03745 -8.55856
 5.10 4.80 -0.148 -0.147 -0.145 -0.137 -0.113 15.27932 15.23752 -8.35853
 5.10 5.00 -0.104 -0.104 -0.101 -0.093 -0.068 15.47929 15.43759 -8.15851
 5.10 5.20 -0.054 -0.052 -0.051 -0.042 -0.018 15.67925 15.63760 -7.95846
 5.10 5.40  0.005  0.007  0.009  0.018  0.043 15.87921 15.83761 -7.75840
 5.10 5.60  0.076  0.077  0.079  0.087  0.112 16.07915 16.03764 -7.55834
 5.10 5.80  0.159  0.160  0.162  0.170  0.194 16.27907 16.23769 -7.35827
 5.10 6.00  0.252  0.253  0.256  0.263  0.288 16.47900 16.43775 -7.15820
 5.10 6.25  0.396  0.398  0.400  0.407  0.430 16.72891 16.68785 -6.90809
 5.10 6.50  0.558  0.558  0.561  0.568  0.589 16.97882 16.93797 -6.65797
 5.10 6.75  0.748  0.748  0.750  0.756  0.775 17.22871 17.18818 -6.40784
 5.10 7.00  0.944  0.945  0.947  0.952  0.970 17.47857 17.43839 -6.15770
 5.10 7.25  1.158  1.158  1.160  1.165  1.181 17.72839 17.68853 -5.90755
 5.10 7.50  1.379  1.380  1.381  1.385  1.398 17.97818 17.93867 -5.65738
 5.10 7.75  1.599  1.600  1.601  1.605  1.617 18.22795 18.18895 -5.40711
 5.10 8.00  1.823  1.823  1.825  1.827  1.838 18.47770 18.43933 -5.15677
 5.15-2.00 -0.406 -0.406 -0.406 -0.406 -0.405  8.42959  8.38721-15.20887
 5.15-1.50 -0.406 -0.406 -0.406 -0.406 -0.405  8.92957  8.88717-14.70885
 5.15-1.00 -0.406 -0.406 -0.406 -0.406 -0.405  9.42959  9.38721-14.20887
 5.15-0.50 -0.407 -0.407 -0.407 -0.406 -0.405  9.92957  9.88717-13.70885
 5.15 0.00 -0.407 -0.407 -0.406 -0.406 -0.405 10.42959 10.38721-13.20880
 5.15 0.50 -0.406 -0.406 -0.406 -0.405 -0.405 10.92957 10.88717-12.70885
 5.15 1.00 -0.405 -0.405 -0.405 -0.405 -0.403 11.42959 11.38721-12.20880
 5.15 1.25 -0.405 -0.405 -0.404 -0.404 -0.402 11.67958 11.63719-11.95883
 5.15 1.50 -0.404 -0.404 -0.404 -0.403 -0.400 11.92957 11.88717-11.70885
 5.15 1.75 -0.401 -0.401 -0.401 -0.401 -0.398 12.17958 12.13719-11.45883
 5.15 2.00 -0.400 -0.400 -0.400 -0.399 -0.396 12.42959 12.38721-11.20880
 5.15 2.25 -0.397 -0.397 -0.396 -0.395 -0.392 12.67956 12.63722-10.95883
 5.15 2.50 -0.393 -0.393 -0.393 -0.391 -0.388 12.92952 12.88722-10.70885
 5.15 2.75 -0.387 -0.387 -0.387 -0.386 -0.382 13.17956 13.13722-10.45879
 5.15 3.00 -0.381 -0.381 -0.380 -0.378 -0.374 13.42959 13.38721-10.20873
 5.15 3.20 -0.373 -0.373 -0.373 -0.371 -0.365 13.62954 13.58723-10.00878
 5.15 3.40 -0.364 -0.364 -0.364 -0.362 -0.355 13.82950 13.78726 -9.80883
 5.15 3.60 -0.354 -0.354 -0.353 -0.350 -0.343 14.02946 13.98730 -9.60882
 5.15 3.80 -0.340 -0.340 -0.339 -0.336 -0.327 14.22945 14.18735 -9.40874
 5.15 4.00 -0.324 -0.324 -0.323 -0.319 -0.310 14.42943 14.38739 -9.20866
 5.15 4.20 -0.303 -0.302 -0.301 -0.297 -0.285 14.62941 14.58739 -9.00865
 5.15 4.40 -0.277 -0.276 -0.275 -0.271 -0.257 14.82938 14.78739 -8.80864
 5.15 4.60 -0.245 -0.245 -0.243 -0.238 -0.223 15.02935 14.98743 -8.60861
 5.15 4.80 -0.207 -0.206 -0.205 -0.199 -0.182 15.22931 15.18750 -8.40856
 5.15 5.00 -0.162 -0.162 -0.159 -0.153 -0.133 15.42927 15.38757 -8.20852
 5.15 5.20 -0.110 -0.109 -0.108 -0.100 -0.079 15.62925 15.58757 -8.00848
 5.15 5.40 -0.049 -0.048 -0.047 -0.039 -0.016 15.82923 15.78756 -7.80843
 5.15 5.60  0.019  0.020  0.022  0.030  0.055 16.02920 15.98760 -7.60839
 5.15 5.80  0.095  0.096  0.098  0.106  0.131 16.22916 16.18767 -7.40835
 5.15 6.00  0.183  0.183  0.185  0.194  0.218 16.42911 16.38775 -7.20831
 5.15 6.25  0.306  0.307  0.309  0.317  0.340 16.67901 16.63779 -6.95825
 5.15 6.50  0.447  0.447  0.449  0.457  0.479 16.92891 16.88784 -6.70819
 5.15 6.75  0.614  0.614  0.617  0.623  0.642 17.17885 17.13806 -6.45800
 5.15 7.00  0.796  0.796  0.798  0.804  0.820 17.42878 17.38828 -6.20782
 5.15 7.25  0.995  0.995  0.997  1.002  1.016 17.67856 17.63840 -5.95767
 5.15 7.50  1.209  1.210  1.211  1.215  1.227 17.92834 17.88852 -5.70752
 5.15 7.75  1.431  1.431  1.432  1.435  1.447 18.17815 18.13873 -5.45731
 5.15 8.00  1.655  1.656  1.657  1.660  1.669 18.42797 18.38899 -5.20705
 5.20-2.00 -0.389 -0.389 -0.389 -0.388 -0.387  8.37967  8.33726-15.25885
 5.20-1.50 -0.389 -0.389 -0.389 -0.388 -0.387  8.87961  8.83715-14.75895
 5.20-1.00 -0.389 -0.389 -0.389 -0.388 -0.387  9.37967  9.33726-14.25885
 5.20-0.50 -0.389 -0.389 -0.389 -0.388 -0.387  9.87956  9.83715-13.75895
 5.20 0.00 -0.389 -0.389 -0.389 -0.388 -0.387 10.37967 10.33726-13.25885
 5.20 0.50 -0.389 -0.389 -0.389 -0.388 -0.387 10.87955 10.83715-12.75895
 5.20 1.00 -0.389 -0.389 -0.388 -0.388 -0.387 11.37967 11.33726-12.25885
 5.20 1.25 -0.388 -0.388 -0.388 -0.388 -0.387 11.62961 11.58720-12.00890
 5.20 1.50 -0.388 -0.388 -0.388 -0.387 -0.387 11.87955 11.83715-11.75895
 5.20 1.75 -0.387 -0.387 -0.387 -0.387 -0.386 12.12961 12.08720-11.50886
 5.20 2.00 -0.387 -0.387 -0.387 -0.386 -0.384 12.37967 12.33726-11.25877
 5.20 2.25 -0.386 -0.386 -0.386 -0.385 -0.382 12.62961 12.58724-11.00872
 5.20 2.50 -0.384 -0.384 -0.384 -0.383 -0.381 12.87955 12.83721-10.75870
 5.20 2.75 -0.382 -0.382 -0.381 -0.381 -0.378 13.12951 13.08723-10.50874
 5.20 3.00 -0.378 -0.378 -0.378 -0.377 -0.374 13.37949 13.33726-10.25877
 5.20 3.20 -0.374 -0.374 -0.374 -0.373 -0.370 13.57949 13.53727-10.05874
 5.20 3.40 -0.370 -0.370 -0.369 -0.368 -0.364 13.77950 13.73727 -9.85872
 5.20 3.60 -0.364 -0.363 -0.363 -0.362 -0.358 13.97950 13.93727 -9.65870
 5.20 3.80 -0.356 -0.356 -0.355 -0.354 -0.349 14.17949 14.13727 -9.45869
 5.20 4.00 -0.347 -0.347 -0.347 -0.345 -0.339 14.37949 14.33726 -9.25869
 5.20 4.20 -0.334 -0.333 -0.333 -0.331 -0.324 14.57945 14.53728 -9.05870
 5.20 4.40 -0.318 -0.318 -0.317 -0.315 -0.307 14.77940 14.73732 -8.85870
 5.20 4.60 -0.298 -0.298 -0.296 -0.294 -0.285 14.97936 14.93736 -8.65867
 5.20 4.80 -0.271 -0.271 -0.270 -0.266 -0.256 15.17933 15.13741 -8.45860
 5.20 5.00 -0.238 -0.238 -0.237 -0.233 -0.222 15.37931 15.33746 -8.25853
 5.20 5.20 -0.196 -0.194 -0.194 -0.190 -0.176 15.57929 15.53749 -8.05850
 5.20 5.40 -0.143 -0.142 -0.141 -0.136 -0.120 15.77928 15.73751 -7.85847
 5.20 5.60 -0.080 -0.079 -0.078 -0.072 -0.056 15.97924 15.93755 -7.65844
 5.20 5.80 -0.005 -0.005 -0.003  0.003  0.021 16.17918 16.13761 -7.45841
 5.20 6.00  0.081  0.081  0.083  0.090  0.111 16.37913 16.33766 -7.25838
 5.20 6.25  0.202  0.203  0.205  0.212  0.233 16.62906 16.58772 -7.00830
 5.20 6.50  0.342  0.343  0.345  0.352  0.373 16.87898 16.83778 -6.75820
 5.20 6.75  0.497  0.498  0.500  0.506  0.526 17.12888 17.08792 -6.50810
 5.20 7.00  0.668  0.668  0.670  0.676  0.694 17.37876 17.33806 -6.25798
 5.20 7.25  0.850  0.850  0.852  0.858  0.873 17.62864 17.58820 -6.00785
 5.20 7.50  1.050  1.051  1.051  1.056  1.069 17.87852 17.83834 -5.75771
 5.20 7.75  1.263  1.263  1.263  1.268  1.278 18.12838 18.08857 -5.50751
 5.20 8.00  1.480  1.481  1.481  1.484  1.493 18.37822 18.33885 -5.25728
 5.25-2.00 -0.363 -0.363 -0.363 -0.363 -0.362  8.32960  8.28713-15.30883
 5.25-1.50 -0.363 -0.363 -0.363 -0.363 -0.362  8.82956  8.78718-14.80883
 5.25-1.00 -0.363 -0.363 -0.363 -0.363 -0.362  9.32960  9.28713-14.30883
 5.25-0.50 -0.363 -0.363 -0.363 -0.363 -0.362  9.82956  9.78718-13.80883
 5.25 0.00 -0.363 -0.363 -0.363 -0.363 -0.362 10.32960 10.28713-13.30883
 5.25 0.50 -0.363 -0.363 -0.363 -0.363 -0.362 10.82956 10.78718-12.80883
 5.25 1.00 -0.363 -0.363 -0.363 -0.363 -0.362 11.32960 11.28713-12.30883
 5.25 1.25 -0.363 -0.363 -0.363 -0.363 -0.362 11.57958 11.53715-12.05883
 5.25 1.50 -0.363 -0.363 -0.363 -0.363 -0.362 11.82956 11.78718-11.80883
 5.25 1.75 -0.363 -0.363 -0.363 -0.363 -0.362 12.07958 12.03715-11.55883
 5.25 2.00 -0.363 -0.363 -0.363 -0.363 -0.361 12.32960 12.28713-11.30883
 5.25 2.25 -0.363 -0.363 -0.363 -0.362 -0.361 12.57958 12.53714-11.05883
 5.25 2.50 -0.362 -0.362 -0.362 -0.361 -0.360 12.82956 12.78718-10.80883
 5.25 2.75 -0.361 -0.361 -0.361 -0.361 -0.359 13.07958 13.03727-10.55879
 5.25 3.00 -0.359 -0.359 -0.359 -0.359 -0.357 13.32960 13.28735-10.30874
 5.25 3.20 -0.358 -0.358 -0.358 -0.357 -0.355 13.52956 13.48731-10.10878
 5.25 3.40 -0.355 -0.355 -0.355 -0.355 -0.352 13.72952 13.68727 -9.90881
 5.25 3.60 -0.352 -0.352 -0.352 -0.352 -0.349 13.92952 13.88727 -9.70881
 5.25 3.80 -0.349 -0.349 -0.348 -0.347 -0.345 14.12956 14.08731 -9.50878
 5.25 4.00 -0.343 -0.343 -0.343 -0.342 -0.338 14.32960 14.28735 -9.30874
 5.25 4.20 -0.336 -0.336 -0.335 -0.334 -0.331 14.52953 14.48734 -9.10878
 5.25 4.40 -0.326 -0.326 -0.326 -0.325 -0.321 14.72947 14.68733 -8.90881
 5.25 4.60 -0.314 -0.313 -0.313 -0.312 -0.307 14.92943 14.88732 -8.70878
 5.25 4.80 -0.298 -0.297 -0.296 -0.295 -0.289 15.12941 15.08733 -8.50867
 5.25 5.00 -0.276 -0.276 -0.276 -0.274 -0.267 15.32940 15.28735 -8.30857
 5.25 5.20 -0.248 -0.248 -0.246 -0.244 -0.236 15.52936 15.48739 -8.10856
 5.25 5.40 -0.212 -0.212 -0.211 -0.207 -0.199 15.72933 15.68744 -7.90855
 5.25 5.60 -0.166 -0.166 -0.164 -0.161 -0.151 15.92928 15.88748 -7.70852
 5.25 5.80 -0.108 -0.108 -0.107 -0.103 -0.091 16.12924 16.08753 -7.50845
 5.25 6.00 -0.039 -0.038 -0.038 -0.033 -0.020 16.32920 16.28758 -7.30839
 5.25 6.25  0.069  0.069  0.071  0.075  0.091 16.57912 16.53765 -7.05833
 5.25 6.50  0.199  0.199  0.201  0.206  0.221 16.82905 16.78774 -6.80827
 5.25 6.75  0.351  0.351  0.353  0.358  0.374 17.07902 17.03789 -6.55817
 5.25 7.00  0.522  0.522  0.524  0.529  0.545 17.32899 17.28802 -6.30804
 5.25 7.25  0.706  0.706  0.707  0.712  0.727 17.57879 17.53813 -6.05787
 5.25 7.50  0.901  0.902  0.904  0.908  0.921 17.82860 17.78824 -5.80771
 5.25 7.75  1.105  1.105  1.106  1.110  1.121 18.07846 18.03844 -5.55756
 5.25 8.00  1.316  1.316  1.317  1.320  1.329 18.32838 18.28870 -5.30742
 5.30-2.00 -0.331 -0.331 -0.331 -0.331 -0.330  8.27967  8.23729-15.35882
 5.30-1.50 -0.331 -0.331 -0.331 -0.331 -0.330  8.77960  8.73711-14.85886
 5.30-1.00 -0.331 -0.331 -0.331 -0.331 -0.330  9.27967  9.23729-14.35882
 5.30-0.50 -0.331 -0.331 -0.331 -0.331 -0.330  9.77960  9.73711-13.85886
 5.30 0.00 -0.331 -0.331 -0.331 -0.331 -0.330 10.27967 10.23729-13.35882
 5.30 0.50 -0.331 -0.331 -0.331 -0.331 -0.330 10.77960 10.73719-12.85886
 5.30 1.00 -0.331 -0.331 -0.331 -0.331 -0.330 11.27967 11.23729-12.35882
 5.30 1.25 -0.331 -0.331 -0.331 -0.331 -0.330 11.52963 11.48724-12.10884
 5.30 1.50 -0.331 -0.331 -0.331 -0.331 -0.330 11.77960 11.73719-11.85886
 5.30 1.75 -0.331 -0.331 -0.331 -0.331 -0.330 12.02963 11.98724-11.60884
 5.30 2.00 -0.331 -0.331 -0.331 -0.331 -0.330 12.27967 12.23729-11.35882
 5.30 2.25 -0.331 -0.331 -0.331 -0.331 -0.329 12.52960 12.48724-11.10884
 5.30 2.50 -0.331 -0.331 -0.331 -0.330 -0.329 12.77952 12.73719-10.85886
 5.30 2.75 -0.331 -0.331 -0.331 -0.330 -0.329 13.02960 12.98724-10.60884
 5.30 3.00 -0.330 -0.330 -0.330 -0.330 -0.327 13.27967 13.23729-10.35882
 5.30 3.20 -0.329 -0.329 -0.329 -0.328 -0.327 13.47961 13.43725-10.15884
 5.30 3.40 -0.328 -0.328 -0.327 -0.327 -0.326 13.67955 13.63721 -9.95886
 5.30 3.60 -0.326 -0.326 -0.326 -0.326 -0.324 13.87950 13.83721 -9.75884
 5.30 3.80 -0.324 -0.324 -0.324 -0.323 -0.322 14.07946 14.03725 -9.55878
 5.30 4.00 -0.322 -0.322 -0.322 -0.321 -0.319 14.27944 14.23729 -9.35872
 5.30 4.20 -0.317 -0.317 -0.317 -0.316 -0.314 14.47944 14.43728 -9.15878
 5.30 4.40 -0.312 -0.312 -0.311 -0.310 -0.308 14.67945 14.63728 -8.95884
 5.30 4.60 -0.304 -0.304 -0.303 -0.303 -0.299 14.87945 14.83727 -8.75882
 5.30 4.80 -0.293 -0.293 -0.293 -0.292 -0.289 15.07945 15.03728 -8.55872
 5.30 5.00 -0.280 -0.280 -0.280 -0.279 -0.275 15.27944 15.23729 -8.35862
 5.30 5.20 -0.261 -0.261 -0.261 -0.259 -0.255 15.47939 15.43735 -8.15860
 5.30 5.40 -0.237 -0.237 -0.237 -0.236 -0.230 15.67933 15.63740 -7.95856
 5.30 5.60 -0.206 -0.206 -0.206 -0.204 -0.197 15.87929 15.83745 -7.75853
 5.30 5.80 -0.166 -0.166 -0.166 -0.163 -0.156 16.07925 16.03750 -7.55848
 5.30 6.00 -0.116 -0.116 -0.116 -0.113 -0.105 16.27921 16.23754 -7.35843
 5.30 6.25 -0.035 -0.035 -0.034 -0.032 -0.022 16.52915 16.48761 -7.10833
 5.30 6.50  0.068  0.068  0.068  0.071  0.082 16.77909 16.73767 -6.85824
 5.30 6.75  0.198  0.199  0.199  0.203  0.213 17.02904 16.98773 -6.60818
 5.30 7.00  0.351  0.351  0.352  0.356  0.367 17.27898 17.23779 -6.35813
 5.30 7.25  0.530  0.530  0.530  0.534  0.545 17.52886 17.48791 -6.10804
 5.30 7.50  0.721  0.721  0.722  0.726  0.737 17.77873 17.73807 -5.85792
 5.30 7.75  0.927  0.927  0.928  0.931  0.941 18.02862 17.98828 -5.60775
 5.30 8.00  1.142  1.142  1.142  1.145  1.154 18.27853 18.23855 -5.35754
