
 ROSSELAND MASS ABSORPTION COEFFICENTS
 logT logP  0km/s  1km/s  2km/s  4km/s  8km/s  log Ne   log Na  log rho IPloCM-1
 3.32-2.00 -5.191 -5.179 -5.160 -5.130 -5.094  5.37894 10.53983-13.12378
 3.32-1.50 -5.224 -5.210 -5.190 -5.158 -5.121  5.79435 11.04060-12.62288
 3.32-1.00 -5.268 -5.254 -5.232 -5.199 -5.162  6.19756 11.54357-12.12004
 3.32-0.50 -5.311 -5.296 -5.275 -5.242 -5.204  6.60282 12.05192-11.61172
 3.32 0.00 -5.337 -5.322 -5.300 -5.267 -5.229  7.02694 12.57322-11.09044
 3.32 0.50 -5.339 -5.324 -5.302 -5.269 -5.232  7.46374 13.11428-10.54929
 3.32 1.00 -5.332 -5.316 -5.295 -5.262 -5.224  7.87593 13.66792 -9.99568
 3.32 1.25 -5.325 -5.310 -5.289 -5.256 -5.219  8.06441 13.94301 -9.72065
 3.32 1.50 -5.318 -5.302 -5.281 -5.249 -5.212  8.24378 14.21617 -9.44758
 3.32 1.75 -5.307 -5.291 -5.271 -5.239 -5.204  8.41410 14.48506 -9.17861
 3.32 2.00 -5.291 -5.276 -5.256 -5.226 -5.192  8.58070 14.75066 -8.91293
 3.32 2.25 -5.269 -5.256 -5.236 -5.208 -5.175  8.74427 15.01289 -8.65074
 3.32 2.50 -5.243 -5.229 -5.211 -5.184 -5.151  8.90784 15.27254 -8.39115
 3.32 2.75 -5.208 -5.195 -5.177 -5.152 -5.121  9.07294 15.52995 -8.13381
 3.32 3.00 -5.166 -5.153 -5.137 -5.112 -5.083  9.23880 15.78569 -7.87811
 3.32 3.20 -5.124 -5.113 -5.097 -5.075 -5.047  9.37220 15.98926 -7.67455
 3.32 3.40 -5.077 -5.067 -5.053 -5.032 -5.005  9.50559 16.19216 -7.47161
 3.32 3.60 -5.026 -5.016 -5.003 -4.983 -4.958  9.63787 16.39442 -7.26926
 3.32 3.80 -4.968 -4.959 -4.948 -4.929 -4.905  9.76723 16.59624 -7.06733
 3.32 4.00 -4.904 -4.897 -4.887 -4.870 -4.848  9.89421 16.79768 -6.86582
 3.32 4.20 -4.843 -4.837 -4.827 -4.811 -4.789 10.01693 16.99883 -6.66475
 3.32 4.40 -4.778 -4.771 -4.761 -4.745 -4.724 10.13649 17.19977 -6.46388
 3.32 4.60 -4.707 -4.701 -4.691 -4.676 -4.655 10.25272 17.40052 -6.26315
 3.32 4.80 -4.632 -4.626 -4.616 -4.601 -4.579 10.36617 17.60113 -6.06252
 3.32 5.00 -4.549 -4.543 -4.533 -4.518 -4.497 10.47712 17.80161 -5.86201
 3.32 5.20 -4.457 -4.451 -4.443 -4.428 -4.406 10.58583 18.00194 -5.66170
 3.32 5.40 -4.355 -4.349 -4.340 -4.326 -4.305 10.69296 18.20222 -5.46143
 3.32 5.60 -4.239 -4.234 -4.226 -4.212 -4.192 10.79862 18.40246 -5.26118
 3.32 5.80 -4.107 -4.103 -4.096 -4.083 -4.063 10.90326 18.60267 -5.06095
 3.32 6.00 -3.957 -3.952 -3.946 -3.934 -3.916 11.00690 18.80284 -4.86075
 3.32 6.25 -3.735 -3.732 -3.727 -3.716 -3.701 11.13523 19.05291 -4.61068
 3.32 6.50 -3.468 -3.465 -3.461 -3.453 -3.440 11.26269 19.30298 -4.36061
 3.32 6.75 -3.143 -3.141 -3.138 -3.131 -3.122 11.38959 19.55312 -4.11053
 3.32 7.00 -2.937 -2.936 -2.933 -2.928 -2.920 11.51587 19.80325 -3.86044
 3.32 7.25 -2.829 -2.828 -2.825 -2.820 -2.813 11.64160 20.05322 -3.61042
 3.32 7.50 -2.725 -2.723 -2.721 -2.716 -2.710 11.76671 20.30320 -3.36041
 3.32 7.75 -2.624 -2.623 -2.620 -2.616 -2.611 11.89115 20.55326 -3.11042
 3.32 8.00 -2.527 -2.525 -2.523 -2.519 -2.514 12.01494 20.80339 -2.86044
 3.34-2.00 -5.123 -5.113 -5.096 -5.068 -5.032  5.45117 10.51943-13.14424
 3.34-1.50 -5.136 -5.124 -5.105 -5.073 -5.035  5.89092 11.01953-12.64397
 3.34-1.00 -5.156 -5.142 -5.121 -5.087 -5.047  6.31302 11.52061-12.14303
 3.34-0.50 -5.183 -5.167 -5.144 -5.109 -5.068  6.72008 12.02325-11.64035
 3.34 0.00 -5.204 -5.187 -5.162 -5.126 -5.085  7.12353 12.53148-11.13224
 3.34 0.50 -5.196 -5.179 -5.154 -5.117 -5.076  7.54020 13.05231-10.61154
 3.34 1.00 -5.150 -5.133 -5.108 -5.071 -5.030  7.97350 13.59284-10.07084
 3.34 1.25 -5.118 -5.101 -5.077 -5.040 -4.999  8.18499 13.86949 -9.79420
 3.34 1.50 -5.086 -5.069 -5.045 -5.010 -4.969  8.39058 14.14613 -9.51756
 3.34 1.75 -5.055 -5.038 -5.015 -4.980 -4.941  8.58216 14.42132 -9.24240
 3.34 2.00 -5.025 -5.009 -4.986 -4.953 -4.915  8.76410 14.69478 -8.96900
 3.34 2.25 -4.995 -4.979 -4.957 -4.926 -4.888  8.93614 14.96388 -8.69980
 3.34 2.50 -4.965 -4.950 -4.928 -4.897 -4.862  9.10312 15.22968 -8.43392
 3.34 2.75 -4.931 -4.916 -4.896 -4.867 -4.833  9.26547 15.49214 -8.17160
 3.34 3.00 -4.893 -4.879 -4.859 -4.832 -4.800  9.42781 15.75197 -7.91186
 3.34 3.20 -4.857 -4.844 -4.826 -4.800 -4.769  9.55781 15.95812 -7.70563
 3.34 3.40 -4.817 -4.804 -4.788 -4.764 -4.734  9.68793 16.16318 -7.50052
 3.34 3.60 -4.771 -4.760 -4.744 -4.722 -4.694  9.81842 16.36718 -7.29653
 3.34 3.80 -4.719 -4.709 -4.696 -4.675 -4.649  9.94916 16.57046 -7.09332
 3.34 4.00 -4.661 -4.654 -4.642 -4.624 -4.599 10.07990 16.77306 -6.89076
 3.34 4.20 -4.608 -4.601 -4.590 -4.572 -4.548 10.20830 16.97506 -6.68867
 3.34 4.40 -4.552 -4.544 -4.534 -4.516 -4.493 10.33466 17.17669 -6.48697
 3.34 4.60 -4.493 -4.486 -4.476 -4.459 -4.437 10.45822 17.37802 -6.28565
 3.34 4.80 -4.434 -4.427 -4.418 -4.401 -4.378 10.57835 17.57914 -6.08457
 3.34 5.00 -4.373 -4.367 -4.357 -4.340 -4.317 10.69557 17.78003 -5.88373
 3.34 5.20 -4.310 -4.304 -4.294 -4.278 -4.256 10.80968 17.98072 -5.68305
 3.34 5.40 -4.245 -4.240 -4.230 -4.214 -4.192 10.92144 18.18127 -5.48250
 3.34 5.60 -4.178 -4.172 -4.164 -4.148 -4.127 11.03088 18.38168 -5.28205
 3.34 5.80 -4.110 -4.105 -4.097 -4.081 -4.059 11.13860 18.58201 -5.08169
 3.34 6.00 -4.040 -4.035 -4.027 -4.013 -3.992 11.24477 18.78226 -4.88141
 3.34 6.25 -3.952 -3.947 -3.940 -3.926 -3.905 11.37577 19.03244 -4.63118
 3.34 6.50 -3.862 -3.857 -3.850 -3.837 -3.818 11.50529 19.28262 -4.38101
 3.34 6.75 -3.772 -3.767 -3.761 -3.748 -3.730 11.63363 19.53280 -4.13086
 3.34 7.00 -3.680 -3.676 -3.670 -3.658 -3.641 11.76103 19.78298 -3.88074
 3.34 7.25 -3.590 -3.586 -3.580 -3.568 -3.552 11.88773 20.03303 -3.63067
 3.34 7.50 -3.499 -3.496 -3.490 -3.479 -3.464 12.01368 20.28308 -3.38059
 3.34 7.75 -3.409 -3.405 -3.400 -3.390 -3.376 12.13891 20.53313 -3.13051
 3.34 8.00 -3.319 -3.315 -3.310 -3.300 -3.288 12.26340 20.78319 -2.88041
 3.36-2.00 -5.036 -5.027 -5.011 -4.984 -4.950  5.54494 10.49941-13.16431
 3.36-1.50 -5.068 -5.058 -5.040 -5.011 -4.974  5.96431 10.99944-12.66414
 3.36-1.00 -5.079 -5.066 -5.046 -5.013 -4.973  6.39933 11.49982-12.16393
 3.36-0.50 -5.083 -5.069 -5.046 -5.010 -4.967  6.82497 12.00087-11.66294
 3.36 0.00 -5.083 -5.066 -5.041 -5.003 -4.958  7.23578 12.50352-11.16015
 3.36 0.50 -5.061 -5.043 -5.016 -4.977 -4.932  7.63988 13.01157-10.65189
 3.36 1.00 -4.997 -4.978 -4.952 -4.912 -4.867  8.05231 13.53288-10.13077
 3.36 1.25 -4.948 -4.929 -4.903 -4.863 -4.819  8.26666 13.80159 -9.86216
 3.36 1.50 -4.891 -4.873 -4.845 -4.807 -4.763  8.48101 14.07408 -9.58973
 3.36 1.75 -4.831 -4.812 -4.786 -4.748 -4.706  8.69221 14.35078 -9.31299
 3.36 2.00 -4.772 -4.753 -4.728 -4.692 -4.651  8.89922 14.62747 -9.03626
 3.36 2.25 -4.717 -4.698 -4.674 -4.639 -4.600  9.09237 14.90256 -8.76119
 3.36 2.50 -4.667 -4.649 -4.626 -4.593 -4.555  9.27577 15.17580 -8.48798
 3.36 2.75 -4.620 -4.603 -4.582 -4.550 -4.514  9.44866 15.44474 -8.21889
 3.36 3.00 -4.576 -4.560 -4.540 -4.510 -4.474  9.61574 15.71037 -7.95312
 3.36 3.20 -4.539 -4.524 -4.505 -4.477 -4.443  9.74539 15.92034 -7.74314
 3.36 3.40 -4.500 -4.487 -4.469 -4.443 -4.410  9.87440 16.12868 -7.53485
 3.36 3.60 -4.457 -4.446 -4.430 -4.405 -4.375 10.00281 16.33545 -7.32820
 3.36 3.80 -4.411 -4.401 -4.386 -4.364 -4.336 10.13108 16.54104 -7.12272
 3.36 4.00 -4.359 -4.352 -4.340 -4.319 -4.293 10.25935 16.74554 -6.91829
 3.36 4.20 -4.311 -4.304 -4.293 -4.274 -4.248 10.38766 16.94904 -6.71467
 3.36 4.40 -4.259 -4.252 -4.241 -4.223 -4.199 10.51597 17.15190 -6.51172
 3.36 4.60 -4.205 -4.198 -4.188 -4.171 -4.147 10.64342 17.35420 -6.30946
 3.36 4.80 -4.148 -4.142 -4.132 -4.115 -4.092 10.76861 17.55611 -6.10767
 3.36 5.00 -4.089 -4.083 -4.073 -4.057 -4.034 10.89193 17.75762 -5.90623
 3.36 5.20 -4.028 -4.022 -4.013 -3.997 -3.975 11.01191 17.95877 -5.70503
 3.36 5.40 -3.964 -3.959 -3.950 -3.934 -3.912 11.12927 18.15969 -5.50404
 3.36 5.60 -3.898 -3.893 -3.885 -3.870 -3.849 11.24381 18.36042 -5.30323
 3.36 5.80 -3.831 -3.826 -3.819 -3.804 -3.783 11.35591 18.56101 -5.10256
 3.36 6.00 -3.762 -3.757 -3.750 -3.736 -3.717 11.46583 18.76148 -4.90205
 3.36 6.25 -3.674 -3.670 -3.663 -3.651 -3.632 11.60057 19.01188 -4.65170
 3.36 6.50 -3.585 -3.581 -3.575 -3.563 -3.545 11.73304 19.26221 -4.40143
 3.36 6.75 -3.495 -3.492 -3.486 -3.475 -3.458 11.86366 19.51252 -4.15120
 3.36 7.00 -3.405 -3.401 -3.396 -3.385 -3.370 11.99282 19.76275 -3.90101
 3.36 7.25 -3.315 -3.312 -3.307 -3.297 -3.282 12.12078 20.01284 -3.65087
 3.36 7.50 -3.225 -3.222 -3.217 -3.208 -3.195 12.24773 20.26293 -3.40077
 3.36 7.75 -3.136 -3.133 -3.128 -3.120 -3.108 12.37387 20.51302 -3.15070
 3.36 8.00 -3.047 -3.044 -3.040 -3.032 -3.021 12.49914 20.76313 -2.90067
 3.38-2.00 -4.881 -4.873 -4.858 -4.833 -4.800  5.73576 10.47929-13.18436
 3.38-1.50 -4.959 -4.950 -4.933 -4.905 -4.869  6.09272 10.97937-12.68424
 3.38-1.00 -5.002 -4.991 -4.972 -4.941 -4.902  6.48671 11.47943-12.18422
 3.38-0.50 -5.009 -4.997 -4.975 -4.941 -4.898  6.90870 11.97978-11.68382
 3.38 0.00 -4.992 -4.976 -4.953 -4.915 -4.869  7.33304 12.48073-11.18290
 3.38 0.50 -4.949 -4.931 -4.905 -4.865 -4.816  7.74609 12.98376-10.67985
 3.38 1.00 -4.863 -4.843 -4.815 -4.774 -4.725  8.15168 13.49262-10.17108
 3.38 1.25 -4.801 -4.781 -4.753 -4.712 -4.664  8.35606 13.75177 -9.91195
 3.38 1.50 -4.727 -4.707 -4.679 -4.638 -4.590  8.56229 14.01494 -9.64878
 3.38 1.75 -4.644 -4.625 -4.597 -4.557 -4.511  8.77464 14.28425 -9.37949
 3.38 2.00 -4.557 -4.537 -4.511 -4.472 -4.428  8.98700 14.55715 -9.10657
 3.38 2.25 -4.470 -4.451 -4.426 -4.389 -4.347  9.19705 14.83387 -8.82978
 3.38 2.50 -4.389 -4.371 -4.347 -4.312 -4.272  9.40381 15.11059 -8.55300
 3.38 2.75 -4.315 -4.299 -4.277 -4.244 -4.205  9.59723 15.38546 -8.27813
 3.38 3.00 -4.251 -4.236 -4.215 -4.185 -4.148  9.78104 15.65830 -8.00533
 3.38 3.20 -4.203 -4.189 -4.171 -4.142 -4.107  9.91998 15.87335 -7.79026
 3.38 3.40 -4.159 -4.147 -4.129 -4.102 -4.069 10.05493 16.08632 -7.57729
 3.38 3.60 -4.115 -4.104 -4.088 -4.064 -4.033 10.18571 16.29711 -7.36655
 3.38 3.80 -4.070 -4.061 -4.047 -4.025 -3.995 10.31444 16.50607 -7.15767
 3.38 4.00 -4.024 -4.016 -4.005 -3.985 -3.958 10.44201 16.71341 -6.95039
 3.38 4.20 -3.982 -3.976 -3.964 -3.945 -3.919 10.56892 16.91925 -6.74450
 3.38 4.40 -3.937 -3.931 -3.921 -3.903 -3.878 10.69547 17.12407 -6.53964
 3.38 4.60 -3.890 -3.884 -3.875 -3.858 -3.834 10.82184 17.32791 -6.33572
 3.38 4.80 -3.841 -3.835 -3.826 -3.810 -3.786 10.94798 17.53108 -6.13250
 3.38 5.00 -3.788 -3.783 -3.774 -3.758 -3.735 11.07372 17.73360 -5.92996
 3.38 5.20 -3.731 -3.726 -3.718 -3.703 -3.681 11.19752 17.93556 -5.72812
 3.38 5.40 -3.672 -3.668 -3.660 -3.645 -3.624 11.31953 18.13714 -5.52661
 3.38 5.60 -3.609 -3.605 -3.598 -3.584 -3.564 11.43923 18.33838 -5.32534
 3.38 5.80 -3.545 -3.541 -3.535 -3.522 -3.501 11.55621 18.53940 -5.12424
 3.38 6.00 -3.478 -3.475 -3.468 -3.456 -3.437 11.67080 18.74021 -4.92336
 3.38 6.25 -3.394 -3.390 -3.384 -3.373 -3.355 11.81052 18.99097 -4.67272
 3.38 6.50 -3.306 -3.303 -3.298 -3.287 -3.270 11.94714 19.24155 -4.42216
 3.38 6.75 -3.218 -3.215 -3.210 -3.200 -3.185 12.08099 19.49199 -4.17163
 3.38 7.00 -3.129 -3.126 -3.122 -3.112 -3.099 12.21272 19.74233 -3.92118
 3.38 7.25 -3.041 -3.038 -3.034 -3.025 -3.012 12.34274 19.99259 -3.67100
 3.38 7.50 -2.951 -2.949 -2.945 -2.937 -2.926 12.47129 20.24279 -3.42090
 3.38 7.75 -2.863 -2.861 -2.857 -2.850 -2.840 12.59867 20.49294 -3.17084
 3.38 8.00 -2.776 -2.774 -2.770 -2.763 -2.754 12.72477 20.74304 -2.92082
 3.40-2.00 -4.687 -4.680 -4.666 -4.643 -4.613  5.97978 10.45939-13.20433
 3.40-1.50 -4.790 -4.781 -4.766 -4.740 -4.706  6.30728 10.95933-12.70443
 3.40-1.00 -4.871 -4.861 -4.844 -4.815 -4.777  6.64768 11.45939-12.20426
 3.40-0.50 -4.916 -4.905 -4.886 -4.852 -4.810  7.01787 11.95947-11.70421
 3.40 0.00 -4.913 -4.901 -4.878 -4.841 -4.795  7.42160 12.45984-11.20384
 3.40 0.50 -4.861 -4.846 -4.822 -4.782 -4.731  7.83935 12.96095-10.70268
 3.40 1.00 -4.756 -4.739 -4.712 -4.669 -4.618  8.25212 13.46434-10.19935
 3.40 1.25 -4.681 -4.663 -4.635 -4.592 -4.541  8.45559 13.71811 -9.94555
 3.40 1.50 -4.590 -4.570 -4.543 -4.500 -4.450  8.65906 13.97410 -9.68952
 3.40 1.75 -4.489 -4.469 -4.442 -4.400 -4.351  8.86354 14.23410 -9.42954
 3.40 2.00 -4.378 -4.359 -4.332 -4.292 -4.244  9.06930 14.49831 -9.16539
 3.40 2.25 -4.267 -4.249 -4.223 -4.184 -4.139  9.28012 14.76885 -8.89494
 3.40 2.50 -4.156 -4.139 -4.115 -4.079 -4.036  9.49094 15.04258 -8.62124
 3.40 2.75 -4.052 -4.037 -4.015 -3.982 -3.942  9.69937 15.31937 -8.34436
 3.40 3.00 -3.958 -3.945 -3.924 -3.894 -3.857  9.90445 15.59616 -8.06748
 3.40 3.20 -3.891 -3.879 -3.860 -3.832 -3.797 10.05912 15.81580 -7.84783
 3.40 3.40 -3.831 -3.820 -3.803 -3.777 -3.745 10.20780 16.03391 -7.62975
 3.40 3.60 -3.776 -3.766 -3.751 -3.728 -3.698 10.34967 16.24992 -7.41377
 3.40 3.80 -3.724 -3.716 -3.704 -3.683 -3.655 10.48613 16.46343 -7.20027
 3.40 4.00 -3.677 -3.670 -3.660 -3.642 -3.615 10.61847 16.67486 -6.98885
 3.40 4.20 -3.635 -3.629 -3.619 -3.602 -3.578 10.74708 16.88412 -6.77959
 3.40 4.40 -3.594 -3.588 -3.580 -3.564 -3.540 10.87423 17.09181 -6.57191
 3.40 4.60 -3.553 -3.548 -3.540 -3.524 -3.501 11.00020 17.29799 -6.36575
 3.40 4.80 -3.511 -3.506 -3.498 -3.483 -3.461 11.12553 17.50307 -6.16070
 3.40 5.00 -3.466 -3.462 -3.454 -3.439 -3.418 11.25018 17.70714 -5.95664
 3.40 5.20 -3.418 -3.413 -3.406 -3.393 -3.372 11.37457 17.91034 -5.75342
 3.40 5.40 -3.365 -3.361 -3.355 -3.342 -3.322 11.49816 18.11296 -5.55077
 3.40 5.60 -3.310 -3.307 -3.300 -3.287 -3.268 11.62066 18.31506 -5.34860
 3.40 5.80 -3.251 -3.247 -3.241 -3.230 -3.212 11.74134 18.51679 -5.14680
 3.40 6.00 -3.189 -3.186 -3.180 -3.169 -3.152 11.86028 18.71817 -4.94539
 3.40 6.25 -3.109 -3.106 -3.101 -3.090 -3.075 12.00523 18.96943 -4.69423
 3.40 6.50 -3.026 -3.023 -3.018 -3.008 -2.994 12.14675 19.22037 -4.44334
 3.40 6.75 -2.940 -2.938 -2.934 -2.925 -2.912 12.28476 19.47109 -4.19256
 3.40 7.00 -2.854 -2.851 -2.847 -2.839 -2.827 12.41996 19.72165 -3.94195
 3.40 7.25 -2.767 -2.765 -2.761 -2.754 -2.743 12.55270 19.97211 -3.69159
 3.40 7.50 -2.680 -2.678 -2.674 -2.668 -2.658 12.68341 20.22246 -3.44129
 3.40 7.75 -2.593 -2.591 -2.588 -2.582 -2.573 12.81251 20.47269 -3.19103
 3.40 8.00 -2.508 -2.506 -2.503 -2.498 -2.489 12.93987 20.72280 -2.94082
 3.42-2.00 -4.501 -4.494 -4.482 -4.461 -4.433  6.20385 10.43933-13.22432
 3.42-1.50 -4.598 -4.591 -4.577 -4.553 -4.522  6.54444 10.93937-12.72423
 3.42-1.00 -4.694 -4.685 -4.670 -4.643 -4.607  6.87186 11.43949-12.22424
 3.42-0.50 -4.768 -4.758 -4.740 -4.709 -4.668  7.20249 11.93942-11.72423
 3.42 0.00 -4.799 -4.788 -4.767 -4.731 -4.685  7.55461 12.43965-11.22410
 3.42 0.50 -4.770 -4.756 -4.732 -4.693 -4.642  7.93882 12.94002-10.72377
 3.42 1.00 -4.666 -4.651 -4.626 -4.583 -4.528  8.34537 13.44138-10.22236
 3.42 1.25 -4.584 -4.569 -4.542 -4.500 -4.445  8.55021 13.69286 -9.97089
 3.42 1.50 -4.483 -4.467 -4.441 -4.398 -4.344  8.75504 13.94527 -9.71851
 3.42 1.75 -4.366 -4.350 -4.324 -4.281 -4.229  8.95865 14.19964 -9.46408
 3.42 2.00 -4.237 -4.220 -4.193 -4.153 -4.103  9.16227 14.45652 -9.20712
 3.42 2.25 -4.102 -4.085 -4.061 -4.022 -3.975  9.36710 14.71784 -8.94587
 3.42 2.50 -3.966 -3.950 -3.927 -3.891 -3.847  9.57322 14.98354 -8.68027
 3.42 2.75 -3.836 -3.822 -3.801 -3.769 -3.728  9.78282 15.25553 -8.40816
 3.42 3.00 -3.714 -3.702 -3.683 -3.654 -3.617  9.99242 15.53007 -8.13354
 3.42 3.20 -3.624 -3.614 -3.597 -3.571 -3.536 10.15785 15.75144 -7.91214
 3.42 3.40 -3.543 -3.533 -3.519 -3.495 -3.463 10.32065 15.97282 -7.69074
 3.42 3.60 -3.469 -3.461 -3.448 -3.427 -3.398 10.47827 16.19329 -7.47027
 3.42 3.80 -3.402 -3.396 -3.385 -3.366 -3.340 10.62832 16.41156 -7.25205
 3.42 4.00 -3.343 -3.338 -3.329 -3.312 -3.289 10.77254 16.62808 -7.03560
 3.42 4.20 -3.294 -3.290 -3.281 -3.266 -3.244 10.90985 16.84171 -6.82197
 3.42 4.40 -3.249 -3.245 -3.238 -3.223 -3.202 11.04311 17.05332 -6.61034
 3.42 4.60 -3.208 -3.204 -3.196 -3.183 -3.163 11.17231 17.26290 -6.40075
 3.42 4.80 -3.168 -3.164 -3.158 -3.145 -3.126 11.29920 17.47087 -6.19279
 3.42 5.00 -3.128 -3.124 -3.118 -3.106 -3.088 11.42439 17.67733 -5.98632
 3.42 5.20 -3.087 -3.084 -3.078 -3.066 -3.048 11.54860 17.88243 -5.78119
 3.42 5.40 -3.043 -3.040 -3.034 -3.023 -3.006 11.67194 18.08661 -5.57698
 3.42 5.60 -2.995 -2.992 -2.987 -2.976 -2.960 11.79467 18.28996 -5.37360
 3.42 5.80 -2.944 -2.941 -2.936 -2.926 -2.910 11.91673 18.49274 -5.17080
 3.42 6.00 -2.890 -2.887 -2.882 -2.873 -2.858 12.03783 18.69496 -4.96859
 3.42 6.25 -2.817 -2.814 -2.810 -2.801 -2.787 12.18654 18.94707 -4.71660
 3.42 6.50 -2.740 -2.738 -2.734 -2.726 -2.712 12.33244 19.19866 -4.46509
 3.42 6.75 -2.660 -2.658 -2.654 -2.647 -2.635 12.47480 19.44982 -4.21389
 3.42 7.00 -2.577 -2.575 -2.572 -2.565 -2.554 12.61405 19.70070 -3.96297
 3.42 7.25 -2.494 -2.493 -2.489 -2.483 -2.473 12.75018 19.95141 -3.71232
 3.42 7.50 -2.410 -2.408 -2.405 -2.400 -2.391 12.88372 20.20194 -3.46180
 3.42 7.75 -2.326 -2.324 -2.321 -2.316 -2.308 13.01513 20.45231 -3.21135
 3.42 8.00 -2.243 -2.241 -2.239 -2.234 -2.227 13.14426 20.70252 -2.96098
 3.44-2.00 -4.351 -4.345 -4.333 -4.314 -4.288  6.36903 10.41929-13.24435
 3.44-1.50 -4.425 -4.418 -4.405 -4.383 -4.354  6.74788 10.91934-12.74425
 3.44-1.00 -4.510 -4.502 -4.487 -4.462 -4.428  7.09761 11.41946-12.24428
 3.44-0.50 -4.587 -4.578 -4.561 -4.532 -4.494  7.42797 11.91939-11.74425
 3.44 0.00 -4.636 -4.625 -4.605 -4.572 -4.527  7.75397 12.41946-11.24420
 3.44 0.50 -4.632 -4.619 -4.597 -4.558 -4.507  8.09307 12.91960-10.74401
 3.44 1.00 -4.554 -4.539 -4.515 -4.472 -4.416  8.45969 13.42012-10.24352
 3.44 1.25 -4.480 -4.465 -4.440 -4.396 -4.338  8.65429 13.67073 -9.99299
 3.44 1.50 -4.383 -4.367 -4.342 -4.299 -4.241  8.85266 13.92174 -9.74208
 3.44 1.75 -4.262 -4.247 -4.223 -4.180 -4.123  9.05390 14.17355 -9.49021
 3.44 2.00 -4.124 -4.110 -4.085 -4.045 -3.991  9.25624 14.42651 -9.23710
 3.44 2.25 -3.973 -3.959 -3.937 -3.899 -3.849  9.45894 14.68178 -8.98184
 3.44 2.50 -3.817 -3.804 -3.783 -3.748 -3.702  9.66257 14.93992 -8.72377
 3.44 2.75 -3.663 -3.651 -3.632 -3.601 -3.559  9.86786 15.20302 -8.46069
 3.44 3.00 -3.515 -3.504 -3.487 -3.459 -3.422 10.07445 15.47056 -8.19314
 3.44 3.20 -3.405 -3.396 -3.381 -3.356 -3.322 10.24116 15.68936 -7.97421
 3.44 3.40 -3.303 -3.295 -3.282 -3.259 -3.229 10.40787 15.90921 -7.75430
 3.44 3.60 -3.209 -3.202 -3.190 -3.171 -3.143 10.57338 16.13013 -7.53341
 3.44 3.80 -3.123 -3.117 -3.108 -3.091 -3.067 10.73524 16.35133 -7.31227
 3.44 4.00 -3.046 -3.042 -3.034 -3.019 -2.997 10.89382 16.57252 -7.09114
 3.44 4.20 -2.981 -2.978 -2.970 -2.957 -2.937 11.04438 16.79084 -6.87294
 3.44 4.40 -2.924 -2.921 -2.914 -2.902 -2.884 11.18927 17.00718 -6.65668
 3.44 4.60 -2.874 -2.872 -2.865 -2.854 -2.837 11.32787 17.22117 -6.44269
 3.44 4.80 -2.830 -2.827 -2.822 -2.811 -2.795 11.46152 17.43284 -6.23094
 3.44 5.00 -2.789 -2.786 -2.781 -2.771 -2.755 11.59129 17.64256 -6.02113
 3.44 5.20 -2.749 -2.746 -2.741 -2.732 -2.717 11.71777 17.85052 -5.81319
 3.44 5.40 -2.710 -2.708 -2.703 -2.693 -2.678 11.84248 18.05710 -5.60665
 3.44 5.60 -2.669 -2.666 -2.662 -2.653 -2.639 11.96575 18.26229 -5.40150
 3.44 5.80 -2.625 -2.622 -2.618 -2.610 -2.596 12.08806 18.46650 -5.19732
 3.44 6.00 -2.578 -2.576 -2.572 -2.563 -2.551 12.20925 18.66988 -4.99396
 3.44 6.25 -2.515 -2.513 -2.509 -2.501 -2.489 12.35958 18.92324 -4.74058
 3.44 6.50 -2.447 -2.445 -2.442 -2.435 -2.424 12.50799 19.17580 -4.48798
 3.44 6.75 -2.375 -2.373 -2.370 -2.363 -2.353 12.65383 19.42766 -4.23607
 3.44 7.00 -2.298 -2.297 -2.294 -2.288 -2.278 12.79692 19.67907 -3.98464
 3.44 7.25 -2.221 -2.219 -2.216 -2.211 -2.202 12.93659 19.93016 -3.73360
 3.44 7.50 -2.141 -2.139 -2.137 -2.131 -2.124 13.07335 20.18099 -3.48280
 3.44 7.75 -2.060 -2.059 -2.056 -2.051 -2.044 13.20747 20.43163 -3.23217
 3.44 8.00 -1.980 -1.979 -1.976 -1.972 -1.965 13.33885 20.68206 -2.98172
 3.46-2.00 -4.247 -4.242 -4.231 -4.213 -4.188  6.46864 10.39933-13.26440
 3.46-1.50 -4.293 -4.286 -4.274 -4.253 -4.225  6.88913 10.89927-12.76447
 3.46-1.00 -4.350 -4.342 -4.329 -4.305 -4.271  7.27944 11.39933-12.26432
 3.46-0.50 -4.409 -4.400 -4.384 -4.356 -4.319  7.63859 11.89933-11.76447
 3.46 0.00 -4.451 -4.441 -4.423 -4.390 -4.347  7.97382 12.39933-11.26432
 3.46 0.50 -4.454 -4.442 -4.421 -4.382 -4.332  8.29863 12.89944-10.76422
 3.46 1.00 -4.394 -4.380 -4.356 -4.314 -4.256  8.62941 13.39967-10.26400
 3.46 1.25 -4.333 -4.318 -4.293 -4.249 -4.190  8.80259 13.64991-10.01380
 3.46 1.50 -4.248 -4.234 -4.209 -4.164 -4.104  8.98173 13.90031 -9.76346
 3.46 1.75 -4.139 -4.125 -4.099 -4.055 -3.997  9.16869 14.15111 -9.51267
 3.46 2.00 -4.006 -3.993 -3.970 -3.928 -3.871  9.36078 14.40243 -9.26130
 3.46 2.25 -3.856 -3.843 -3.821 -3.782 -3.729  9.55722 14.65471 -9.00897
 3.46 2.50 -3.693 -3.682 -3.662 -3.627 -3.579  9.75648 14.90838 -8.75523
 3.46 2.75 -3.526 -3.515 -3.498 -3.466 -3.424  9.95762 15.16488 -8.49875
 3.46 3.00 -3.359 -3.350 -3.334 -3.307 -3.269 10.16077 15.42472 -8.23898
 3.46 3.20 -3.230 -3.222 -3.208 -3.184 -3.150 10.32511 15.63659 -8.02709
 3.46 3.40 -3.108 -3.100 -3.088 -3.067 -3.037 10.49000 15.85127 -7.81240
 3.46 3.60 -2.993 -2.987 -2.977 -2.958 -2.932 10.65545 16.06997 -7.59368
 3.46 3.80 -2.888 -2.883 -2.875 -2.859 -2.836 10.82107 16.29059 -7.37305
 3.46 4.00 -2.792 -2.788 -2.781 -2.768 -2.748 10.98668 16.51122 -7.15243
 3.46 4.20 -2.710 -2.706 -2.700 -2.688 -2.670 11.14773 16.73181 -6.93183
 3.46 4.40 -2.635 -2.633 -2.627 -2.616 -2.600 11.30480 16.95234 -6.71128
 3.46 4.60 -2.571 -2.569 -2.563 -2.554 -2.539 11.45629 17.17141 -6.49220
 3.46 4.80 -2.515 -2.513 -2.508 -2.499 -2.485 11.60112 17.38751 -6.27613
 3.46 5.00 -2.465 -2.463 -2.458 -2.450 -2.437 11.74052 17.60152 -6.06213
 3.46 5.20 -2.421 -2.419 -2.415 -2.407 -2.394 11.87404 17.81298 -5.85058
 3.46 5.40 -2.379 -2.377 -2.373 -2.365 -2.353 12.00389 18.02263 -5.64087
 3.46 5.60 -2.339 -2.337 -2.333 -2.326 -2.314 12.13015 18.23052 -5.43300
 3.46 5.80 -2.299 -2.297 -2.293 -2.286 -2.275 12.25420 18.43707 -5.22654
 3.46 6.00 -2.259 -2.257 -2.253 -2.247 -2.236 12.37640 18.64237 -5.02132
 3.46 6.25 -2.204 -2.203 -2.199 -2.193 -2.183 12.52762 18.89747 -4.76621
 3.46 6.50 -2.146 -2.144 -2.141 -2.135 -2.125 12.67688 19.15137 -4.51230
 3.46 6.75 -2.083 -2.081 -2.078 -2.072 -2.063 12.82453 19.40433 -4.25934
 3.46 7.00 -2.015 -2.013 -2.011 -2.005 -1.997 12.97002 19.65658 -4.00709
 3.46 7.25 -1.945 -1.943 -1.941 -1.936 -1.928 13.11271 19.90828 -3.75544
 3.46 7.50 -1.871 -1.870 -1.867 -1.862 -1.855 13.25261 20.15957 -3.50418
 3.46 7.75 -1.796 -1.794 -1.792 -1.788 -1.781 13.38946 20.41057 -3.25318
 3.46 8.00 -1.720 -1.719 -1.716 -1.712 -1.706 13.52336 20.66124 -3.00248
 3.48-2.00 -4.187 -4.181 -4.172 -4.154 -4.132  6.51402 10.37894-13.28475
 3.48-1.50 -4.203 -4.196 -4.185 -4.165 -4.139  6.97137 10.87892-12.78463
 3.48-1.00 -4.232 -4.224 -4.211 -4.187 -4.156  7.40157 11.37894-12.28467
 3.48-0.50 -4.262 -4.253 -4.238 -4.211 -4.175  7.80223 11.87898-11.78463
 3.48 0.00 -4.279 -4.269 -4.251 -4.219 -4.177  8.17085 12.37912-11.28467
 3.48 0.50 -4.265 -4.253 -4.232 -4.196 -4.146  8.51188 12.87904-10.78463
 3.48 1.00 -4.202 -4.189 -4.166 -4.125 -4.068  8.83740 13.37912-10.28450
 3.48 1.25 -4.146 -4.133 -4.108 -4.065 -4.006  9.00013 13.62924-10.03443
 3.48 1.50 -4.071 -4.057 -4.031 -3.988 -3.929  9.16286 13.87944 -9.78436
 3.48 1.75 -3.972 -3.958 -3.934 -3.890 -3.832  9.33112 14.12980 -9.53399
 3.48 2.00 -3.854 -3.841 -3.817 -3.775 -3.717  9.50420 14.38039 -9.28333
 3.48 2.25 -3.715 -3.702 -3.681 -3.641 -3.587  9.68433 14.63135 -9.03231
 3.48 2.50 -3.562 -3.550 -3.530 -3.495 -3.445  9.87011 14.88292 -8.78068
 3.48 2.75 -3.396 -3.386 -3.369 -3.336 -3.292 10.06144 15.13592 -8.52771
 3.48 3.00 -3.225 -3.216 -3.201 -3.173 -3.134 10.25696 15.39076 -8.27295
 3.48 3.20 -3.087 -3.079 -3.066 -3.041 -3.007 10.41585 15.59696 -8.06679
 3.48 3.40 -2.951 -2.945 -2.933 -2.912 -2.882 10.57668 15.80557 -7.85821
 3.48 3.60 -2.821 -2.815 -2.805 -2.787 -2.761 10.74012 16.01745 -7.64628
 3.48 3.80 -2.697 -2.692 -2.684 -2.668 -2.646 10.90471 16.23272 -7.43093
 3.48 4.00 -2.581 -2.577 -2.570 -2.558 -2.539 11.06930 16.45056 -7.21304
 3.48 4.20 -2.480 -2.477 -2.470 -2.459 -2.443 11.23363 16.67189 -6.99180
 3.48 4.40 -2.387 -2.385 -2.380 -2.370 -2.355 11.39751 16.89322 -6.77057
 3.48 4.60 -2.306 -2.304 -2.299 -2.290 -2.277 11.55890 17.11422 -6.54964
 3.48 4.80 -2.234 -2.232 -2.228 -2.220 -2.208 11.71474 17.33409 -6.32973
 3.48 5.00 -2.171 -2.169 -2.165 -2.158 -2.146 11.86605 17.55291 -6.11081
 3.48 5.20 -2.116 -2.114 -2.110 -2.104 -2.093 12.01020 17.76873 -5.89501
 3.48 5.40 -2.066 -2.064 -2.061 -2.054 -2.044 12.14916 17.98243 -5.68133
 3.48 5.60 -2.021 -2.019 -2.016 -2.010 -2.000 12.28264 18.19387 -5.46989
 3.48 5.80 -1.980 -1.979 -1.975 -1.969 -1.960 12.41200 18.40334 -5.26040
 3.48 6.00 -1.940 -1.938 -1.936 -1.930 -1.921 12.53794 18.61109 -5.05262
 3.48 6.25 -1.890 -1.889 -1.886 -1.880 -1.872 12.69172 18.86864 -4.79500
 3.48 6.50 -1.839 -1.837 -1.835 -1.829 -1.821 12.84255 19.12450 -4.53910
 3.48 6.75 -1.784 -1.783 -1.780 -1.775 -1.767 12.99137 19.37907 -4.28456
 3.48 7.00 -1.726 -1.725 -1.722 -1.717 -1.710 13.13799 19.63256 -4.03110
 3.48 7.25 -1.665 -1.663 -1.661 -1.656 -1.649 13.28265 19.88510 -3.77858
 3.48 7.50 -1.599 -1.598 -1.595 -1.591 -1.584 13.42488 20.13704 -3.52666
 3.48 7.75 -1.531 -1.530 -1.527 -1.523 -1.517 13.56411 20.38859 -3.27510
 3.48 8.00 -1.461 -1.460 -1.458 -1.454 -1.448 13.70053 20.63969 -3.02397
 3.50-2.00 -4.159 -4.155 -4.147 -4.134 -4.117  6.51812 10.35927-13.30452
 3.50-1.50 -4.153 -4.148 -4.137 -4.120 -4.097  7.00217 10.85920-12.80438
 3.50-1.00 -4.154 -4.148 -4.135 -4.113 -4.084  7.46657 11.35927-12.30443
 3.50-0.50 -4.157 -4.149 -4.134 -4.108 -4.073  7.90390 11.85926-11.80438
 3.50 0.00 -4.144 -4.134 -4.117 -4.086 -4.044  8.31197 12.35927-11.30434
 3.50 0.50 -4.099 -4.087 -4.066 -4.030 -3.982  8.68744 12.85932-10.80438
 3.50 1.00 -4.012 -4.000 -3.977 -3.935 -3.881  9.03342 13.35946-10.30426
 3.50 1.25 -3.950 -3.937 -3.913 -3.870 -3.813  9.19789 13.60948-10.05419
 3.50 1.50 -3.872 -3.859 -3.835 -3.792 -3.734  9.36059 13.85950 -9.80410
 3.50 1.75 -3.778 -3.764 -3.740 -3.698 -3.640  9.52200 14.10970 -9.55396
 3.50 2.00 -3.667 -3.654 -3.631 -3.590 -3.535  9.68341 14.36002 -9.30373
 3.50 2.25 -3.540 -3.528 -3.506 -3.468 -3.415  9.84857 14.61045 -9.05325
 3.50 2.50 -3.400 -3.389 -3.369 -3.334 -3.284 10.01745 14.86112 -8.80244
 3.50 2.75 -3.247 -3.237 -3.219 -3.187 -3.143 10.19265 15.11247 -8.55108
 3.50 3.00 -3.084 -3.076 -3.060 -3.032 -2.994 10.37346 15.36474 -8.29886
 3.50 3.20 -2.949 -2.942 -2.928 -2.904 -2.869 10.52253 15.56779 -8.09588
 3.50 3.40 -2.813 -2.806 -2.794 -2.772 -2.742 10.67496 15.77234 -7.89141
 3.50 3.60 -2.676 -2.670 -2.659 -2.641 -2.615 10.83093 15.97892 -7.68488
 3.50 3.80 -2.541 -2.536 -2.527 -2.512 -2.490 10.98967 16.18845 -7.47534
 3.50 4.00 -2.411 -2.407 -2.400 -2.387 -2.369 11.15076 16.40071 -7.26305
 3.50 4.20 -2.292 -2.289 -2.283 -2.272 -2.256 11.31480 16.61733 -7.04639
 3.50 4.40 -2.181 -2.179 -2.173 -2.164 -2.150 11.47884 16.83587 -6.82783
 3.50 4.60 -2.081 -2.079 -2.074 -2.066 -2.054 11.64242 17.05663 -6.60708
 3.50 4.80 -1.992 -1.991 -1.987 -1.979 -1.968 11.80426 17.27816 -6.38557
 3.50 5.00 -1.913 -1.911 -1.908 -1.901 -1.891 11.96440 17.49969 -6.16406
 3.50 5.20 -1.844 -1.843 -1.839 -1.833 -1.823 12.11852 17.71905 -5.94466
 3.50 5.40 -1.782 -1.781 -1.778 -1.772 -1.763 12.26770 17.93673 -5.72694
 3.50 5.60 -1.727 -1.726 -1.723 -1.717 -1.709 12.41106 18.15228 -5.51137
 3.50 5.80 -1.679 -1.678 -1.674 -1.669 -1.661 12.54866 18.36545 -5.29823
 3.50 6.00 -1.635 -1.634 -1.631 -1.626 -1.618 12.68142 18.57657 -5.08714
 3.50 6.25 -1.584 -1.582 -1.580 -1.575 -1.567 12.84105 18.83760 -4.82613
 3.50 6.50 -1.535 -1.533 -1.531 -1.526 -1.519 12.99585 19.09621 -4.56751
 3.50 6.75 -1.485 -1.484 -1.482 -1.477 -1.470 13.14698 19.35274 -4.31096
 3.50 7.00 -1.435 -1.434 -1.432 -1.427 -1.420 13.29513 19.60778 -4.05591
 3.50 7.25 -1.382 -1.380 -1.378 -1.374 -1.367 13.44109 19.86166 -3.80207
 3.50 7.50 -1.325 -1.323 -1.321 -1.317 -1.311 13.58456 20.11461 -3.54914
 3.50 7.75 -1.265 -1.263 -1.261 -1.257 -1.251 13.72550 20.36687 -3.29686
 3.50 8.00 -1.203 -1.201 -1.199 -1.195 -1.189 13.86392 20.61836 -3.04532
 3.52-2.00 -4.143 -4.140 -4.135 -4.126 -4.114  6.50745 10.33905-13.32450
 3.52-1.50 -4.133 -4.128 -4.121 -4.107 -4.090  7.00087 10.83916-12.82449
 3.52-1.00 -4.116 -4.110 -4.100 -4.081 -4.056  7.48770 11.33925-12.32450
 3.52-0.50 -4.093 -4.085 -4.071 -4.047 -4.016  7.95789 11.83923-11.82449
 3.52 0.00 -4.052 -4.042 -4.026 -3.996 -3.957  8.40192 12.33925-11.32440
 3.52 0.50 -3.974 -3.963 -3.943 -3.908 -3.861  8.81624 12.83929-10.82449
 3.52 1.00 -3.852 -3.839 -3.817 -3.776 -3.723  9.19838 13.33945-10.32431
 3.52 1.25 -3.774 -3.761 -3.738 -3.697 -3.640  9.37697 13.58943-10.07426
 3.52 1.50 -3.684 -3.671 -3.647 -3.606 -3.549  9.54913 13.83942 -9.82420
 3.52 1.75 -3.582 -3.569 -3.546 -3.505 -3.449  9.71507 14.08950 -9.57413
 3.52 2.00 -3.469 -3.456 -3.434 -3.395 -3.341  9.87812 14.33965 -9.32404
 3.52 2.25 -3.345 -3.333 -3.312 -3.275 -3.224 10.03866 14.58985 -9.07388
 3.52 2.50 -3.211 -3.201 -3.182 -3.148 -3.101 10.19921 14.84017 -8.82362
 3.52 2.75 -3.069 -3.060 -3.043 -3.012 -2.970 10.36219 15.09079 -8.57294
 3.52 3.00 -2.920 -2.912 -2.897 -2.870 -2.832 10.52789 15.34183 -8.32176
 3.52 3.20 -2.795 -2.787 -2.774 -2.750 -2.715 10.66446 15.54328 -8.12031
 3.52 3.40 -2.666 -2.659 -2.647 -2.626 -2.596 10.80447 15.74553 -7.91811
 3.52 3.60 -2.533 -2.527 -2.517 -2.499 -2.473 10.94830 15.94884 -7.71485
 3.52 3.80 -2.400 -2.395 -2.386 -2.371 -2.349 11.09624 16.15405 -7.50964
 3.52 4.00 -2.266 -2.262 -2.255 -2.242 -2.223 11.24797 16.36116 -7.30251
 3.52 4.20 -2.137 -2.134 -2.127 -2.116 -2.101 11.40427 16.57168 -7.09198
 3.52 4.40 -2.013 -2.010 -2.005 -1.996 -1.982 11.56304 16.78506 -6.87859
 3.52 4.60 -1.897 -1.895 -1.890 -1.882 -1.871 11.72476 17.00247 -6.66122
 3.52 4.80 -1.791 -1.790 -1.785 -1.778 -1.768 11.88757 17.22229 -6.44146
 3.52 5.00 -1.694 -1.692 -1.689 -1.683 -1.673 12.05038 17.44279 -6.22098
 3.52 5.20 -1.609 -1.608 -1.605 -1.599 -1.590 12.21038 17.66376 -6.00002
 3.52 5.40 -1.533 -1.532 -1.529 -1.524 -1.515 12.36759 17.88472 -5.77906
 3.52 5.60 -1.466 -1.464 -1.462 -1.457 -1.449 12.52055 18.10444 -5.55932
 3.52 5.80 -1.406 -1.405 -1.402 -1.397 -1.390 12.66757 18.32143 -5.34230
 3.52 6.00 -1.354 -1.353 -1.350 -1.345 -1.338 12.80949 18.53643 -5.12726
 3.52 6.25 -1.295 -1.294 -1.292 -1.287 -1.280 12.97845 18.80157 -4.86212
 3.52 6.50 -1.243 -1.242 -1.239 -1.235 -1.228 13.14051 19.06371 -4.59998
 3.52 6.75 -1.194 -1.193 -1.191 -1.186 -1.180 13.29646 19.32314 -4.34052
 3.52 7.00 -1.147 -1.146 -1.144 -1.140 -1.134 13.44793 19.58047 -4.08318
 3.52 7.25 -1.100 -1.098 -1.096 -1.092 -1.086 13.59599 19.83601 -3.82770
 3.52 7.50 -1.050 -1.049 -1.047 -1.042 -1.036 13.74092 20.09026 -3.57349
 3.52 7.75 -0.998 -0.997 -0.994 -0.990 -0.984 13.88326 20.34361 -3.32012
 3.52 8.00 -0.944 -0.942 -0.940 -0.936 -0.930 14.02284 20.59594 -3.06773
 3.54-2.00 -4.112 -4.109 -4.106 -4.100 -4.092  6.50840 10.31911-13.34457
 3.54-1.50 -4.114 -4.111 -4.106 -4.097 -4.086  6.99207 10.81908-12.84466
 3.54-1.00 -4.100 -4.096 -4.088 -4.075 -4.057  7.48345 11.31911-12.34448
 3.54-0.50 -4.067 -4.061 -4.049 -4.029 -4.004  7.97165 11.81915-11.84466
 3.54 0.00 -4.004 -3.995 -3.980 -3.953 -3.918  8.44592 12.31931-11.34448
 3.54 0.50 -3.897 -3.885 -3.866 -3.833 -3.789  8.89509 12.81928-10.84436
 3.54 1.00 -3.737 -3.725 -3.703 -3.664 -3.613  9.31450 13.31931-10.34438
 3.54 1.25 -3.640 -3.628 -3.605 -3.565 -3.511  9.51199 13.56933-10.09438
 3.54 1.50 -3.532 -3.519 -3.496 -3.456 -3.400  9.70140 13.81935 -9.84436
 3.54 1.75 -3.415 -3.402 -3.379 -3.339 -3.285  9.88221 14.06943 -9.59428
 3.54 2.00 -3.289 -3.277 -3.256 -3.217 -3.164 10.05614 14.31952 -9.34419
 3.54 2.25 -3.157 -3.145 -3.126 -3.090 -3.041 10.22331 14.56962 -9.09412
 3.54 2.50 -3.020 -3.010 -2.991 -2.958 -2.913 10.38686 14.81974 -8.84406
 3.54 2.75 -2.880 -2.870 -2.853 -2.824 -2.783 10.54704 15.07004 -8.59373
 3.54 3.00 -2.737 -2.728 -2.713 -2.687 -2.650 10.70723 15.32056 -8.34314
 3.54 3.20 -2.617 -2.610 -2.597 -2.573 -2.540 10.83625 15.52125 -8.14245
 3.54 3.40 -2.497 -2.490 -2.479 -2.458 -2.429 10.96635 15.72233 -7.94140
 3.54 3.60 -2.373 -2.368 -2.358 -2.340 -2.314 11.09857 15.92394 -7.73981
 3.54 3.80 -2.247 -2.242 -2.234 -2.218 -2.196 11.23455 16.12662 -7.53712
 3.54 4.00 -2.120 -2.115 -2.108 -2.095 -2.075 11.37383 16.33042 -7.33330
 3.54 4.20 -1.991 -1.988 -1.982 -1.971 -1.954 11.51772 16.53632 -7.12741
 3.54 4.40 -1.865 -1.862 -1.857 -1.847 -1.833 11.66566 16.74459 -6.91917
 3.54 4.60 -1.742 -1.740 -1.735 -1.727 -1.715 11.81865 16.95606 -6.70769
 3.54 4.80 -1.624 -1.622 -1.619 -1.611 -1.600 11.97522 17.17095 -6.49277
 3.54 5.00 -1.512 -1.511 -1.507 -1.501 -1.491 12.13386 17.38846 -6.27523
 3.54 5.20 -1.412 -1.411 -1.408 -1.402 -1.393 12.29443 17.60962 -6.05410
 3.54 5.40 -1.321 -1.319 -1.316 -1.311 -1.303 12.45501 17.83078 -5.83296
 3.54 5.60 -1.238 -1.237 -1.235 -1.230 -1.222 12.61388 18.05170 -5.61204
 3.54 5.80 -1.166 -1.165 -1.162 -1.158 -1.151 12.76831 18.27175 -5.39196
 3.54 6.00 -1.101 -1.100 -1.098 -1.093 -1.087 12.91908 18.49094 -5.17270
 3.54 6.25 -1.032 -1.031 -1.029 -1.025 -1.018 13.09869 18.76080 -4.90289
 3.54 6.50 -0.971 -0.970 -0.968 -0.964 -0.958 13.27045 19.02735 -4.63639
 3.54 6.75 -0.918 -0.916 -0.914 -0.910 -0.904 13.43402 19.29027 -4.37342
 3.54 7.00 -0.869 -0.868 -0.866 -0.862 -0.856 13.59129 19.55047 -4.11317
 3.54 7.25 -0.824 -0.822 -0.820 -0.816 -0.810 13.74309 19.80836 -3.85535
 3.54 7.50 -0.778 -0.777 -0.775 -0.771 -0.765 13.89059 20.06446 -3.59929
 3.54 7.75 -0.732 -0.731 -0.729 -0.725 -0.719 14.03485 20.31927 -3.34446
 3.54 8.00 -0.685 -0.684 -0.682 -0.678 -0.672 14.17551 20.57264 -3.09103
 3.56-2.00 -4.021 -4.019 -4.017 -4.012 -4.007  6.57345 10.29907-13.36462
 3.56-1.50 -4.067 -4.064 -4.060 -4.054 -4.046  7.01030 10.79900-12.86455
 3.56-1.00 -4.076 -4.074 -4.068 -4.059 -4.047  7.48058 11.29907-12.36462
 3.56-0.50 -4.054 -4.050 -4.042 -4.028 -4.009  7.96689 11.79906-11.86455
 3.56 0.00 -3.990 -3.984 -3.972 -3.951 -3.923  8.45485 12.29907-11.36462
 3.56 0.50 -3.866 -3.857 -3.840 -3.811 -3.772  8.93141 12.79913-10.86455
 3.56 1.00 -3.674 -3.662 -3.641 -3.606 -3.558  9.38453 13.29929-10.36452
 3.56 1.25 -3.557 -3.545 -3.524 -3.486 -3.436  9.60001 13.54925-10.11453
 3.56 1.50 -3.428 -3.416 -3.394 -3.355 -3.302  9.80767 13.79920 -9.86455
 3.56 1.75 -3.292 -3.279 -3.258 -3.220 -3.168 10.00699 14.04924 -9.61443
 3.56 2.00 -3.149 -3.137 -3.116 -3.078 -3.027 10.19811 14.29929 -9.36432
 3.56 2.25 -3.002 -2.990 -2.971 -2.936 -2.888 10.38049 14.54934 -9.11427
 3.56 2.50 -2.854 -2.843 -2.825 -2.793 -2.748 10.55570 14.79941 -8.86423
 3.56 2.75 -2.704 -2.695 -2.679 -2.650 -2.610 10.72381 15.04962 -8.61408
 3.56 3.00 -2.556 -2.548 -2.533 -2.507 -2.472 10.88779 15.29994 -8.36381
 3.56 3.20 -2.438 -2.430 -2.417 -2.393 -2.361 11.01573 15.50027 -8.16349
 3.56 3.40 -2.319 -2.312 -2.301 -2.279 -2.250 11.14367 15.70076 -7.96297
 3.56 3.60 -2.199 -2.194 -2.183 -2.164 -2.139 11.27174 15.90152 -7.76219
 3.56 3.80 -2.078 -2.073 -2.064 -2.048 -2.026 11.40040 16.10291 -7.56081
 3.56 4.00 -1.956 -1.952 -1.945 -1.931 -1.911 11.52969 16.30492 -7.35882
 3.56 4.20 -1.834 -1.830 -1.824 -1.813 -1.795 11.66252 16.50806 -7.15565
 3.56 4.40 -1.711 -1.708 -1.703 -1.694 -1.679 11.79855 16.71270 -6.95094
 3.56 4.60 -1.590 -1.587 -1.583 -1.575 -1.562 11.93859 16.91937 -6.74421
 3.56 4.80 -1.469 -1.467 -1.464 -1.456 -1.445 12.08335 17.12903 -6.53453
 3.56 5.00 -1.353 -1.351 -1.348 -1.341 -1.331 12.23223 17.34144 -6.32212
 3.56 5.20 -1.243 -1.241 -1.238 -1.232 -1.223 12.38739 17.55836 -6.10525
 3.56 5.40 -1.139 -1.137 -1.135 -1.129 -1.121 12.54349 17.77711 -5.88655
 3.56 5.60 -1.043 -1.042 -1.040 -1.035 -1.027 12.70051 17.99792 -5.66576
 3.56 5.80 -0.958 -0.956 -0.954 -0.949 -0.942 12.85773 18.21941 -5.44428
 3.56 6.00 -0.880 -0.879 -0.877 -0.872 -0.866 13.01494 18.44091 -5.22279
 3.56 6.25 -0.796 -0.795 -0.794 -0.789 -0.783 13.20335 18.71478 -4.94895
 3.56 6.50 -0.725 -0.724 -0.721 -0.718 -0.712 13.38507 18.98597 -4.67778
 3.56 6.75 -0.662 -0.661 -0.659 -0.655 -0.649 13.55778 19.25310 -4.41060
 3.56 7.00 -0.608 -0.607 -0.605 -0.601 -0.595 13.72296 19.51707 -4.14661
 3.56 7.25 -0.560 -0.559 -0.557 -0.553 -0.547 13.88072 19.77805 -3.88577
 3.56 7.50 -0.515 -0.514 -0.512 -0.508 -0.502 14.03262 20.03663 -3.62727
 3.56 7.75 -0.472 -0.471 -0.469 -0.465 -0.459 14.17993 20.29330 -3.37052
 3.56 8.00 -0.430 -0.429 -0.426 -0.422 -0.416 14.32222 20.54790 -3.11572
 3.58-2.00 -3.834 -3.833 -3.830 -3.827 -3.822  6.75709 10.27898-13.38468
 3.58-1.50 -3.940 -3.939 -3.936 -3.931 -3.925  7.11826 10.77902-12.88472
 3.58-1.00 -4.005 -4.003 -3.999 -3.993 -3.983  7.52505 11.27898-12.38458
 3.58-0.50 -4.022 -4.019 -4.013 -4.004 -3.990  7.97529 11.77902-11.88472
 3.58 0.00 -3.982 -3.977 -3.969 -3.953 -3.934  8.45255 12.27898-11.38458
 3.58 0.50 -3.867 -3.859 -3.846 -3.824 -3.794  8.93782 12.77909-10.88472
 3.58 1.00 -3.660 -3.650 -3.633 -3.603 -3.562  9.41514 13.27921-10.38458
 3.58 1.25 -3.527 -3.517 -3.497 -3.465 -3.421  9.64600 13.52919-10.13448
 3.58 1.50 -3.378 -3.367 -3.347 -3.311 -3.265  9.87052 13.77916 -9.88439
 3.58 1.75 -3.221 -3.210 -3.190 -3.155 -3.107 10.08708 14.02918 -9.63443
 3.58 2.00 -3.058 -3.047 -3.027 -2.991 -2.943 10.29579 14.27921 -9.38447
 3.58 2.25 -2.893 -2.882 -2.863 -2.830 -2.784 10.49610 14.52925 -9.13446
 3.58 2.50 -2.727 -2.717 -2.700 -2.667 -2.624 10.68815 14.77931 -8.88439
 3.58 2.75 -2.563 -2.554 -2.538 -2.510 -2.471 10.87140 15.02946 -8.63426
 3.58 3.00 -2.403 -2.395 -2.381 -2.355 -2.319 11.04727 15.27967 -8.38405
 3.58 3.20 -2.277 -2.270 -2.257 -2.233 -2.201 11.18243 15.47984 -8.18385
 3.58 3.40 -2.153 -2.146 -2.135 -2.114 -2.085 11.31475 15.68005 -7.98356
 3.58 3.60 -2.031 -2.024 -2.014 -1.995 -1.969 11.44371 15.88040 -7.78317
 3.58 3.80 -1.909 -1.904 -1.895 -1.878 -1.855 11.57143 16.08112 -7.58250
 3.58 4.00 -1.789 -1.784 -1.777 -1.762 -1.741 11.69914 16.28217 -7.38153
 3.58 4.20 -1.668 -1.664 -1.658 -1.645 -1.627 11.82705 16.48380 -7.17992
 3.58 4.40 -1.548 -1.544 -1.539 -1.528 -1.512 11.95529 16.68631 -6.97741
 3.58 4.60 -1.429 -1.425 -1.421 -1.412 -1.398 12.08522 16.89000 -6.77370
 3.58 4.80 -1.311 -1.308 -1.305 -1.296 -1.284 12.21901 17.09578 -6.56790
 3.58 5.00 -1.194 -1.193 -1.189 -1.182 -1.171 12.35603 17.30363 -6.36002
 3.58 5.20 -1.081 -1.080 -1.077 -1.071 -1.061 12.49848 17.51514 -6.14850
 3.58 5.40 -0.972 -0.970 -0.968 -0.963 -0.953 12.64480 17.72949 -5.93417
 3.58 5.60 -0.869 -0.867 -0.865 -0.860 -0.852 12.79650 17.94783 -5.71581
 3.58 5.80 -0.773 -0.772 -0.770 -0.765 -0.758 12.95066 18.16822 -5.49542
 3.58 6.00 -0.685 -0.684 -0.682 -0.678 -0.671 13.10483 18.38881 -5.27482
 3.58 6.25 -0.588 -0.587 -0.585 -0.581 -0.574 13.29642 18.66469 -4.99895
 3.58 6.50 -0.503 -0.502 -0.500 -0.496 -0.490 13.48629 18.94057 -4.72308
 3.58 6.75 -0.430 -0.429 -0.427 -0.423 -0.417 13.66724 19.21197 -4.45171
 3.58 7.00 -0.367 -0.366 -0.364 -0.360 -0.354 13.84099 19.48015 -4.18356
 3.58 7.25 -0.312 -0.311 -0.309 -0.305 -0.299 14.00624 19.74455 -3.91911
 3.58 7.50 -0.265 -0.264 -0.262 -0.258 -0.252 14.16435 20.00604 -3.65758
 3.58 7.75 -0.222 -0.221 -0.218 -0.214 -0.208 14.31620 20.26518 -3.39842
 3.58 8.00 -0.181 -0.180 -0.178 -0.174 -0.167 14.46150 20.52179 -3.14182
 3.60-2.00 -3.572 -3.570 -3.569 -3.564 -3.559  7.03503 10.25888-13.40473
 3.60-1.50 -3.724 -3.722 -3.719 -3.714 -3.708  7.34301 10.75899-12.90483
 3.60-1.00 -3.845 -3.843 -3.840 -3.834 -3.827  7.67825 11.25912-12.40461
 3.60-0.50 -3.923 -3.920 -3.916 -3.909 -3.898  8.05461 11.75906-11.90448
 3.60 0.00 -3.937 -3.933 -3.927 -3.916 -3.902  8.47914 12.25912-11.40461
 3.60 0.50 -3.860 -3.855 -3.845 -3.830 -3.808  8.94201 12.75906-10.90448
 3.60 1.00 -3.671 -3.664 -3.651 -3.628 -3.597  9.42177 13.25912-10.40461
 3.60 1.25 -3.535 -3.526 -3.512 -3.486 -3.451  9.66059 13.50913-10.15455
 3.60 1.50 -3.376 -3.367 -3.351 -3.322 -3.284  9.89785 13.75914 -9.90448
 3.60 1.75 -3.204 -3.194 -3.177 -3.147 -3.106 10.12888 14.00913 -9.65449
 3.60 2.00 -3.021 -3.010 -2.992 -2.961 -2.919 10.35392 14.25912 -9.40450
 3.60 2.25 -2.836 -2.826 -2.809 -2.777 -2.736 10.57089 14.50920 -9.15450
 3.60 2.50 -2.650 -2.640 -2.623 -2.593 -2.554 10.77996 14.75929 -8.90448
 3.60 2.75 -2.468 -2.460 -2.444 -2.417 -2.378 10.98046 15.00932 -8.65441
 3.60 3.00 -2.291 -2.283 -2.268 -2.242 -2.207 11.17260 15.25936 -8.40428
 3.60 3.20 -2.153 -2.145 -2.132 -2.109 -2.077 11.31981 15.45946 -8.20413
 3.60 3.40 -2.019 -2.012 -2.000 -1.978 -1.948 11.46228 15.65963 -8.00391
 3.60 3.60 -1.887 -1.881 -1.870 -1.851 -1.824 11.59970 15.85987 -7.80366
 3.60 3.80 -1.758 -1.753 -1.744 -1.727 -1.702 11.73344 16.06025 -7.60331
 3.60 4.00 -1.633 -1.628 -1.620 -1.605 -1.583 11.86427 16.26079 -7.40285
 3.60 4.20 -1.510 -1.506 -1.498 -1.485 -1.465 11.99176 16.46166 -7.20196
 3.60 4.40 -1.389 -1.384 -1.379 -1.367 -1.349 12.11924 16.66302 -7.00054
 3.60 4.60 -1.269 -1.265 -1.261 -1.250 -1.234 12.24680 16.86504 -6.79849
 3.60 4.80 -1.150 -1.148 -1.143 -1.134 -1.120 12.37475 17.06835 -6.59525
 3.60 5.00 -1.033 -1.031 -1.027 -1.020 -1.008 12.50311 17.27300 -6.39073
 3.60 5.20 -0.919 -0.917 -0.914 -0.907 -0.897 12.63534 17.48013 -6.18362
 3.60 5.40 -0.808 -0.807 -0.804 -0.798 -0.788 12.77083 17.68984 -5.97390
 3.60 5.60 -0.702 -0.701 -0.698 -0.693 -0.684 12.91082 17.90310 -5.76065
 3.60 5.80 -0.602 -0.601 -0.598 -0.593 -0.585 13.05523 18.11966 -5.54412
 3.60 6.00 -0.508 -0.507 -0.504 -0.500 -0.492 13.20276 18.33846 -5.32532
 3.60 6.25 -0.401 -0.400 -0.398 -0.393 -0.386 13.39201 18.61525 -5.04846
 3.60 6.50 -0.305 -0.304 -0.302 -0.298 -0.291 13.58127 18.89204 -4.77160
 3.60 6.75 -0.221 -0.220 -0.218 -0.214 -0.208 13.76663 19.16677 -4.49686
 3.60 7.00 -0.148 -0.147 -0.145 -0.141 -0.135 13.94773 19.43933 -4.22432
 3.60 7.25 -0.086 -0.085 -0.083 -0.078 -0.072 14.12010 19.70768 -3.95604
 3.60 7.50 -0.033 -0.032 -0.029 -0.025 -0.019 14.28511 19.97276 -3.69101
 3.60 7.75  0.013  0.014  0.016  0.021  0.027 14.44260 20.23486 -3.42889
 3.60 8.00  0.054  0.056  0.058  0.063  0.069 14.59262 20.49388 -3.16980
 3.62-2.00 -3.268 -3.266 -3.264 -3.260 -3.253  7.35813 10.23855-13.42516
 3.62-1.50 -3.447 -3.445 -3.443 -3.438 -3.431  7.63969 10.73878-12.92482
 3.62-1.00 -3.607 -3.605 -3.601 -3.596 -3.588  7.93349 11.23880-12.42481
 3.62-0.50 -3.735 -3.733 -3.729 -3.722 -3.712  8.24822 11.73894-11.92482
 3.62 0.00 -3.811 -3.808 -3.802 -3.794 -3.781  8.59759 12.23905-11.42470
 3.62 0.50 -3.799 -3.795 -3.789 -3.776 -3.758  8.99405 12.73902-10.92482
 3.62 1.00 -3.663 -3.657 -3.647 -3.630 -3.606  9.43712 13.23905-10.42458
 3.62 1.25 -3.543 -3.536 -3.525 -3.505 -3.478  9.67154 13.48903-10.17470
 3.62 1.50 -3.393 -3.386 -3.372 -3.350 -3.320  9.90725 13.73902 -9.92482
 3.62 1.75 -3.218 -3.210 -3.196 -3.172 -3.139 10.14373 13.98903 -9.67470
 3.62 2.00 -3.026 -3.018 -3.003 -2.977 -2.943 10.38021 14.23905 -9.42458
 3.62 2.25 -2.826 -2.818 -2.803 -2.777 -2.741 10.61043 14.48907 -9.17450
 3.62 2.50 -2.623 -2.613 -2.598 -2.572 -2.537 10.83506 14.73910 -8.92445
 3.62 2.75 -2.422 -2.414 -2.400 -2.374 -2.339 11.05172 14.98920 -8.67446
 3.62 3.00 -2.226 -2.218 -2.203 -2.179 -2.146 11.26055 15.23930 -8.42446
 3.62 3.20 -2.073 -2.066 -2.053 -2.030 -1.998 11.42132 15.43938 -8.22433
 3.62 3.40 -1.925 -1.918 -1.905 -1.884 -1.854 11.57669 15.63946 -8.02417
 3.62 3.60 -1.781 -1.774 -1.763 -1.744 -1.716 11.72631 15.83956 -7.82401
 3.62 3.80 -1.641 -1.635 -1.625 -1.607 -1.582 11.87068 16.03976 -7.62384
 3.62 4.00 -1.506 -1.501 -1.492 -1.475 -1.452 12.01030 16.24005 -7.42366
 3.62 4.20 -1.374 -1.369 -1.362 -1.347 -1.326 12.14501 16.44051 -7.22319
 3.62 4.40 -1.246 -1.241 -1.235 -1.223 -1.204 12.27692 16.64124 -7.02241
 3.62 4.60 -1.121 -1.118 -1.112 -1.101 -1.084 12.40552 16.84235 -6.82128
 3.62 4.80 -0.999 -0.997 -0.992 -0.981 -0.966 12.53291 17.04426 -6.61943
 3.62 5.00 -0.880 -0.878 -0.873 -0.865 -0.851 12.66030 17.24699 -6.41680
 3.62 5.20 -0.763 -0.762 -0.758 -0.750 -0.738 12.78810 17.45118 -6.21260
 3.62 5.40 -0.649 -0.648 -0.645 -0.638 -0.627 12.91654 17.65723 -6.00651
 3.62 5.60 -0.540 -0.538 -0.535 -0.529 -0.520 13.04710 17.86587 -5.79782
 3.62 5.80 -0.436 -0.435 -0.432 -0.426 -0.418 13.18171 18.07785 -5.58583
 3.62 6.00 -0.338 -0.336 -0.334 -0.329 -0.321 13.31952 18.29270 -5.37100
 3.62 6.25 -0.225 -0.223 -0.221 -0.216 -0.209 13.49905 18.56695 -5.09679
 3.62 6.50 -0.122 -0.121 -0.118 -0.114 -0.107 13.68097 18.84242 -4.82131
 3.62 6.75 -0.031 -0.029 -0.027 -0.023 -0.016 13.86471 19.11870 -4.54498
 3.62 7.00  0.049  0.051  0.053  0.057  0.064 14.04844 19.39498 -4.26865
 3.62 7.25  0.120  0.121  0.123  0.128  0.135 14.22566 19.66715 -3.99649
 3.62 7.50  0.181  0.182  0.184  0.189  0.196 14.39707 19.93621 -3.72746
 3.62 7.75  0.232  0.233  0.236  0.240  0.247 14.56006 20.20164 -3.46203
 3.62 8.00  0.276  0.277  0.280  0.285  0.292 14.71550 20.46359 -3.20004
 3.64-2.00 -2.941 -2.939 -2.936 -2.932 -2.925  7.69522 10.21801-13.44575
 3.64-1.50 -3.140 -3.138 -3.135 -3.130 -3.122  7.96332 10.71842-12.94539
 3.64-1.00 -3.324 -3.322 -3.318 -3.311 -3.302  8.23754 11.21880-12.44491
 3.64-0.50 -3.484 -3.481 -3.477 -3.470 -3.458  8.52088 11.71883-11.94500
 3.64 0.00 -3.602 -3.599 -3.594 -3.585 -3.572  8.82073 12.21906-11.44466
 3.64 0.50 -3.648 -3.645 -3.638 -3.627 -3.611  9.14860 12.71900-10.94462
 3.64 1.00 -3.582 -3.577 -3.569 -3.554 -3.534  9.51878 13.21906-10.44454
 3.64 1.25 -3.495 -3.490 -3.481 -3.465 -3.441  9.72342 13.46908-10.19458
 3.64 1.50 -3.374 -3.368 -3.358 -3.339 -3.314  9.93867 13.71908 -9.94462
 3.64 1.75 -3.220 -3.213 -3.202 -3.182 -3.154 10.16513 13.96907 -9.69458
 3.64 2.00 -3.040 -3.033 -3.021 -2.999 -2.970 10.39550 14.21906 -9.44454
 3.64 2.25 -2.840 -2.833 -2.820 -2.798 -2.767 10.62888 14.46906 -9.19458
 3.64 2.50 -2.631 -2.623 -2.610 -2.588 -2.556 10.86225 14.71908 -8.94462
 3.64 2.75 -2.417 -2.410 -2.397 -2.374 -2.342 11.09071 14.96920 -8.69452
 3.64 3.00 -2.205 -2.198 -2.184 -2.161 -2.131 11.31429 15.21932 -8.44442
 3.64 3.20 -2.039 -2.032 -2.019 -1.997 -1.967 11.48720 15.41933 -8.24435
 3.64 3.40 -1.876 -1.869 -1.857 -1.836 -1.807 11.65511 15.61933 -8.04428
 3.64 3.60 -1.718 -1.711 -1.700 -1.680 -1.651 11.81774 15.81940 -7.84420
 3.64 3.80 -1.564 -1.558 -1.548 -1.529 -1.503 11.97479 16.01960 -7.64408
 3.64 4.00 -1.416 -1.410 -1.401 -1.383 -1.358 12.12646 16.21985 -7.44394
 3.64 4.20 -1.272 -1.267 -1.259 -1.243 -1.220 12.27216 16.42011 -7.24371
 3.64 4.40 -1.134 -1.129 -1.122 -1.108 -1.086 12.41323 16.62045 -7.04333
 3.64 4.60 -1.000 -0.995 -0.989 -0.977 -0.958 12.54933 16.82098 -6.84274
 3.64 4.80 -0.870 -0.866 -0.861 -0.850 -0.833 12.68202 17.02200 -6.64166
 3.64 5.00 -0.743 -0.741 -0.736 -0.726 -0.711 12.81211 17.22350 -6.44009
 3.64 5.20 -0.621 -0.619 -0.615 -0.606 -0.593 12.93940 17.42595 -6.23769
 3.64 5.40 -0.503 -0.501 -0.497 -0.490 -0.478 13.06669 17.62966 -6.03408
 3.64 5.60 -0.389 -0.388 -0.385 -0.378 -0.367 13.19430 17.83504 -5.82874
 3.64 5.80 -0.281 -0.280 -0.277 -0.271 -0.261 13.32309 18.04305 -5.62067
 3.64 6.00 -0.178 -0.176 -0.174 -0.168 -0.159 13.45301 18.25358 -5.41005
 3.64 6.25 -0.058 -0.057 -0.055 -0.049 -0.041 13.62119 18.52242 -5.14126
 3.64 6.50  0.050  0.051  0.054  0.059  0.067 13.79358 18.79505 -4.86870
 3.64 6.75  0.147  0.149  0.151  0.156  0.164 13.97186 19.07187 -4.59188
 3.64 7.00  0.234  0.235  0.238  0.243  0.251 14.15014 19.34869 -4.31507
 3.64 7.25  0.310  0.311  0.314  0.319  0.327 14.32720 19.62367 -4.04005
 3.64 7.50  0.377  0.378  0.381  0.386  0.394 14.50243 19.89664 -3.76700
 3.64 7.75  0.434  0.435  0.438  0.443  0.451 14.66936 20.16553 -3.49810
 3.64 8.00  0.482  0.484  0.486  0.492  0.500 14.83014 20.43104 -3.23262
 3.66-2.00 -2.603 -2.601 -2.598 -2.593 -2.586  8.03423 10.19618-13.46750
 3.66-1.50 -2.818 -2.816 -2.812 -2.806 -2.797  8.29491 10.69740-12.96618
 3.66-1.00 -3.019 -3.016 -3.011 -3.004 -2.995  8.55907 11.19811-12.46547
 3.66-0.50 -3.199 -3.196 -3.191 -3.183 -3.172  8.82776 11.69853-11.96497
 3.66 0.00 -3.344 -3.341 -3.335 -3.326 -3.312  9.10380 12.19893-11.46483
 3.66 0.50 -3.427 -3.423 -3.416 -3.405 -3.389  9.39235 12.69888-10.96497
 3.66 1.00 -3.410 -3.405 -3.398 -3.384 -3.364  9.70364 13.19893-10.46471
 3.66 1.25 -3.355 -3.350 -3.342 -3.326 -3.305  9.87220 13.44899-10.21462
 3.66 1.50 -3.269 -3.263 -3.254 -3.237 -3.214 10.05115 13.69906 -9.96457
 3.66 1.75 -3.150 -3.144 -3.134 -3.116 -3.090 10.24357 13.94913 -9.71458
 3.66 2.00 -3.002 -2.996 -2.986 -2.966 -2.940 10.44747 14.19921 -9.46458
 3.66 2.25 -2.829 -2.822 -2.810 -2.790 -2.763 10.66412 14.44913 -9.21457
 3.66 2.50 -2.636 -2.628 -2.616 -2.596 -2.568 10.88717 14.69906 -8.96457
 3.66 2.75 -2.427 -2.420 -2.408 -2.386 -2.358 11.11607 14.94913 -8.71457
 3.66 3.00 -2.212 -2.205 -2.192 -2.171 -2.142 11.34498 15.19921 -8.46458
 3.66 3.20 -2.038 -2.031 -2.018 -1.997 -1.969 11.52557 15.39918 -8.26458
 3.66 3.40 -1.865 -1.858 -1.847 -1.825 -1.797 11.70362 15.59916 -8.06457
 3.66 3.60 -1.695 -1.688 -1.677 -1.657 -1.629 11.87790 15.79919 -7.86450
 3.66 3.80 -1.528 -1.522 -1.511 -1.492 -1.465 12.04668 15.99931 -7.66436
 3.66 4.00 -1.366 -1.360 -1.350 -1.332 -1.305 12.21059 16.19948 -7.46420
 3.66 4.20 -1.209 -1.203 -1.195 -1.178 -1.154 12.36872 16.39965 -7.26404
 3.66 4.40 -1.057 -1.052 -1.045 -1.029 -1.006 12.52153 16.59988 -7.06387
 3.66 4.60 -0.911 -0.905 -0.899 -0.885 -0.864 12.66863 16.80021 -6.86356
 3.66 4.80 -0.769 -0.766 -0.759 -0.747 -0.728 12.81068 17.00080 -6.66290
 3.66 5.00 -0.634 -0.631 -0.625 -0.614 -0.597 12.94827 17.20167 -6.46193
 3.66 5.20 -0.503 -0.501 -0.496 -0.486 -0.471 13.08117 17.40310 -6.26052
 3.66 5.40 -0.377 -0.375 -0.371 -0.362 -0.348 13.21190 17.60532 -6.05838
 3.66 5.60 -0.256 -0.254 -0.251 -0.243 -0.231 13.34022 17.80856 -5.85517
 3.66 5.80 -0.141 -0.140 -0.137 -0.130 -0.118 13.46775 18.01366 -5.65003
 3.66 6.00 -0.033 -0.031 -0.028 -0.022 -0.011 13.59528 18.22063 -5.44297
 3.66 6.25  0.094  0.095  0.098  0.104  0.114 13.75681 18.48407 -5.17965
 3.66 6.50  0.210  0.212  0.214  0.220  0.230 13.92065 18.75197 -4.91186
 3.66 6.75  0.315  0.317  0.319  0.325  0.334 14.08988 19.02621 -4.63754
 3.66 7.00  0.408  0.410  0.412  0.418  0.427 14.26126 19.30168 -4.36201
 3.66 7.25  0.489  0.490  0.493  0.499  0.508 14.43457 19.57796 -4.08570
 3.66 7.50  0.560  0.561  0.564  0.570  0.579 14.60788 19.85425 -3.80939
 3.66 7.75  0.621  0.622  0.625  0.631  0.640 14.77574 20.12635 -3.53726
 3.66 8.00  0.674  0.675  0.678  0.684  0.693 14.93997 20.39568 -3.26793
 3.68-2.00 -2.266 -2.264 -2.261 -2.255 -2.246  8.36342 10.17260-13.49120
 3.68-1.50 -2.489 -2.487 -2.483 -2.477 -2.467  8.62128 10.67532-12.98843
 3.68-1.00 -2.702 -2.699 -2.695 -2.688 -2.677  8.88036 11.17696-12.48665
 3.68-0.50 -2.898 -2.895 -2.890 -2.880 -2.868  9.14176 11.67788-11.98590
 3.68 0.00 -3.062 -3.058 -3.052 -3.042 -3.027  9.40654 12.17840-11.48519
 3.68 0.50 -3.168 -3.164 -3.156 -3.144 -3.127  9.67715 12.67870-10.98506
 3.68 1.00 -3.181 -3.176 -3.168 -3.154 -3.133  9.95794 13.17898-10.48479
 3.68 1.25 -3.145 -3.139 -3.131 -3.116 -3.094 10.10458 13.42898-10.23470
 3.68 1.50 -3.081 -3.076 -3.066 -3.049 -3.026 10.25696 13.67897 -9.98464
 3.68 1.75 -2.990 -2.984 -2.974 -2.956 -2.932 10.41738 13.92897 -9.73465
 3.68 2.00 -2.875 -2.868 -2.857 -2.839 -2.814 10.58692 14.17898 -9.48466
 3.68 2.25 -2.735 -2.728 -2.718 -2.698 -2.671 10.76842 14.42901 -9.23465
 3.68 2.50 -2.576 -2.570 -2.558 -2.538 -2.511 10.96128 14.67906 -8.98464
 3.68 2.75 -2.398 -2.391 -2.378 -2.358 -2.330 11.16768 14.92916 -8.73458
 3.68 3.00 -2.203 -2.196 -2.184 -2.163 -2.135 11.38220 15.17927 -8.48452
 3.68 3.20 -2.038 -2.031 -2.019 -1.997 -1.969 11.56052 15.37922 -8.28457
 3.68 3.40 -1.867 -1.860 -1.849 -1.828 -1.800 11.73885 15.57918 -8.08462
 3.68 3.60 -1.695 -1.688 -1.676 -1.656 -1.628 11.91670 15.77916 -7.88459
 3.68 3.80 -1.521 -1.515 -1.504 -1.484 -1.457 12.09278 15.97919 -7.68449
 3.68 4.00 -1.350 -1.344 -1.333 -1.314 -1.288 12.26717 16.17926 -7.48439
 3.68 4.20 -1.181 -1.175 -1.166 -1.148 -1.123 12.43590 16.37936 -7.28432
 3.68 4.40 -1.017 -1.011 -1.003 -0.987 -0.962 12.59996 16.57951 -7.08426
 3.68 4.60 -0.858 -0.852 -0.845 -0.830 -0.807 12.75887 16.77974 -6.88407
 3.68 4.80 -0.703 -0.700 -0.692 -0.678 -0.658 12.91221 16.98013 -6.68361
 3.68 5.00 -0.555 -0.552 -0.546 -0.533 -0.514 13.06032 17.18070 -6.48294
 3.68 5.20 -0.413 -0.410 -0.405 -0.394 -0.377 13.20251 17.38155 -6.28209
 3.68 5.40 -0.276 -0.274 -0.269 -0.259 -0.245 13.34058 17.58285 -6.08083
 3.68 5.60 -0.147 -0.145 -0.141 -0.132 -0.118 13.47413 17.78480 -5.87894
 3.68 5.80 -0.024 -0.022 -0.019 -0.011  0.002 13.60508 17.98803 -5.67573
 3.68 6.00  0.093  0.094  0.098  0.105  0.117 13.73448 18.19257 -5.47121
 3.68 6.25  0.229  0.231  0.234  0.241  0.252 13.89455 18.45159 -5.21221
 3.68 6.50  0.355  0.356  0.359  0.366  0.376 14.05461 18.71458 -4.94923
 3.68 6.75  0.468  0.470  0.473  0.479  0.490 14.21742 18.98383 -4.67995
 3.68 7.00  0.569  0.571  0.574  0.580  0.590 14.38220 19.25672 -4.40705
 3.68 7.25  0.657  0.658  0.661  0.668  0.677 14.55014 19.53348 -4.13030
 3.68 7.50  0.733  0.734  0.737  0.744  0.753 14.71809 19.81023 -3.85356
 3.68 7.75  0.797  0.798  0.802  0.808  0.818 14.88381 20.08481 -3.57895
 3.68 8.00  0.852  0.854  0.857  0.864  0.874 15.04805 20.35793 -3.30575
 3.70-2.00 -1.933 -1.931 -1.928 -1.922 -1.913  8.67870 10.14457-13.51913
 3.70-1.50 -2.162 -2.160 -2.157 -2.150 -2.139  8.93787 10.65079-13.01287
 3.70-1.00 -2.382 -2.380 -2.375 -2.368 -2.356  9.19562 11.15442-12.50934
 3.70-0.50 -2.588 -2.585 -2.580 -2.571 -2.558  9.45347 11.65639-12.00727
 3.70 0.00 -2.767 -2.763 -2.757 -2.745 -2.729  9.71299 12.15746-11.50612
 3.70 0.50 -2.890 -2.885 -2.878 -2.865 -2.847  9.97506 12.65820-11.00546
 3.70 1.00 -2.924 -2.919 -2.911 -2.894 -2.873 10.24180 13.15866-10.50501
 3.70 1.25 -2.900 -2.894 -2.885 -2.868 -2.845 10.37790 13.40872-10.25495
 3.70 1.50 -2.849 -2.843 -2.833 -2.816 -2.791 10.51667 13.65878-10.00489
 3.70 1.75 -2.773 -2.767 -2.757 -2.738 -2.713 10.65933 13.90887 -9.75481
 3.70 2.00 -2.677 -2.670 -2.659 -2.641 -2.614 10.80679 14.15897 -9.50473
 3.70 2.25 -2.562 -2.555 -2.543 -2.524 -2.497 10.96091 14.40897 -9.25473
 3.70 2.50 -2.431 -2.424 -2.412 -2.392 -2.365 11.12287 14.65897 -9.00472
 3.70 2.75 -2.284 -2.277 -2.266 -2.245 -2.217 11.29540 14.90897 -8.75466
 3.70 3.00 -2.124 -2.117 -2.105 -2.084 -2.055 11.47857 15.15897 -8.50459
 3.70 3.20 -1.984 -1.977 -1.965 -1.943 -1.915 11.63489 15.35899 -8.30461
 3.70 3.40 -1.835 -1.828 -1.816 -1.794 -1.766 11.79701 15.55903 -8.10462
 3.70 3.60 -1.678 -1.671 -1.659 -1.638 -1.609 11.96655 15.75910 -7.90459
 3.70 3.80 -1.513 -1.506 -1.495 -1.475 -1.447 12.13915 15.95918 -7.70453
 3.70 4.00 -1.345 -1.339 -1.328 -1.307 -1.280 12.31176 16.15927 -7.50446
 3.70 4.20 -1.174 -1.168 -1.157 -1.138 -1.112 12.48396 16.35930 -7.30440
 3.70 4.40 -1.003 -0.997 -0.988 -0.970 -0.945 12.65553 16.55933 -7.10435
 3.70 4.60 -0.835 -0.830 -0.821 -0.804 -0.780 12.82434 16.75945 -6.90424
 3.70 4.80 -0.671 -0.666 -0.658 -0.643 -0.621 12.98759 16.95975 -6.70399
 3.70 5.00 -0.509 -0.506 -0.499 -0.485 -0.464 13.14644 17.16017 -6.50362
 3.70 5.20 -0.355 -0.352 -0.346 -0.333 -0.314 13.29941 17.36066 -6.30311
 3.70 5.40 -0.206 -0.204 -0.199 -0.188 -0.171 13.44742 17.56138 -6.10232
 3.70 5.60 -0.065 -0.063 -0.058 -0.049 -0.033 13.59004 17.76248 -5.90116
 3.70 5.80  0.067  0.069  0.074  0.083  0.097 13.72826 17.96446 -5.69918
 3.70 6.00  0.195  0.196  0.200  0.208  0.222 13.86285 18.16732 -5.49635
 3.70 6.25  0.341  0.343  0.347  0.355  0.368 14.02602 18.42323 -5.24037
 3.70 6.50  0.478  0.480  0.484  0.491  0.504 14.18780 18.68224 -4.98130
 3.70 6.75  0.603  0.605  0.608  0.616  0.627 14.34864 18.94645 -4.71715
 3.70 7.00  0.715  0.716  0.719  0.726  0.738 14.50947 19.21511 -4.44855
 3.70 7.25  0.811  0.812  0.816  0.823  0.834 14.67245 19.49002 -4.17356
 3.70 7.50  0.894  0.895  0.898  0.905  0.917 14.83544 19.76567 -3.89791
 3.70 7.75  0.963  0.964  0.968  0.975  0.986 14.99762 20.04156 -3.62205
 3.70 8.00  1.021  1.023  1.026  1.034  1.045 15.15927 20.31785 -3.34582
 3.73-2.00 -1.451 -1.449 -1.446 -1.440 -1.430  9.10687 10.08600-13.57774
 3.73-1.50 -1.682 -1.680 -1.676 -1.670 -1.659  9.37876 10.60412-13.05958
 3.73-1.00 -1.907 -1.905 -1.901 -1.893 -1.881  9.64207 11.11494-12.54883
 3.73-0.50 -2.121 -2.118 -2.112 -2.103 -2.090  9.90108 11.62097-12.04273
 3.73 0.00 -2.311 -2.307 -2.301 -2.290 -2.274 10.15836 12.12451-11.53910
 3.73 0.50 -2.454 -2.450 -2.442 -2.429 -2.409 10.41564 12.62644-11.03720
 3.73 1.00 -2.514 -2.508 -2.499 -2.482 -2.460 10.67404 13.12775-10.53596
 3.73 1.25 -2.503 -2.497 -2.487 -2.470 -2.445 10.80400 13.37804-10.28564
 3.73 1.50 -2.465 -2.459 -2.449 -2.431 -2.405 10.93475 13.62829-10.03541
 3.73 1.75 -2.404 -2.398 -2.387 -2.368 -2.340 11.06676 13.87852 -9.78522
 3.73 2.00 -2.324 -2.317 -2.306 -2.285 -2.258 11.20030 14.12872 -9.53506
 3.73 2.25 -2.228 -2.220 -2.208 -2.188 -2.160 11.33595 14.37882 -9.28496
 3.73 2.50 -2.119 -2.112 -2.100 -2.079 -2.050 11.47436 14.62890 -9.03485
 3.73 2.75 -2.000 -1.993 -1.981 -1.959 -1.930 11.61689 14.87898 -8.78473
 3.73 3.00 -1.872 -1.865 -1.853 -1.832 -1.803 11.76440 15.12905 -8.53462
 3.73 3.20 -1.764 -1.757 -1.744 -1.722 -1.693 11.88728 15.32903 -8.33463
 3.73 3.40 -1.649 -1.642 -1.630 -1.608 -1.578 12.01517 15.52901 -8.13465
 3.73 3.60 -1.527 -1.520 -1.508 -1.487 -1.456 12.14881 15.72900 -7.93462
 3.73 3.80 -1.398 -1.392 -1.380 -1.358 -1.328 12.28913 15.92902 -7.73454
 3.73 4.00 -1.263 -1.256 -1.244 -1.223 -1.193 12.43569 16.12905 -7.53447
 3.73 4.20 -1.117 -1.111 -1.100 -1.079 -1.050 12.59053 16.32909 -7.33447
 3.73 4.40 -0.965 -0.958 -0.949 -0.929 -0.901 12.74939 16.52916 -7.13447
 3.73 4.60 -0.807 -0.800 -0.791 -0.773 -0.746 12.91292 16.72928 -6.93444
 3.73 4.80 -0.643 -0.638 -0.629 -0.612 -0.586 13.07810 16.92946 -6.73434
 3.73 5.00 -0.478 -0.474 -0.466 -0.450 -0.427 13.24329 17.12969 -6.53417
 3.73 5.20 -0.314 -0.311 -0.303 -0.289 -0.267 13.40598 17.32993 -6.33392
 3.73 5.40 -0.152 -0.149 -0.143 -0.130 -0.110 13.56622 17.53024 -6.13351
 3.73 5.60  0.005  0.008  0.012  0.023  0.042 13.72278 17.73075 -5.93291
 3.73 5.80  0.154  0.156  0.161  0.172  0.189 13.87419 17.93175 -5.73191
 3.73 6.00  0.298  0.300  0.304  0.314  0.330 14.02119 18.13322 -5.53047
 3.73 6.25  0.464  0.466  0.470  0.479  0.495 14.19751 18.38624 -5.27742
 3.73 6.50  0.620  0.622  0.626  0.635  0.649 14.36810 18.64108 -5.02255
 3.73 6.75  0.762  0.764  0.768  0.777  0.791 14.53337 18.89945 -4.76425
 3.73 7.00  0.893  0.895  0.899  0.907  0.921 14.69601 19.16167 -4.50210
 3.73 7.25  1.008  1.009  1.013  1.022  1.035 14.85710 19.42974 -4.23389
 3.73 7.50  1.106  1.108  1.111  1.119  1.133 15.01662 19.70174 -3.96178
 3.73 7.75  1.187  1.188  1.192  1.201  1.214 15.17482 19.97673 -3.68680
 3.73 8.00  1.253  1.255  1.259  1.267  1.281 15.33163 20.25503 -3.40860
 3.76-2.00 -1.011 -1.009 -1.006 -1.000 -0.990  9.44994  9.98914-13.67448
 3.76-1.50 -1.227 -1.225 -1.222 -1.215 -1.204  9.75959 10.53148-13.13230
 3.76-1.00 -1.446 -1.444 -1.441 -1.433 -1.421 10.04415 11.05919-12.60450
 3.76-0.50 -1.658 -1.656 -1.651 -1.643 -1.629 10.31429 11.57600-12.08762
 3.76 0.00 -1.851 -1.847 -1.842 -1.831 -1.816 10.57680 12.08600-11.57774
 3.76 0.50 -2.001 -1.998 -1.991 -1.978 -1.960 10.83512 12.59162-11.07207
 3.76 1.00 -2.080 -2.075 -2.066 -2.051 -2.028 11.09202 13.09482-10.56880
 3.76 1.25 -2.082 -2.077 -2.067 -2.051 -2.025 11.22036 13.34587-10.31776
 3.76 1.50 -2.058 -2.052 -2.042 -2.023 -1.998 11.34869 13.59671-10.06697
 3.76 1.75 -2.010 -2.004 -1.993 -1.974 -1.947 11.47736 13.84742 -9.81637
 3.76 2.00 -1.942 -1.936 -1.924 -1.905 -1.877 11.60638 14.09795 -9.56591
 3.76 2.25 -1.858 -1.851 -1.840 -1.820 -1.792 11.73608 14.34818 -9.31560
 3.76 2.50 -1.762 -1.756 -1.744 -1.724 -1.695 11.86664 14.59835 -9.06535
 3.76 2.75 -1.658 -1.651 -1.640 -1.619 -1.589 11.99859 14.84850 -8.81513
 3.76 3.00 -1.546 -1.540 -1.528 -1.506 -1.477 12.13226 15.09864 -8.56495
 3.76 3.20 -1.453 -1.446 -1.433 -1.412 -1.383 12.24090 15.29875 -8.36489
 3.76 3.40 -1.355 -1.348 -1.336 -1.315 -1.285 12.35151 15.49885 -8.16483
 3.76 3.60 -1.254 -1.247 -1.235 -1.214 -1.183 12.46435 15.69892 -7.96476
 3.76 3.80 -1.148 -1.141 -1.129 -1.108 -1.078 12.58046 15.89895 -7.76470
 3.76 4.00 -1.039 -1.033 -1.021 -1.000 -0.969 12.69992 16.09899 -7.56463
 3.76 4.20 -0.923 -0.917 -0.905 -0.884 -0.855 12.82409 16.29903 -7.36462
 3.76 4.40 -0.802 -0.796 -0.785 -0.765 -0.735 12.95316 16.49909 -7.16460
 3.76 4.60 -0.675 -0.669 -0.659 -0.639 -0.610 13.08794 16.69915 -6.96455
 3.76 4.80 -0.540 -0.535 -0.525 -0.506 -0.479 13.22855 16.89923 -6.76444
 3.76 5.00 -0.399 -0.395 -0.386 -0.369 -0.342 13.37420 17.09933 -6.56432
 3.76 5.20 -0.251 -0.247 -0.239 -0.223 -0.199 13.52647 17.29947 -6.36419
 3.76 5.40 -0.099 -0.096 -0.089 -0.075 -0.052 13.68013 17.49966 -6.16403
 3.76 5.60  0.054  0.057  0.063  0.076  0.097 13.83514 17.69993 -5.96378
 3.76 5.80  0.207  0.210  0.215  0.227  0.247 13.99048 17.90039 -5.76329
 3.76 6.00  0.361  0.363  0.368  0.378  0.396 14.14582 18.10106 -5.56257
 3.76 6.25  0.539  0.541  0.546  0.556  0.574 14.33406 18.35265 -5.31099
 3.76 6.50  0.712  0.714  0.719  0.729  0.746 14.51733 18.60530 -5.05839
 3.76 6.75  0.873  0.875  0.880  0.890  0.907 14.69362 18.85986 -4.80381
 3.76 7.00  1.023  1.025  1.029  1.039  1.056 14.86451 19.11694 -4.54668
 3.76 7.25  1.158  1.160  1.164  1.174  1.190 15.03038 19.37859 -4.28503
 3.76 7.50  1.277  1.279  1.284  1.293  1.309 15.19229 19.64464 -4.01900
 3.76 7.75  1.377  1.379  1.383  1.393  1.408 15.35114 19.91576 -3.74786
 3.76 8.00  1.459  1.461  1.465  1.474  1.490 15.50664 20.19173 -3.47186
 3.79-2.00 -0.685 -0.684 -0.680 -0.673 -0.662  9.64856  9.86225-13.80134
 3.79-1.50 -0.834 -0.832 -0.829 -0.822 -0.810 10.03623 10.41880-13.24489
 3.79-1.00 -1.019 -1.017 -1.013 -1.006 -0.994 10.37383 10.97151-12.69208
 3.79-0.50 -1.213 -1.210 -1.206 -1.198 -1.186 10.67578 11.50987-12.15385
 3.79 0.00 -1.394 -1.392 -1.387 -1.378 -1.363 10.95583 12.03423-11.62930
 3.79 0.50 -1.542 -1.539 -1.532 -1.521 -1.504 11.22350 12.54913-11.11458
 3.79 1.00 -1.627 -1.623 -1.616 -1.603 -1.582 11.48444 13.05767-10.60590
 3.79 1.25 -1.639 -1.635 -1.627 -1.612 -1.589 11.61342 13.31048-10.35314
 3.79 1.50 -1.628 -1.623 -1.614 -1.598 -1.573 11.74194 13.56265-10.10106
 3.79 1.75 -1.594 -1.589 -1.579 -1.562 -1.536 11.87012 13.81433 -9.84946
 3.79 2.00 -1.540 -1.535 -1.525 -1.507 -1.480 11.99822 14.06558 -9.59826
 3.79 2.25 -1.470 -1.464 -1.454 -1.435 -1.408 12.12626 14.31642 -9.34738
 3.79 2.50 -1.387 -1.381 -1.371 -1.352 -1.325 12.25431 14.56703 -9.09669
 3.79 2.75 -1.294 -1.289 -1.278 -1.259 -1.231 12.38290 14.81745 -8.84612
 3.79 3.00 -1.195 -1.189 -1.178 -1.159 -1.131 12.51202 15.06781 -8.59568
 3.79 3.20 -1.110 -1.104 -1.094 -1.074 -1.046 12.61580 15.26808 -8.39546
 3.79 3.40 -1.023 -1.017 -1.006 -0.987 -0.958 12.72023 15.46832 -8.19530
 3.79 3.60 -0.933 -0.927 -0.916 -0.896 -0.867 12.82546 15.66855 -7.99518
 3.79 3.80 -0.840 -0.834 -0.823 -0.803 -0.773 12.93198 15.86876 -7.79508
 3.79 4.00 -0.745 -0.739 -0.728 -0.707 -0.678 13.03981 16.06893 -7.59500
 3.79 4.20 -0.645 -0.639 -0.628 -0.608 -0.579 13.14945 16.26892 -7.39491
 3.79 4.40 -0.543 -0.537 -0.527 -0.506 -0.477 13.26130 16.46891 -7.19483
 3.79 4.60 -0.436 -0.431 -0.420 -0.400 -0.371 13.37566 16.66890 -6.99477
 3.79 4.80 -0.324 -0.319 -0.310 -0.291 -0.262 13.49344 16.86891 -6.79471
 3.79 5.00 -0.208 -0.204 -0.195 -0.177 -0.150 13.61469 17.06893 -6.59465
 3.79 5.20 -0.086 -0.082 -0.074 -0.057 -0.031 13.74062 17.26907 -6.39457
 3.79 5.40  0.039  0.043  0.050  0.066  0.091 13.87087 17.46926 -6.19444
 3.79 5.60  0.171  0.174  0.180  0.194  0.217 14.00621 17.66948 -5.99427
 3.79 5.80  0.306  0.309  0.315  0.328  0.349 14.14570 17.86973 -5.79401
 3.79 6.00  0.445  0.448  0.453  0.464  0.484 14.28825 18.07004 -5.59363
 3.79 6.25  0.615  0.618  0.623  0.634  0.654 14.47088 18.32084 -5.34281
 3.79 6.50  0.787  0.789  0.794  0.805  0.824 14.65350 18.57217 -5.09146
 3.79 6.75  0.954  0.956  0.961  0.972  0.991 14.83428 18.82457 -4.83900
 3.79 7.00  1.116  1.119  1.124  1.134  1.153 15.01284 19.07846 -4.58503
 3.79 7.25  1.268  1.270  1.274  1.285  1.303 15.18584 19.33531 -4.32825
 3.79 7.50  1.407  1.409  1.414  1.424  1.442 15.35411 19.59561 -4.06808
 3.79 7.75  1.528  1.530  1.534  1.545  1.562 15.51729 19.86126 -3.80247
 3.79 8.00  1.630  1.632  1.636  1.647  1.664 15.67550 20.13162 -3.53210
 3.82-2.00 -0.549 -0.547 -0.543 -0.535 -0.523  9.69819  9.77539-13.88840
 3.82-1.50 -0.592 -0.590 -0.586 -0.578 -0.565 10.16227 10.30320-13.36051
 3.82-1.00 -0.682 -0.681 -0.677 -0.668 -0.656 10.58377 10.85217-12.81135
 3.82-0.50 -0.815 -0.813 -0.809 -0.801 -0.788 10.95187 11.40943-12.25430
 3.82 0.00 -0.960 -0.958 -0.954 -0.945 -0.932 11.27462 11.95737-11.70642
 3.82 0.50 -1.087 -1.084 -1.079 -1.069 -1.054 11.56714 12.49024-11.17347
 3.82 1.00 -1.167 -1.163 -1.157 -1.145 -1.127 11.84173 13.01072-10.65287
 3.82 1.25 -1.182 -1.178 -1.171 -1.158 -1.139 11.97503 13.26758-10.39608
 3.82 1.50 -1.178 -1.174 -1.167 -1.153 -1.132 12.10653 13.52284-10.14086
 3.82 1.75 -1.156 -1.152 -1.144 -1.129 -1.107 12.23654 13.77677 -9.88683
 3.82 2.00 -1.117 -1.112 -1.104 -1.088 -1.065 12.36567 14.02979 -9.63376
 3.82 2.25 -1.061 -1.057 -1.049 -1.032 -1.008 12.49416 14.28212 -9.38154
 3.82 2.50 -0.993 -0.989 -0.980 -0.964 -0.938 12.62232 14.53390 -9.12983
 3.82 2.75 -0.915 -0.910 -0.901 -0.884 -0.859 12.75019 14.78524 -8.87848
 3.82 3.00 -0.828 -0.823 -0.814 -0.797 -0.771 12.87806 15.03623 -8.62746
 3.82 3.20 -0.754 -0.749 -0.740 -0.722 -0.696 12.98043 15.23679 -8.42692
 3.82 3.40 -0.676 -0.671 -0.662 -0.643 -0.617 13.08290 15.43725 -8.22647
 3.82 3.60 -0.595 -0.590 -0.581 -0.562 -0.536 13.18560 15.63763 -8.02607
 3.82 3.80 -0.512 -0.507 -0.496 -0.478 -0.451 13.28875 15.83796 -7.82572
 3.82 4.00 -0.425 -0.420 -0.411 -0.392 -0.365 13.39235 16.03822 -7.62543
 3.82 4.20 -0.336 -0.331 -0.322 -0.303 -0.275 13.49656 16.23836 -7.42529
 3.82 4.40 -0.245 -0.240 -0.231 -0.212 -0.184 13.60162 16.43851 -7.22516
 3.82 4.60 -0.151 -0.146 -0.137 -0.118 -0.089 13.70768 16.63866 -7.02507
 3.82 4.80 -0.053 -0.048 -0.039 -0.020  0.006 13.81528 16.83884 -6.82498
 3.82 5.00  0.047  0.051  0.060  0.078  0.105 13.92443 17.03902 -6.62489
 3.82 5.20  0.152  0.156  0.164  0.182  0.208 14.03569 17.23904 -6.42478
 3.82 5.40  0.262  0.265  0.272  0.288  0.313 14.14936 17.43906 -6.22466
 3.82 5.60  0.373  0.376  0.383  0.398  0.422 14.26573 17.63911 -6.02452
 3.82 5.80  0.489  0.492  0.498  0.512  0.534 14.38539 17.83923 -5.82436
 3.82 6.00  0.609  0.611  0.617  0.629  0.650 14.50826 18.03941 -5.62415
 3.82 6.25  0.755  0.758  0.763  0.775  0.796 14.66747 18.28985 -5.37374
 3.82 6.50  0.906  0.908  0.914  0.925  0.946 14.83129 18.54058 -5.12309
 3.82 6.75  1.060  1.062  1.067  1.079  1.099 15.00059 18.79178 -4.87185
 3.82 7.00  1.215  1.218  1.223  1.234  1.254 15.17026 19.04375 -4.61979
 3.82 7.25  1.367  1.369  1.374  1.386  1.405 15.34014 19.29747 -4.36610
 3.82 7.50  1.514  1.516  1.521  1.532  1.551 15.51001 19.55340 -4.11025
 3.82 7.75  1.649  1.651  1.656  1.667  1.685 15.67501 19.81346 -3.85016
 3.82 8.00  1.770  1.772  1.777  1.788  1.806 15.83677 20.07701 -3.58653
 3.85-2.00 -0.520 -0.518 -0.514 -0.505 -0.491  9.68467  9.73119-13.93256
 3.85-1.50 -0.515 -0.512 -0.508 -0.498 -0.483 10.17696 10.23780-13.42585
 3.85-1.00 -0.517 -0.515 -0.510 -0.501 -0.485 10.65543 10.75580-12.90798
 3.85-0.50 -0.542 -0.540 -0.536 -0.527 -0.512 11.10209 11.29381-12.36988
 3.85 0.00 -0.599 -0.597 -0.592 -0.584 -0.571 11.49872 11.84917-11.81446
 3.85 0.50 -0.667 -0.665 -0.661 -0.652 -0.638 11.84386 12.40364-11.26003
 3.85 1.00 -0.716 -0.714 -0.709 -0.698 -0.682 12.15076 12.94458-10.71919
 3.85 1.25 -0.726 -0.723 -0.717 -0.706 -0.689 12.29436 13.20938-10.45438
 3.85 1.50 -0.722 -0.719 -0.713 -0.701 -0.683 12.43361 13.47115-10.19260
 3.85 1.75 -0.705 -0.702 -0.695 -0.683 -0.664 12.56946 13.73020 -9.93355
 3.85 2.00 -0.675 -0.672 -0.665 -0.652 -0.632 12.70286 13.98722 -9.67654
 3.85 2.25 -0.633 -0.629 -0.623 -0.609 -0.588 12.83429 14.24255 -9.42121
 3.85 2.50 -0.580 -0.576 -0.569 -0.555 -0.533 12.96445 14.49665 -9.16711
 3.85 2.75 -0.516 -0.512 -0.505 -0.490 -0.469 13.09365 14.74979 -8.91394
 3.85 3.00 -0.444 -0.440 -0.433 -0.418 -0.396 13.22220 15.00217 -8.66154
 3.85 3.20 -0.381 -0.378 -0.370 -0.355 -0.332 13.32455 15.20356 -8.46016
 3.85 3.40 -0.315 -0.311 -0.303 -0.287 -0.264 13.42686 15.40469 -8.25904
 3.85 3.60 -0.244 -0.240 -0.232 -0.216 -0.192 13.52911 15.60558 -8.05814
 3.85 3.80 -0.171 -0.167 -0.158 -0.142 -0.117 13.63136 15.80631 -7.85739
 3.85 4.00 -0.095 -0.090 -0.082 -0.065 -0.040 13.73360 16.00690 -7.65679
 3.85 4.20 -0.015 -0.011 -0.002  0.014  0.039 13.83606 16.20732 -7.45635
 3.85 4.40  0.066  0.070  0.079  0.096  0.122 13.93877 16.40769 -7.25599
 3.85 4.60  0.151  0.155  0.164  0.181  0.207 14.04180 16.60803 -7.05569
 3.85 4.80  0.238  0.242  0.251  0.268  0.294 14.14544 16.80834 -6.85542
 3.85 5.00  0.328  0.332  0.340  0.357  0.383 14.24969 17.00860 -6.65522
 3.85 5.20  0.422  0.426  0.433  0.450  0.476 14.35486 17.20868 -6.45509
 3.85 5.40  0.520  0.523  0.530  0.545  0.570 14.46113 17.40876 -6.25496
 3.85 5.60  0.619  0.622  0.628  0.643  0.666 14.56864 17.60884 -6.05481
 3.85 5.80  0.721  0.724  0.730  0.743  0.767 14.67784 17.80893 -5.85462
 3.85 6.00  0.827  0.829  0.835  0.847  0.868 14.78873 18.00903 -5.65443
 3.85 6.25  0.956  0.958  0.963  0.975  0.996 14.93037 18.25930 -5.40420
 3.85 6.50  1.089  1.091  1.096  1.108  1.128 15.07555 18.50974 -5.15397
 3.85 6.75  1.223  1.225  1.230  1.242  1.263 15.22519 18.76046 -4.90335
 3.85 7.00  1.361  1.363  1.368  1.380  1.400 15.37822 19.01157 -4.65228
 3.85 7.25  1.500  1.503  1.508  1.519  1.540 15.53520 19.26333 -4.40047
 3.85 7.50  1.641  1.643  1.648  1.659  1.679 15.69267 19.51614 -4.14752
 3.85 7.75  1.775  1.777  1.782  1.793  1.813 15.85029 19.77168 -3.89191
 3.85 8.00  1.904  1.906  1.911  1.922  1.940 16.00817 20.02938 -3.63414
 3.88-2.00 -0.520 -0.518 -0.514 -0.506 -0.493  9.65753  9.69845-13.96537
 3.88-1.50 -0.504 -0.502 -0.497 -0.487 -0.471 10.15594 10.19975-13.46382
 3.88-1.00 -0.479 -0.476 -0.471 -0.460 -0.442 10.65138 10.70398-12.95979
 3.88-0.50 -0.439 -0.437 -0.432 -0.421 -0.403 11.13767 11.21564-12.44794
 3.88 0.00 -0.392 -0.390 -0.385 -0.375 -0.359 11.60097 11.74414-11.91937
 3.88 0.50 -0.352 -0.350 -0.346 -0.337 -0.322 12.02119 12.29336-11.37029
 3.88 1.00 -0.323 -0.320 -0.316 -0.307 -0.291 12.38828 12.85065-10.81304
 3.88 1.25 -0.307 -0.305 -0.300 -0.290 -0.275 12.55374 13.12594-10.53778
 3.88 1.50 -0.288 -0.285 -0.281 -0.270 -0.254 12.71020 13.39829-10.26544
 3.88 1.75 -0.264 -0.261 -0.256 -0.245 -0.229 12.85894 13.66627 -9.99743
 3.88 2.00 -0.233 -0.231 -0.225 -0.213 -0.197 13.00217 13.93085 -9.73283
 3.88 2.25 -0.196 -0.193 -0.187 -0.176 -0.158 13.14102 14.19216 -9.47152
 3.88 2.50 -0.152 -0.149 -0.143 -0.131 -0.113 13.27669 14.45102 -9.21268
 3.88 2.75 -0.101 -0.098 -0.092 -0.080 -0.061 13.40983 14.70781 -8.95592
 3.88 3.00 -0.043 -0.040 -0.034 -0.021 -0.002 13.54121 14.96303 -8.70071
 3.88 3.20  0.007  0.010  0.017  0.029  0.049 13.64526 15.16626 -8.49748
 3.88 3.40  0.062  0.065  0.072  0.085  0.105 13.74876 15.36888 -8.29485
 3.88 3.60  0.121  0.124  0.131  0.144  0.165 13.85176 15.57095 -8.09277
 3.88 3.80  0.183  0.186  0.193  0.207  0.228 13.95447 15.77264 -7.89107
 3.88 4.00  0.248  0.252  0.259  0.273  0.295 14.05690 15.97396 -7.68973
 3.88 4.20  0.317  0.320  0.328  0.342  0.366 14.15901 16.17495 -7.48873
 3.88 4.40  0.388  0.392  0.399  0.414  0.438 14.26112 16.37576 -7.28790
 3.88 4.60  0.463  0.466  0.473  0.490  0.513 14.36331 16.57644 -7.08721
 3.88 4.80  0.540  0.544  0.552  0.567  0.591 14.46572 16.77703 -6.88661
 3.88 5.00  0.621  0.624  0.631  0.647  0.671 14.56832 16.97750 -6.68613
 3.88 5.20  0.704  0.708  0.715  0.730  0.753 14.67124 17.17777 -6.48583
 3.88 5.40  0.790  0.793  0.800  0.815  0.838 14.77458 17.37802 -6.28559
 3.88 5.60  0.879  0.882  0.888  0.902  0.926 14.87842 17.57825 -6.08541
 3.88 5.80  0.971  0.974  0.980  0.994  1.016 14.98306 17.77847 -5.88524
 3.88 6.00  1.067  1.069  1.074  1.086  1.107 15.08849 17.97868 -5.68508
 3.88 6.25  1.184  1.186  1.191  1.203  1.223 15.22188 18.22891 -5.43486
 3.88 6.50  1.304  1.306  1.311  1.322  1.343 15.35717 18.47915 -5.18462
 3.88 6.75  1.425  1.428  1.432  1.444  1.464 15.49485 18.72947 -4.93429
 3.88 7.00  1.549  1.551  1.556  1.567  1.587 15.63488 18.97991 -4.68382
 3.88 7.25  1.675  1.677  1.682  1.693  1.714 15.77773 19.23071 -4.43301
 3.88 7.50  1.804  1.806  1.811  1.822  1.842 15.92247 19.48202 -4.18171
 3.88 7.75  1.931  1.933  1.938  1.949  1.968 16.06855 19.73462 -3.92912
 3.88 8.00  2.057  2.059  2.064  2.075  2.094 16.21617 19.98825 -3.67551
 3.91-2.00 -0.526 -0.525 -0.522 -0.515 -0.503  9.62818  9.66801-13.99568
 3.91-1.50 -0.511 -0.509 -0.505 -0.496 -0.481 10.12775 10.16820-13.49539
 3.91-1.00 -0.483 -0.480 -0.475 -0.464 -0.444 10.62685 10.66922-12.99439
 3.91-0.50 -0.430 -0.427 -0.421 -0.408 -0.387 11.12353 11.17202-12.49174
 3.91 0.00 -0.339 -0.336 -0.331 -0.318 -0.298 11.61426 11.68025-11.98338
 3.91 0.50 -0.210 -0.208 -0.202 -0.191 -0.173 12.08778 12.20167-11.46206
 3.91 1.00 -0.063 -0.061 -0.057 -0.047 -0.030 12.52569 12.74406-10.91973
 3.91 1.25  0.004  0.006  0.010  0.020  0.036 12.72493 13.02244-10.64132
 3.91 1.50  0.066  0.068  0.073  0.082  0.098 12.91148 13.30081-10.36291
 3.91 1.75  0.121  0.123  0.128  0.138  0.153 13.08474 13.57781-10.08586
 3.91 2.00  0.172  0.174  0.179  0.189  0.204 13.24773 13.85309 -9.81051
 3.91 2.25  0.219  0.221  0.226  0.237  0.252 13.40163 14.12377 -9.53993
 3.91 2.50  0.266  0.268  0.273  0.284  0.299 13.54888 14.39093 -9.27287
 3.91 2.75  0.313  0.316  0.321  0.332  0.348 13.69071 14.65440 -9.00932
 3.91 3.00  0.364  0.366  0.372  0.382  0.399 13.82860 14.91503 -8.74860
 3.91 3.20  0.406  0.409  0.414  0.425  0.442 13.93651 15.12167 -8.54193
 3.91 3.40  0.451  0.454  0.460  0.471  0.488 14.04309 15.32714 -8.33646
 3.91 3.60  0.499  0.502  0.508  0.519  0.537 14.14842 15.53150 -8.13216
 3.91 3.80  0.550  0.553  0.559  0.571  0.589 14.25297 15.73510 -7.92865
 3.91 4.00  0.604  0.607  0.613  0.625  0.645 14.35679 15.93797 -7.72584
 3.91 4.20  0.661  0.664  0.670  0.683  0.703 14.45998 16.14022 -7.52356
 3.91 4.40  0.722  0.724  0.731  0.744  0.764 14.56285 16.34204 -7.32169
 3.91 4.60  0.785  0.788  0.794  0.808  0.829 14.66535 16.54347 -7.12020
 3.91 4.80  0.851  0.854  0.860  0.874  0.896 14.76773 16.74464 -6.91900
 3.91 5.00  0.920  0.923  0.929  0.944  0.966 14.87011 16.94557 -6.71806
 3.91 5.20  0.993  0.996  1.003  1.017  1.038 14.97250 17.14631 -6.51739
 3.91 5.40  1.069  1.072  1.078  1.091  1.113 15.07492 17.34691 -6.31684
 3.91 5.60  1.148  1.150  1.156  1.169  1.191 15.17747 17.54737 -6.11635
 3.91 5.80  1.230  1.232  1.238  1.250  1.271 15.28039 17.74773 -5.91592
 3.91 6.00  1.315  1.317  1.322  1.333  1.354 15.38364 17.94802 -5.71557
 3.91 6.25  1.421  1.423  1.428  1.440  1.460 15.51355 18.19829 -5.46532
 3.91 6.50  1.532  1.534  1.539  1.550  1.569 15.64444 18.44855 -5.21510
 3.91 6.75  1.642  1.644  1.648  1.659  1.678 15.77655 18.69882 -4.96488
 3.91 7.00  1.754  1.756  1.761  1.772  1.791 15.90998 18.94910 -4.71467
 3.91 7.25  1.870  1.872  1.877  1.888  1.907 16.04510 19.19946 -4.46430
 3.91 7.50  1.989  1.991  1.995  2.007  2.026 16.18156 19.44994 -4.21375
 3.91 7.75  2.109  2.112  2.116  2.127  2.145 16.31918 19.70092 -3.96280
 3.91 8.00  2.231  2.233  2.237  2.248  2.265 16.45803 19.95226 -3.71153
 3.94-2.00 -0.531 -0.530 -0.527 -0.522 -0.513  9.59846  9.63759-14.02604
 3.94-1.50 -0.520 -0.518 -0.515 -0.507 -0.494 10.09830 10.13767-13.52593
 3.94-1.00 -0.497 -0.495 -0.490 -0.480 -0.462 10.59791 10.63809-13.02558
 3.94-0.50 -0.449 -0.446 -0.440 -0.427 -0.405 11.09726 11.13862-12.52491
 3.94 0.00 -0.356 -0.352 -0.345 -0.330 -0.308 11.59494 11.64088-12.02283
 3.94 0.50 -0.200 -0.197 -0.190 -0.176 -0.154 12.08778 12.14706-11.51670
 3.94 1.00  0.018  0.021  0.027  0.039  0.059 12.56785 12.66380-11.00000
 3.94 1.25  0.142  0.144  0.150  0.162  0.180 12.79733 12.92955-10.73415
 3.94 1.50  0.266  0.268  0.273  0.284  0.302 13.01745 13.20003-10.46357
 3.94 1.75  0.379  0.381  0.386  0.396  0.413 13.22433 13.47725-10.18643
 3.94 2.00  0.478  0.481  0.485  0.496  0.512 13.41863 13.75465 -9.90904
 3.94 2.25  0.562  0.564  0.568  0.579  0.594 13.59865 14.03214 -9.63151
 3.94 2.50  0.633  0.635  0.640  0.650  0.665 13.76745 14.30963 -9.35399
 3.94 2.75  0.694  0.696  0.701  0.711  0.726 13.92603 14.58246 -9.08124
 3.94 3.00  0.750  0.752  0.757  0.767  0.783 14.07701 14.85187 -8.81192
 3.94 3.20  0.792  0.795  0.800  0.810  0.825 14.19307 15.06433 -8.59940
 3.94 3.40  0.834  0.837  0.842  0.852  0.868 14.30624 15.27481 -8.38886
 3.94 3.60  0.877  0.879  0.884  0.894  0.910 14.41663 15.48334 -8.18029
 3.94 3.80  0.920  0.922  0.927  0.938  0.955 14.52520 15.69041 -7.97322
 3.94 4.00  0.965  0.967  0.973  0.983  1.001 14.63215 15.89614 -7.76751
 3.94 4.20  1.012  1.015  1.020  1.031  1.049 14.73782 16.10073 -7.56299
 3.94 4.40  1.062  1.064  1.070  1.081  1.099 14.84262 16.30448 -7.35929
 3.94 4.60  1.114  1.117  1.122  1.134  1.152 14.94660 16.50740 -7.15635
 3.94 4.80  1.169  1.172  1.177  1.189  1.208 15.05010 16.70977 -6.95394
 3.94 5.00  1.227  1.230  1.235  1.247  1.268 15.15321 16.91164 -6.75203
 3.94 5.20  1.289  1.291  1.297  1.309  1.330 15.25595 17.11310 -6.55057
 3.94 5.40  1.353  1.356  1.361  1.374  1.394 15.35862 17.31430 -6.34938
 3.94 5.60  1.422  1.424  1.430  1.441  1.461 15.46123 17.51527 -6.14839
 3.94 5.80  1.494  1.496  1.501  1.512  1.532 15.56383 17.71607 -5.94756
 3.94 6.00  1.568  1.570  1.575  1.586  1.604 15.66643 17.91672 -5.74691
 3.94 6.25  1.664  1.666  1.670  1.680  1.699 15.79515 18.16734 -5.49639
 3.94 6.50  1.764  1.765  1.769  1.779  1.797 15.92433 18.41780 -5.24596
 3.94 6.75  1.863  1.864  1.869  1.878  1.897 16.05414 18.66811 -4.99555
 3.94 7.00  1.966  1.967  1.971  1.982  2.000 16.18469 18.91840 -4.74521
 3.94 7.25  2.072  2.074  2.078  2.089  2.107 16.31627 19.16868 -4.49501
 3.94 7.50  2.183  2.185  2.189  2.199  2.217 16.44871 19.41896 -4.24481
 3.94 7.75  2.297  2.298  2.302  2.312  2.329 16.58191 19.66929 -3.99446
 3.94 8.00  2.412  2.414  2.418  2.427  2.444 16.71592 19.91965 -3.74400
 3.97-2.00 -0.529 -0.528 -0.526 -0.522 -0.514  9.57019  9.60606-14.05769
 3.97-1.50 -0.525 -0.523 -0.520 -0.514 -0.504 10.06893 10.10721-13.55658
 3.97-1.00 -0.509 -0.507 -0.503 -0.494 -0.480 10.56832 10.60778-13.05591
 3.97-0.50 -0.472 -0.470 -0.464 -0.453 -0.433 11.06781 11.10823-12.55549
 3.97 0.00 -0.393 -0.389 -0.382 -0.367 -0.344 11.56714 11.60885-12.05488
 3.97 0.50 -0.243 -0.240 -0.232 -0.216 -0.191 12.06521 12.11059-11.55315
 3.97 1.00 -0.010 -0.007  0.000  0.015  0.039 12.55955 12.61563-11.04808
 3.97 1.25  0.135  0.138  0.145  0.160  0.183 12.80318 12.87103-10.79261
 3.97 1.50  0.296  0.299  0.306  0.320  0.342 13.04297 13.12937-10.53417
 3.97 1.75  0.461  0.464  0.471  0.484  0.504 13.27593 13.39302-10.27058
 3.97 2.00  0.621  0.624  0.630  0.642  0.661 13.50065 13.66143-10.00226
 3.97 2.25  0.764  0.766  0.772  0.783  0.801 13.71271 13.93643 -9.72732
 3.97 2.50  0.887  0.889  0.895  0.906  0.923 13.91249 14.21325 -9.45051
 3.97 2.75  0.987  0.990  0.995  1.005  1.022 14.09781 14.49139 -9.17233
 3.97 3.00  1.071  1.074  1.079  1.089  1.105 14.27138 14.76952 -8.89415
 3.97 3.20  1.128  1.130  1.135  1.145  1.161 14.40199 14.98905 -8.67463
 3.97 3.40  1.179  1.181  1.186  1.196  1.211 14.52728 15.20653 -8.45717
 3.97 3.60  1.225  1.227  1.232  1.242  1.258 14.64739 15.42160 -8.24214
 3.97 3.80  1.269  1.271  1.275  1.285  1.301 14.76387 15.63423 -8.02954
 3.97 4.00  1.311  1.313  1.318  1.328  1.344 14.87714 15.84479 -7.81902
 3.97 4.20  1.353  1.355  1.360  1.370  1.387 14.98784 16.05335 -7.61043
 3.97 4.40  1.396  1.398  1.403  1.413  1.430 15.09671 16.26044 -7.40333
 3.97 4.60  1.441  1.443  1.447  1.458  1.475 15.20381 16.46608 -7.19770
 3.97 4.80  1.487  1.489  1.494  1.504  1.522 15.30980 16.67069 -6.99310
 3.97 5.00  1.536  1.538  1.542  1.553  1.571 15.41481 16.87437 -6.78941
 3.97 5.20  1.587  1.589  1.594  1.604  1.622 15.51899 17.07724 -6.58643
 3.97 5.40  1.642  1.644  1.648  1.659  1.677 15.62276 17.27959 -6.38400
 3.97 5.60  1.699  1.701  1.706  1.716  1.734 15.72612 17.48149 -6.18211
 3.97 5.80  1.760  1.762  1.766  1.777  1.795 15.82931 17.68308 -5.98057
 3.97 6.00  1.825  1.826  1.831  1.840  1.857 15.93242 17.88434 -5.77937
 3.97 6.25  1.909  1.910  1.914  1.923  1.940 16.06124 18.13546 -5.52825
 3.97 6.50  1.997  1.998  2.002  2.011  2.027 16.19005 18.38632 -5.27737
 3.97 6.75  2.085  2.087  2.090  2.099  2.116 16.31940 18.63702 -5.02659
 3.97 7.00  2.178  2.180  2.183  2.192  2.209 16.44917 18.88756 -4.77599
 3.97 7.25  2.276  2.277  2.281  2.290  2.306 16.57950 19.13796 -4.52573
 3.97 7.50  2.377  2.379  2.382  2.391  2.407 16.71037 19.38828 -4.27548
 3.97 7.75  2.482  2.484  2.488  2.496  2.511 16.84185 19.63854 -4.02522
 3.97 8.00  2.591  2.593  2.596  2.604  2.619 16.97391 19.88874 -3.77495
 4.00-2.00 -0.513 -0.512 -0.510 -0.507 -0.500  9.54962  9.56808-14.09566
 4.00-1.50 -0.518 -0.517 -0.514 -0.509 -0.501 10.04376 10.07335-13.59041
 4.00-1.00 -0.513 -0.511 -0.508 -0.501 -0.489 10.54045 10.57669-13.08703
 4.00-0.50 -0.489 -0.487 -0.482 -0.472 -0.455 11.03902 11.07809-12.58570
 4.00 0.00 -0.429 -0.426 -0.420 -0.406 -0.384 11.53807 11.57875-12.08492
 4.00 0.50 -0.302 -0.298 -0.291 -0.275 -0.249 12.03743 12.07954-11.58436
 4.00 1.00 -0.083 -0.079 -0.071 -0.054 -0.026 12.53567 12.58104-11.08271
 4.00 1.25  0.062  0.066  0.074  0.091  0.119 12.78375 12.83265-10.83099
 4.00 1.50  0.231  0.235  0.243  0.260  0.287 13.03060 13.08529-10.57823
 4.00 1.75  0.416  0.419  0.427  0.443  0.469 13.27510 13.34017-10.32341
 4.00 2.00  0.610  0.613  0.620  0.636  0.660 13.51627 13.59781-10.06591
 4.00 2.25  0.800  0.803  0.810  0.824  0.847 13.75110 13.85999 -9.80369
 4.00 2.50  0.981  0.983  0.990  1.003  1.024 13.97827 14.12678 -9.53685
 4.00 2.75  1.139  1.142  1.147  1.160  1.179 14.19363 14.40041 -9.26334
 4.00 3.00  1.275  1.278  1.283  1.294  1.313 14.39707 14.67660 -8.98716
 4.00 3.20  1.365  1.367  1.372  1.383  1.401 14.54912 14.89926 -8.76441
 4.00 3.40  1.442  1.444  1.449  1.460  1.477 14.69343 15.12192 -8.54165
 4.00 3.60  1.508  1.510  1.514  1.525  1.541 14.82971 15.34360 -8.31994
 4.00 3.80  1.564  1.566  1.570  1.580  1.597 14.95959 15.56289 -8.10071
 4.00 4.00  1.615  1.617  1.621  1.631  1.647 15.08386 15.78032 -7.88339
 4.00 4.20  1.660  1.662  1.666  1.676  1.692 15.20340 15.99476 -7.66897
 4.00 4.40  1.703  1.705  1.709  1.719  1.735 15.31947 16.20705 -7.45669
 4.00 4.60  1.745  1.747  1.751  1.760  1.777 15.43221 16.41714 -7.24660
 4.00 4.80  1.787  1.788  1.792  1.802  1.818 15.54274 16.62548 -7.03827
 4.00 5.00  1.829  1.831  1.835  1.844  1.860 15.65128 16.83225 -6.83150
 4.00 5.20  1.873  1.875  1.879  1.888  1.904 15.75820 17.03769 -6.62609
 4.00 5.40  1.919  1.921  1.925  1.934  1.950 15.86413 17.24214 -6.42163
 4.00 5.60  1.968  1.969  1.973  1.982  1.999 15.96913 17.44566 -6.21805
 4.00 5.80  2.019  2.021  2.025  2.033  2.050 16.07358 17.64854 -6.01510
 4.00 6.00  2.074  2.076  2.079  2.088  2.103 16.17754 17.85083 -5.81276
 4.00 6.25  2.146  2.148  2.151  2.159  2.174 16.30678 18.10301 -5.56065
 4.00 6.50  2.224  2.225  2.228  2.236  2.250 16.43600 18.35468 -5.30901
 4.00 6.75  2.302  2.303  2.306  2.314  2.328 16.56522 18.60599 -5.05764
 4.00 7.00  2.385  2.387  2.390  2.397  2.411 16.69443 18.85697 -4.80660
 4.00 7.25  2.474  2.475  2.478  2.486  2.500 16.82412 19.10761 -4.55598
 4.00 7.50  2.567  2.569  2.572  2.579  2.593 16.95429 19.35813 -4.30548
 4.00 7.75  2.665  2.667  2.670  2.677  2.690 17.08527 19.60858 -4.05503
 4.00 8.00  2.768  2.769  2.772  2.779  2.792 17.21696 19.85896 -3.80465
 4.05-2.00 -0.492 -0.491 -0.489 -0.484 -0.477  9.50853  9.50934-14.15435
 4.05-1.50 -0.490 -0.489 -0.487 -0.482 -0.473 10.00732 10.01030-13.65326
 4.05-1.00 -0.489 -0.488 -0.485 -0.479 -0.468 10.50433 10.51348-13.15027
 4.05-0.50 -0.485 -0.483 -0.479 -0.471 -0.457 10.99913 11.01828-12.64532
 4.05 0.00 -0.461 -0.459 -0.454 -0.443 -0.424 11.49360 11.52375-12.13996
 4.05 0.50 -0.388 -0.385 -0.378 -0.364 -0.340 11.99007 12.02694-11.63676
 4.05 1.00 -0.227 -0.224 -0.216 -0.198 -0.169 12.48841 12.52853-11.13513
 4.05 1.25 -0.105 -0.101 -0.093 -0.074 -0.043 12.73775 12.77916-10.88454
 4.05 1.50  0.045  0.049  0.058  0.078  0.111 12.98709 13.02979-10.63395
 4.05 1.75  0.223  0.227  0.237  0.257  0.291 13.23612 13.28066-10.38308
 4.05 2.00  0.424  0.428  0.437  0.458  0.492 13.48473 13.53186-10.13183
 4.05 2.25  0.637  0.641  0.650  0.670  0.703 13.73215 13.78415 -9.87958
 4.05 2.50  0.858  0.862  0.870  0.889  0.921 13.97795 14.03782 -9.62599
 4.05 2.75  1.077  1.080  1.088  1.105  1.135 14.22064 14.29407 -9.36967
 4.05 3.00  1.289  1.293  1.300  1.316  1.342 14.45909 14.55352 -9.11008
 4.05 3.20  1.448  1.451  1.458  1.472  1.496 14.64449 14.76511 -8.89853
 4.05 3.40  1.596  1.598  1.604  1.617  1.639 14.82422 14.97971 -8.68400
 4.05 3.60  1.727  1.729  1.734  1.746  1.767 14.99701 15.19852 -8.46525
 4.05 3.80  1.841  1.843  1.848  1.859  1.878 15.16118 15.41968 -8.24410
 4.05 4.00  1.940  1.942  1.946  1.957  1.974 15.31744 15.64138 -8.02237
 4.05 4.20  2.022  2.024  2.028  2.037  2.054 15.46436 15.86341 -7.80027
 4.05 4.40  2.093  2.094  2.098  2.107  2.123 15.60404 16.08544 -7.57817
 4.05 4.60  2.153  2.155  2.158  2.167  2.182 15.73636 16.30615 -7.35745
 4.05 4.80  2.206  2.208  2.211  2.219  2.234 15.86302 16.52395 -7.13971
 4.05 5.00  2.255  2.256  2.259  2.267  2.281 15.98471 16.73965 -6.92409
 4.05 5.20  2.300  2.301  2.304  2.311  2.325 16.10225 16.95254 -6.71117
 4.05 5.40  2.343  2.344  2.347  2.354  2.367 16.21683 17.16342 -6.50026
 4.05 5.60  2.386  2.387  2.390  2.397  2.409 16.32853 17.37231 -6.29137
 4.05 5.80  2.430  2.431  2.434  2.440  2.452 16.43839 17.57967 -6.08405
 4.05 6.00  2.475  2.476  2.479  2.484  2.496 16.54667 17.78562 -5.87811
 4.05 6.25  2.534  2.535  2.537  2.542  2.553 16.68031 18.04136 -5.62233
 4.05 6.50  2.596  2.597  2.599  2.604  2.614 16.81285 18.29579 -5.36785
 4.05 6.75  2.660  2.661  2.663  2.668  2.679 16.94453 18.54923 -5.11435
 4.05 7.00  2.729  2.730  2.732  2.738  2.748 17.07591 18.80188 -4.86170
 4.05 7.25  2.804  2.805  2.807  2.812  2.822 17.20709 19.05386 -4.60985
 4.05 7.50  2.885  2.886  2.888  2.893  2.902 17.33826 19.30535 -4.35843
 4.05 7.75  2.972  2.972  2.974  2.979  2.988 17.47006 19.55650 -4.10724
 4.05 8.00  3.064  3.065  3.067  3.071  3.080 17.60228 19.80726 -3.85636
 4.10-2.00 -0.482 -0.480 -0.478 -0.471 -0.460  9.45909  9.45879-14.20496
 4.10-1.50 -0.478 -0.477 -0.474 -0.467 -0.454  9.95899  9.95880-13.70487
 4.10-1.00 -0.474 -0.473 -0.469 -0.461 -0.448 10.45879 10.45909-13.20461
 4.10-0.50 -0.466 -0.465 -0.461 -0.452 -0.437 10.95813 10.95966-12.70399
 4.10 0.00 -0.449 -0.447 -0.443 -0.432 -0.414 11.45652 11.46135-12.20232
 4.10 0.50 -0.408 -0.406 -0.399 -0.387 -0.365 11.95265 11.96506-11.69854
 4.10 1.00 -0.312 -0.309 -0.302 -0.286 -0.259 12.44685 12.47071-11.19308
 4.10 1.25 -0.231 -0.227 -0.220 -0.202 -0.172 12.69417 12.72320-10.94054
 4.10 1.50 -0.123 -0.119 -0.111 -0.091 -0.058 12.94176 12.97539-10.68825
 4.10 1.75  0.016  0.020  0.029  0.050  0.085 13.19009 13.22699-10.43674
 4.10 2.00  0.184  0.188  0.198  0.220  0.256 13.43870 13.47828-10.18549
 4.10 2.25  0.380  0.384  0.394  0.417  0.453 13.68756 13.72925 -9.93444
 4.10 2.50  0.595  0.600  0.610  0.632  0.668 13.93641 13.98023 -9.68340
 4.10 2.75  0.825  0.829  0.838  0.860  0.894 14.18478 14.23173 -9.43192
 4.10 3.00  1.060  1.064  1.073  1.093  1.126 14.43249 14.48387 -9.17986
 4.10 3.20  1.247  1.250  1.258  1.278  1.308 14.62943 14.68657 -8.97719
 4.10 3.40  1.432  1.435  1.443  1.460  1.489 14.82483 14.89052 -8.77325
 4.10 3.60  1.612  1.615  1.622  1.637  1.664 15.01821 15.09618 -8.56757
 4.10 3.80  1.785  1.787  1.793  1.806  1.831 15.20789 15.30458 -8.35913
 4.10 4.00  1.947  1.949  1.954  1.966  1.988 15.39375 15.51561 -8.14807
 4.10 4.20  2.095  2.097  2.102  2.112  2.131 15.57293 15.73099 -7.93268
 4.10 4.40  2.228  2.230  2.234  2.243  2.260 15.74529 15.94890 -7.71476
 4.10 4.60  2.344  2.346  2.349  2.358  2.373 15.90973 16.17002 -7.49363
 4.10 4.80  2.444  2.445  2.448  2.456  2.469 16.06543 16.39246 -7.27120
 4.10 5.00  2.530  2.531  2.534  2.540  2.553 16.21325 16.61490 -7.04876
 4.10 5.20  2.602  2.603  2.605  2.612  2.623 16.35253 16.83618 -6.82752
 4.10 5.40  2.665  2.666  2.668  2.674  2.685 16.48556 17.05626 -6.60752
 4.10 5.60  2.721  2.722  2.724  2.730  2.739 16.61242 17.27426 -6.38958
 4.10 5.80  2.773  2.774  2.776  2.780  2.790 16.73484 17.48944 -6.17439
 4.10 6.00  2.822  2.823  2.825  2.829  2.837 16.85333 17.70243 -5.96138
 4.10 6.25  2.881  2.882  2.883  2.887  2.895 16.99703 17.96548 -5.69823
 4.10 6.50  2.940  2.941  2.942  2.946  2.953 17.13735 18.22583 -5.43783
 4.10 6.75  3.000  3.000  3.002  3.005  3.013 17.27501 18.48385 -5.17989
 4.10 7.00  3.062  3.063  3.064  3.068  3.075 17.41112 18.74005 -4.92373
 4.10 7.25  3.129  3.130  3.131  3.135  3.142 17.54580 18.99466 -4.66898
 4.10 7.50  3.201  3.201  3.203  3.206  3.213 17.68043 19.24822 -4.41533
 4.10 7.75  3.278  3.279  3.280  3.283  3.290 17.81504 19.50111 -4.16245
 4.10 8.00  3.362  3.362  3.363  3.366  3.372 17.94963 19.75320 -3.91045
 4.15-2.00 -0.482 -0.481 -0.479 -0.473 -0.464  9.40926  9.40875-14.25500
 4.15-1.50 -0.473 -0.471 -0.468 -0.461 -0.447  9.90913  9.90870-13.75498
 4.15-1.00 -0.463 -0.461 -0.457 -0.447 -0.431 10.40909 10.40875-13.25493
 4.15-0.50 -0.453 -0.451 -0.446 -0.434 -0.416 10.90902 10.90881-12.75498
 4.15 0.00 -0.440 -0.437 -0.431 -0.419 -0.398 11.40892 11.40892-12.25469
 4.15 0.50 -0.411 -0.408 -0.402 -0.388 -0.365 11.90838 11.90945-11.75424
 4.15 1.00 -0.345 -0.342 -0.335 -0.319 -0.292 12.40722 12.41061-11.25305
 4.15 1.25 -0.288 -0.285 -0.277 -0.260 -0.229 12.65598 12.66181-11.00180
 4.15 1.50 -0.210 -0.207 -0.199 -0.180 -0.147 12.90423 12.91350-10.75007
 4.15 1.75 -0.108 -0.104 -0.096 -0.075 -0.040 13.15174 13.16597-10.49766
 4.15 2.00  0.016  0.020  0.029  0.051  0.087 13.39898 13.41863-10.24504
 4.15 2.25  0.169  0.173  0.183  0.205  0.242 13.64601 13.67143 -9.99225
 4.15 2.50  0.345  0.350  0.360  0.381  0.419 13.89304 13.92423 -9.73945
 4.15 2.75  0.548  0.552  0.561  0.583  0.619 14.14073 14.17638 -9.48736
 4.15 3.00  0.767  0.771  0.780  0.800  0.835 14.38863 14.42830 -9.23545
 4.15 3.20  0.954  0.958  0.966  0.986  1.019 14.58712 14.62966 -9.03403
 4.15 3.40  1.146  1.150  1.158  1.176  1.207 14.78561 14.83103 -8.83260
 4.15 3.60  1.341  1.344  1.352  1.368  1.397 14.98384 15.03263 -8.63097
 4.15 3.80  1.536  1.539  1.545  1.561  1.587 15.18117 15.23499 -8.42860
 4.15 4.00  1.727  1.729  1.735  1.750  1.774 15.37767 15.43807 -8.22556
 4.15 4.20  1.914  1.916  1.921  1.933  1.956 15.57211 15.64285 -8.02079
 4.15 4.40  2.095  2.097  2.102  2.112  2.132 15.76395 15.84960 -7.81406
 4.15 4.60  2.268  2.269  2.273  2.282  2.299 15.95245 16.05903 -7.60467
 4.15 4.80  2.429  2.430  2.433  2.441  2.456 16.13546 16.27185 -7.39189
 4.15 5.00  2.576  2.577  2.580  2.587  2.599 16.31302 16.48756 -7.17620
 4.15 5.20  2.705  2.706  2.709  2.715  2.726 16.48208 16.70772 -6.95590
 4.15 5.40  2.819  2.820  2.822  2.827  2.837 16.64349 16.92866 -6.73491
 4.15 5.60  2.917  2.918  2.919  2.924  2.933 16.79645 17.15034 -6.51326
 4.15 5.80  3.001  3.002  3.003  3.007  3.015 16.94149 17.37220 -6.29146
 4.15 6.00  3.075  3.076  3.077  3.080  3.087 17.07955 17.59406 -6.06966
 4.15 6.25  3.155  3.155  3.156  3.159  3.165 17.24304 17.86715 -5.79658
 4.15 6.50  3.227  3.228  3.229  3.231  3.237 17.39915 18.13704 -5.52666
 4.15 6.75  3.295  3.295  3.296  3.298  3.304 17.54906 18.40301 -5.26070
 4.15 7.00  3.361  3.361  3.362  3.364  3.370 17.69487 18.66586 -4.99783
 4.15 7.25  3.428  3.428  3.429  3.432  3.437 17.83732 18.92577 -4.73785
 4.15 7.50  3.498  3.498  3.499  3.501  3.506 17.97809 19.18356 -4.48004
 4.15 7.75  3.571  3.572  3.572  3.575  3.579 18.11798 19.43985 -4.22383
 4.15 8.00  3.650  3.650  3.651  3.653  3.657 18.25672 19.69443 -3.96940
 4.20-2.00 -0.487 -0.486 -0.485 -0.482 -0.477  9.35908  9.35870-14.30504
 4.20-1.50 -0.480 -0.479 -0.477 -0.473 -0.466  9.85914  9.85866-13.80493
 4.20-1.00 -0.469 -0.468 -0.465 -0.459 -0.447 10.35908 10.35870-13.30496
 4.20-0.50 -0.453 -0.452 -0.447 -0.437 -0.422 10.85908 10.85872-12.80493
 4.20 0.00 -0.432 -0.430 -0.424 -0.412 -0.390 11.35908 11.35889-12.30487
 4.20 0.50 -0.405 -0.402 -0.396 -0.380 -0.353 11.85890 11.85884-11.80493
 4.20 1.00 -0.359 -0.356 -0.348 -0.330 -0.297 12.35870 12.35908-11.30461
 4.20 1.25 -0.321 -0.318 -0.310 -0.290 -0.255 12.60854 12.60925-11.05439
 4.20 1.50 -0.267 -0.263 -0.255 -0.233 -0.196 12.85830 12.85950-10.80410
 4.20 1.75 -0.192 -0.188 -0.179 -0.156 -0.117 13.10786 13.10993-10.55370
 4.20 2.00 -0.095 -0.091 -0.080 -0.057 -0.017 13.35717 13.36059-10.30312
 4.20 2.25  0.028  0.033  0.042  0.066  0.108 13.60609 13.61164-10.05206
 4.20 2.50  0.175  0.179  0.188  0.212  0.253 13.85455 13.86314 -9.80052
 4.20 2.75  0.346  0.349  0.359  0.381  0.421 14.10223 14.11543 -9.54820
 4.20 3.00  0.534  0.537  0.546  0.567  0.605 14.34947 14.36810 -9.29551
 4.20 3.20  0.699  0.703  0.711  0.731  0.767 14.54690 14.57054 -9.09307
 4.20 3.40  0.872  0.876  0.883  0.902  0.935 14.74433 14.77297 -8.89063
 4.20 3.60  1.055  1.058  1.065  1.082  1.112 14.94193 14.97525 -8.68838
 4.20 3.80  1.245  1.248  1.254  1.270  1.297 15.13969 15.17737 -8.48631
 4.20 4.00  1.439  1.441  1.447  1.461  1.485 15.33746 15.37949 -8.28425
 4.20 4.20  1.636  1.639  1.644  1.657  1.680 15.53500 15.58171 -8.08204
 4.20 4.40  1.835  1.837  1.842  1.854  1.874 15.73223 15.78410 -7.87962
 4.20 4.60  2.032  2.034  2.038  2.048  2.066 15.92874 15.98709 -7.67659
 4.20 4.80  2.226  2.227  2.231  2.239  2.254 16.12346 16.19163 -7.47204
 4.20 5.00  2.414  2.415  2.418  2.425  2.438 16.31639 16.39759 -7.26608
 4.20 5.20  2.595  2.596  2.598  2.604  2.615 16.50556 16.60644 -7.05727
 4.20 5.40  2.764  2.765  2.767  2.772  2.782 16.69035 16.81800 -6.84575
 4.20 5.60  2.920  2.921  2.922  2.926  2.935 16.86969 17.03318 -6.63054
 4.20 5.80  3.060  3.061  3.062  3.065  3.072 17.04162 17.25137 -6.41228
 4.20 6.00  3.185  3.186  3.187  3.189  3.194 17.20656 17.47144 -6.19219
 4.20 6.25  3.315  3.316  3.317  3.319  3.323 17.40028 17.74899 -5.91476
 4.20 6.50  3.428  3.428  3.429  3.431  3.434 17.58275 18.02654 -5.63733
 4.20 6.75  3.522  3.522  3.523  3.524  3.528 17.75416 18.30118 -5.36262
 4.20 7.00  3.607  3.608  3.608  3.610  3.613 17.91751 18.57322 -5.09044
 4.20 7.25  3.686  3.687  3.687  3.689  3.692 18.07388 18.84130 -4.82238
 4.20 7.50  3.764  3.764  3.764  3.766  3.769 18.22583 19.10619 -4.55752
 4.20 7.75  3.841  3.841  3.841  3.843  3.846 18.37501 19.36822 -4.29552
 4.20 8.00  3.920  3.920  3.921  3.922  3.925 18.52088 19.62726 -4.03650
 4.25-2.00 -0.482 -0.482 -0.481 -0.478 -0.474  9.30920  9.30856-14.35507
 4.25-1.50 -0.479 -0.479 -0.478 -0.475 -0.469  9.80916  9.80862-13.85511
 4.25-1.00 -0.473 -0.473 -0.471 -0.467 -0.460 10.30920 10.30878-13.35497
 4.25-0.50 -0.463 -0.462 -0.459 -0.454 -0.443 10.80909 10.80868-12.85511
 4.25 0.00 -0.444 -0.443 -0.439 -0.431 -0.417 11.30899 11.30878-12.35497
 4.25 0.50 -0.415 -0.413 -0.409 -0.397 -0.377 11.80902 11.80875-11.85480
 4.25 1.00 -0.371 -0.369 -0.362 -0.346 -0.316 12.30899 12.30878-11.35477
 4.25 1.25 -0.340 -0.337 -0.329 -0.310 -0.277 12.55892 12.55885-11.10479
 4.25 1.50 -0.296 -0.293 -0.284 -0.262 -0.224 12.80882 12.80895-10.85480
 4.25 1.75 -0.240 -0.236 -0.226 -0.203 -0.161 13.05871 13.05907-10.60461
 4.25 2.00 -0.166 -0.161 -0.151 -0.126 -0.080 13.30857 13.30920-10.35438
 4.25 2.25 -0.073 -0.068 -0.058 -0.031  0.016 13.55836 13.55940-10.10415
 4.25 2.50  0.041  0.045  0.056  0.083  0.132 13.80808 13.80969 -9.85387
 4.25 2.75  0.181  0.186  0.196  0.223  0.270 14.05759 14.06017 -9.60341
 4.25 3.00  0.344  0.348  0.358  0.384  0.427 14.30685 14.31091 -9.35271
 4.25 3.20  0.495  0.498  0.508  0.531  0.572 14.50593 14.51182 -9.15182
 4.25 3.40  0.655  0.659  0.667  0.688  0.726 14.70468 14.71305 -8.95059
 4.25 3.60  0.827  0.830  0.837  0.856  0.890 14.90300 14.91470 -8.74892
 4.25 3.80  1.006  1.009  1.015  1.032  1.063 15.10088 15.11676 -8.54684
 4.25 4.00  1.189  1.191  1.197  1.211  1.237 15.29842 15.31911 -8.34448
 4.25 4.20  1.379  1.381  1.386  1.399  1.422 15.49560 15.52174 -8.14186
 4.25 4.40  1.570  1.572  1.577  1.589  1.609 15.69265 15.72448 -7.93913
 4.25 4.60  1.767  1.769  1.773  1.783  1.801 15.88964 15.92726 -7.73636
 4.25 4.80  1.968  1.969  1.973  1.981  1.998 16.08655 16.13009 -7.53354
 4.25 5.00  2.169  2.170  2.173  2.180  2.194 16.28330 16.33304 -7.33059
 4.25 5.20  2.372  2.373  2.376  2.382  2.393 16.47904 16.53682 -7.12682
 4.25 5.40  2.570  2.570  2.573  2.578  2.587 16.67351 16.74160 -6.92206
 4.25 5.60  2.762  2.763  2.764  2.768  2.777 16.86612 16.94788 -6.71576
 4.25 5.80  2.948  2.948  2.950  2.953  2.959 17.05513 17.15671 -6.50691
 4.25 6.00  3.123  3.124  3.125  3.127  3.132 17.24055 17.36791 -6.29568
 4.25 6.25  3.321  3.321  3.322  3.324  3.328 17.46338 17.63737 -6.02636
 4.25 6.50  3.496  3.496  3.497  3.499  3.502 17.67633 17.91030 -5.75350
 4.25 6.75  3.643  3.643  3.644  3.645  3.648 17.87659 18.18702 -5.47670
 4.25 7.00  3.771  3.771  3.772  3.773  3.775 18.06595 18.46374 -5.19990
 4.25 7.25  3.880  3.880  3.880  3.881  3.883 18.24416 18.73879 -4.92477
 4.25 7.50  3.979  3.980  3.980  3.981  3.983 18.41431 19.01199 -4.65150
 4.25 7.75  4.071  4.071  4.071  4.072  4.073 18.57855 19.28140 -4.38218
 4.25 8.00  4.160  4.160  4.160  4.161  4.163 18.73616 19.54765 -4.11611
 4.30-2.00 -0.472 -0.472 -0.471 -0.468 -0.462  9.26055  9.25744-14.40638
 4.30-1.50 -0.470 -0.470 -0.469 -0.465 -0.459  9.75959  9.75815-13.90553
 4.30-1.00 -0.467 -0.466 -0.464 -0.460 -0.452 10.25935 10.25864-13.40517
 4.30-0.50 -0.460 -0.459 -0.458 -0.452 -0.443 10.75914 10.75861-12.90518
 4.30 0.00 -0.448 -0.447 -0.444 -0.438 -0.427 11.25912 11.25864-12.40494
 4.30 0.50 -0.426 -0.424 -0.421 -0.414 -0.400 11.75899 11.75876-11.90483
 4.30 1.00 -0.391 -0.389 -0.385 -0.375 -0.356 12.25912 12.25888-11.40483
 4.30 1.25 -0.365 -0.363 -0.359 -0.346 -0.323 12.50901 12.50886-11.15483
 4.30 1.50 -0.332 -0.330 -0.324 -0.309 -0.282 12.75891 12.75884-10.90483
 4.30 1.75 -0.287 -0.284 -0.277 -0.258 -0.227 13.00889 13.00898-10.65479
 4.30 2.00 -0.226 -0.223 -0.214 -0.193 -0.155 13.25888 13.25912-10.40473
 4.30 2.25 -0.149 -0.146 -0.136 -0.112 -0.069 13.50877 13.50913-10.15461
 4.30 2.50 -0.053 -0.048 -0.038 -0.011  0.036 13.75861 13.75914 -9.90448
 4.30 2.75  0.062  0.066  0.077  0.105  0.155 14.00841 14.00934 -9.65434
 4.30 3.00  0.199  0.203  0.215  0.243  0.293 14.25816 14.25959 -9.40417
 4.30 3.20  0.326  0.330  0.341  0.368  0.416 14.45795 14.45980 -9.20395
 4.30 3.40  0.467  0.470  0.480  0.506  0.550 14.65769 14.66005 -9.00363
 4.30 3.60  0.623  0.626  0.635  0.658  0.699 14.85735 14.86044 -8.80320
 4.30 3.80  0.792  0.795  0.802  0.823  0.859 15.05678 15.06110 -8.60258
 4.30 4.00  0.968  0.971  0.978  0.995  1.027 15.25600 15.26198 -8.40176
 4.30 4.20  1.157  1.159  1.165  1.180  1.207 15.45476 15.46313 -8.20063
 4.30 4.40  1.348  1.350  1.355  1.367  1.390 15.65311 15.66463 -7.99914
 4.30 4.60  1.543  1.544  1.549  1.559  1.578 15.85096 15.86664 -7.79714
 4.30 4.80  1.740  1.742  1.745  1.755  1.771 16.04833 16.06917 -7.59461
 4.30 5.00  1.938  1.939  1.942  1.949  1.964 16.24527 16.27207 -7.39169
 4.30 5.20  2.141  2.142  2.145  2.151  2.162 16.44196 16.47516 -7.18854
 4.30 5.40  2.345  2.346  2.347  2.352  2.362 16.63816 16.67865 -6.98499
 4.30 5.60  2.549  2.550  2.552  2.556  2.564 16.83389 16.88251 -6.78108
 4.30 5.80  2.754  2.754  2.756  2.759  2.766 17.02872 17.08707 -6.57654
 4.30 6.00  2.954  2.954  2.955  2.957  2.962 17.22246 17.29248 -6.37120
 4.30 6.25  3.196  3.197  3.197  3.199  3.203 17.46096 17.55204 -6.11170
 4.30 6.50  3.426  3.426  3.427  3.428  3.431 17.69461 17.81485 -5.84894
 4.30 6.75  3.633  3.633  3.633  3.634  3.637 17.91980 18.08292 -5.58079
 4.30 7.00  3.819  3.819  3.819  3.820  3.822 18.13609 18.35449 -5.30918
 4.30 7.25  3.977  3.978  3.978  3.979  3.981 18.34061 18.63017 -5.03357
 4.30 7.50  4.119  4.119  4.119  4.120  4.122 18.53504 18.90585 -4.75796
 4.30 7.75  4.240  4.240  4.241  4.241  4.242 18.72012 19.18030 -4.48349
 4.30 8.00  4.353  4.353  4.353  4.354  4.355 18.89559 19.45393 -4.20979
 4.35-2.00 -0.448 -0.448 -0.447 -0.444 -0.440  9.22272  9.19452-14.46903
 4.35-1.50 -0.451 -0.451 -0.449 -0.446 -0.440  9.71792  9.69967-13.96417
 4.35-1.00 -0.453 -0.452 -0.450 -0.446 -0.437 10.21352 10.20439-13.45930
 4.35-0.50 -0.449 -0.448 -0.446 -0.440 -0.430 10.71071 10.70706-12.95664
 4.35 0.00 -0.439 -0.438 -0.436 -0.430 -0.418 11.20978 11.20817-12.45556
 4.35 0.50 -0.423 -0.422 -0.419 -0.412 -0.398 11.70927 11.70851-11.95507
 4.35 1.00 -0.394 -0.393 -0.390 -0.381 -0.365 12.20898 12.20871-11.45494
 4.35 1.25 -0.373 -0.372 -0.368 -0.359 -0.342 12.45894 12.45878-11.20481
 4.35 1.50 -0.348 -0.347 -0.343 -0.332 -0.312 12.70893 12.70885-10.95468
 4.35 1.75 -0.315 -0.313 -0.308 -0.296 -0.273 12.95895 12.95891-10.70469
 4.35 2.00 -0.272 -0.270 -0.264 -0.249 -0.224 13.20898 13.20898-10.45469
 4.35 2.25 -0.213 -0.210 -0.204 -0.187 -0.157 13.45887 13.45900-10.20469
 4.35 2.50 -0.138 -0.135 -0.127 -0.108 -0.073 13.70876 13.70902 -9.95468
 4.35 2.75 -0.041 -0.038 -0.030 -0.008  0.031 13.95874 13.95912 -9.70456
 4.35 3.00  0.075  0.079  0.088  0.112  0.155 14.20871 14.20925 -9.45445
 4.35 3.20  0.187  0.190  0.200  0.225  0.268 14.40855 14.40935 -9.25438
 4.35 3.40  0.313  0.317  0.327  0.351  0.395 14.60836 14.60946 -9.05432
 4.35 3.60  0.454  0.458  0.467  0.491  0.534 14.80815 14.80960 -8.85419
 4.35 3.80  0.610  0.613  0.621  0.643  0.683 15.00791 15.00980 -8.65393
 4.35 4.00  0.776  0.779  0.786  0.807  0.843 15.20763 15.21005 -8.45358
 4.35 4.20  0.955  0.957  0.964  0.981  1.014 15.40728 15.41041 -8.25317
 4.35 4.40  1.140  1.142  1.148  1.162  1.191 15.60682 15.61092 -8.05264
 4.35 4.60  1.333  1.335  1.340  1.352  1.375 15.80622 15.81158 -7.85198
 4.35 4.80  1.532  1.534  1.538  1.548  1.567 16.00532 16.01253 -7.65107
 4.35 5.00  1.731  1.733  1.736  1.744  1.760 16.20412 16.21378 -7.44989
 4.35 5.20  1.938  1.939  1.942  1.948  1.962 16.40224 16.41556 -7.24817
 4.35 5.40  2.144  2.144  2.146  2.152  2.162 16.59979 16.61784 -7.04594
 4.35 5.60  2.350  2.351  2.352  2.356  2.364 16.79683 16.82065 -6.84313
 4.35 5.80  2.557  2.557  2.559  2.563  2.569 16.99324 17.02408 -6.63967
 4.35 6.00  2.763  2.764  2.764  2.767  2.771 17.18893 17.22814 -6.43557
 4.35 6.25  3.025  3.025  3.026  3.028  3.032 17.43234 17.48402 -6.17965
 4.35 6.50  3.279  3.279  3.279  3.281  3.283 17.67376 17.74139 -5.92227
 4.35 6.75  3.524  3.524  3.524  3.525  3.528 17.91187 18.00138 -5.66234
 4.35 7.00  3.757  3.757  3.757  3.758  3.760 18.14551 18.26435 -5.39946
 4.35 7.25  3.968  3.968  3.968  3.969  3.970 18.37134 18.53194 -5.13186
 4.35 7.50  4.161  4.161  4.161  4.161  4.162 18.58906 18.80271 -4.86107
 4.35 7.75  4.326  4.326  4.326  4.327  4.327 18.79651 19.07591 -4.58781
 4.35 8.00  4.477  4.477  4.477  4.477  4.478 18.99441 19.35180 -4.31185
 4.40-2.00 -0.440 -0.440 -0.439 -0.437 -0.434  9.17725  9.13988-14.52375
 4.40-1.50 -0.437 -0.437 -0.436 -0.434 -0.429  9.67660  9.64038-14.02333
 4.40-1.00 -0.433 -0.433 -0.432 -0.429 -0.423 10.17551 10.14176-13.52187
 4.40-0.50 -0.429 -0.429 -0.427 -0.423 -0.414 10.67228 10.64503-13.01868
 4.40 0.00 -0.424 -0.423 -0.421 -0.415 -0.405 11.16761 11.15014-12.51357
 4.40 0.50 -0.412 -0.411 -0.409 -0.401 -0.387 11.66295 11.65475-12.00895
 4.40 1.00 -0.388 -0.387 -0.383 -0.374 -0.357 12.16047 12.15715-11.50640
 4.40 1.25 -0.370 -0.369 -0.365 -0.355 -0.336 12.40986 12.40785-11.25579
 4.40 1.50 -0.346 -0.345 -0.341 -0.330 -0.309 12.65944 12.65830-11.00537
 4.40 1.75 -0.317 -0.315 -0.311 -0.300 -0.277 12.90915 12.90851-10.75507
 4.40 2.00 -0.282 -0.280 -0.275 -0.262 -0.239 13.15897 13.15866-10.50487
 4.40 2.25 -0.236 -0.234 -0.228 -0.214 -0.189 13.40892 13.40877-10.25482
 4.40 2.50 -0.179 -0.176 -0.171 -0.156 -0.128 13.65887 13.65887-10.00476
 4.40 2.75 -0.104 -0.101 -0.095 -0.079 -0.047 13.90877 13.90907 -9.75468
 4.40 3.00 -0.012 -0.009 -0.003  0.014  0.048 14.15866 14.15927 -9.50459
 4.40 3.20  0.079  0.082  0.089  0.109  0.143 14.35859 14.35926 -9.30452
 4.40 3.40  0.186  0.189  0.196  0.216  0.252 14.55852 14.55925 -9.10445
 4.40 3.60  0.310  0.313  0.320  0.340  0.376 14.75840 14.75929 -8.90434
 4.40 3.80  0.452  0.454  0.461  0.481  0.516 14.95823 14.95941 -8.70420
 4.40 4.00  0.607  0.609  0.616  0.634  0.668 15.15806 15.15957 -8.50404
 4.40 4.20  0.778  0.780  0.786  0.803  0.834 15.35789 15.35975 -8.30387
 4.40 4.40  0.958  0.960  0.966  0.980  1.009 15.55772 15.55998 -8.10368
 4.40 4.60  1.147  1.148  1.153  1.166  1.192 15.75752 15.76025 -7.90345
 4.40 4.80  1.342  1.343  1.348  1.359  1.380 15.95723 15.96061 -7.70310
 4.40 5.00  1.540  1.542  1.545  1.554  1.572 16.15685 16.16107 -7.50266
 4.40 5.20  1.746  1.747  1.749  1.758  1.773 16.35616 16.36171 -7.30201
 4.40 5.40  1.953  1.954  1.956  1.962  1.974 16.55517 16.56260 -7.10111
 4.40 5.60  2.163  2.163  2.165  2.170  2.179 16.75387 16.76378 -6.89989
 4.40 5.80  2.374  2.375  2.376  2.380  2.387 16.95211 16.96545 -6.69817
 4.40 6.00  2.584  2.584  2.585  2.588  2.594 17.14983 17.16761 -6.49594
 4.40 6.25  2.852  2.853  2.853  2.855  2.859 17.39585 17.42144 -6.24216
 4.40 6.50  3.117  3.117  3.118  3.119  3.122 17.64048 17.67651 -5.98716
 4.40 6.75  3.383  3.383  3.383  3.384  3.386 17.88350 17.93294 -5.73075
 4.40 7.00  3.639  3.639  3.639  3.640  3.641 18.12418 18.19117 -5.47250
 4.40 7.25  3.884  3.884  3.884  3.884  3.886 18.36124 18.45191 -5.21172
 4.40 7.50  4.116  4.116  4.116  4.116  4.117 18.59373 18.71550 -4.94808
 4.40 7.75  4.325  4.325  4.326  4.326  4.327 18.81881 18.98291 -4.68068
 4.40 8.00  4.519  4.519  4.519  4.520  4.520 19.03743 19.25382 -4.40983
 4.45-2.00 -0.435 -0.435 -0.434 -0.432 -0.429  9.12743  9.08955-14.57398
 4.45-1.50 -0.432 -0.432 -0.431 -0.429 -0.425  9.62726  9.58961-14.07407
 4.45-1.00 -0.429 -0.429 -0.428 -0.425 -0.420 10.12711 10.08990-13.57398
 4.45-0.50 -0.424 -0.423 -0.422 -0.419 -0.412 10.62696 10.59006-13.07366
 4.45 0.00 -0.415 -0.415 -0.413 -0.409 -0.401 11.12646 11.09096-12.57284
 4.45 0.50 -0.403 -0.402 -0.400 -0.394 -0.384 11.62439 11.59273-12.07094
 4.45 1.00 -0.381 -0.380 -0.377 -0.370 -0.355 12.12057 12.09691-11.56671
 4.45 1.25 -0.365 -0.364 -0.361 -0.352 -0.335 12.36805 12.34954-11.31412
 4.45 1.50 -0.343 -0.341 -0.338 -0.328 -0.307 12.61553 12.60217-11.06153
 4.45 1.75 -0.315 -0.313 -0.309 -0.297 -0.275 12.86338 12.85438-10.80933
 4.45 2.00 -0.279 -0.277 -0.272 -0.259 -0.234 13.11160 13.10619-10.55752
 4.45 2.25 -0.236 -0.234 -0.228 -0.214 -0.188 13.36051 13.35717-10.30649
 4.45 2.50 -0.184 -0.181 -0.176 -0.160 -0.132 13.60981 13.60788-10.05576
 4.45 2.75 -0.121 -0.118 -0.112 -0.096 -0.064 13.85952 13.85849 -9.80522
 4.45 3.00 -0.045 -0.042 -0.036 -0.019  0.013 14.10924 14.10890 -9.55486
 4.45 3.20  0.029  0.032  0.038  0.056  0.090 14.30900 14.30897 -9.35475
 4.45 3.40  0.117  0.119  0.126  0.144  0.178 14.50875 14.50903 -9.15464
 4.45 3.60  0.220  0.223  0.229  0.248  0.280 14.70854 14.70916 -8.95451
 4.45 3.80  0.341  0.344  0.350  0.368  0.399 14.90837 14.90937 -8.75438
 4.45 4.00  0.477  0.479  0.485  0.501  0.530 15.10823 15.10958 -8.55424
 4.45 4.20  0.634  0.636  0.641  0.656  0.684 15.30813 15.30967 -8.35412
 4.45 4.40  0.802  0.803  0.808  0.821  0.847 15.50804 15.50976 -8.15400
 4.45 4.60  0.982  0.984  0.988  0.999  1.023 15.70793 15.70987 -7.95384
 4.45 4.80  1.173  1.175  1.179  1.189  1.209 15.90776 15.91004 -7.75359
 4.45 5.00  1.369  1.370  1.373  1.382  1.400 16.10755 16.11025 -7.55331
 4.45 5.20  1.573  1.574  1.577  1.585  1.600 16.30721 16.31055 -7.35301
 4.45 5.40  1.779  1.780  1.782  1.789  1.803 16.50676 16.51095 -7.15267
 4.45 5.60  1.989  1.990  1.991  1.996  2.007 16.70620 16.71149 -6.95220
 4.45 5.80  2.201  2.201  2.203  2.207  2.216 16.90545 16.91227 -6.75148
 4.45 6.00  2.413  2.413  2.415  2.417  2.424 17.10449 17.11327 -6.55052
 4.45 6.25  2.684  2.684  2.685  2.687  2.692 17.35274 17.36499 -6.29879
 4.45 6.50  2.954  2.954  2.955  2.956  2.959 17.60021 17.61742 -6.04629
 4.45 6.75  3.230  3.230  3.230  3.231  3.234 17.84639 17.87107 -5.79257
 4.45 7.00  3.500  3.501  3.501  3.501  3.503 18.09096 18.12613 -5.53745
 4.45 7.25  3.769  3.769  3.769  3.769  3.771 18.33325 18.38313 -5.28051
 4.45 7.50  4.024  4.024  4.024  4.024  4.025 18.57276 18.64227 -5.02145
 4.45 7.75  4.264  4.264  4.264  4.264  4.265 18.80813 18.90412 -4.75958
 4.45 8.00  4.491  4.491  4.491  4.491  4.491 19.03981 19.16850 -4.49512
 4.50-2.00 -0.434 -0.434 -0.433 -0.431 -0.428  9.07737  9.03981-14.62397
 4.50-1.50 -0.429 -0.429 -0.428 -0.426 -0.422  9.57738  9.53958-14.12407
 4.50-1.00 -0.424 -0.424 -0.423 -0.421 -0.415 10.07737 10.03981-13.62397
 4.50-0.50 -0.419 -0.418 -0.417 -0.414 -0.408 10.57726 10.53970-13.12401
 4.50 0.00 -0.412 -0.411 -0.410 -0.406 -0.399 11.07737 11.03981-12.62397
 4.50 0.50 -0.402 -0.402 -0.400 -0.396 -0.386 11.57703 11.53995-12.12378
 4.50 1.00 -0.386 -0.385 -0.383 -0.377 -0.365 12.07664 12.04060-11.62324
 4.50 1.25 -0.372 -0.371 -0.369 -0.362 -0.349 12.32607 12.29115-11.37266
 4.50 1.50 -0.353 -0.352 -0.349 -0.342 -0.326 12.57519 12.54195-11.12177
 4.50 1.75 -0.326 -0.325 -0.322 -0.313 -0.295 12.82394 12.79341-10.87028
 4.50 2.00 -0.290 -0.289 -0.285 -0.275 -0.254 13.07225 13.04532-10.61834
 4.50 2.25 -0.245 -0.243 -0.239 -0.227 -0.204 13.31976 13.29784-10.36581
 4.50 2.50 -0.189 -0.187 -0.182 -0.169 -0.143 13.56726 13.55035-10.11328
 4.50 2.75 -0.125 -0.123 -0.118 -0.103 -0.073 13.81485 13.80275 -9.86084
 4.50 3.00 -0.051 -0.048 -0.042 -0.025  0.008 14.06258 14.05500 -9.60854
 4.50 3.20  0.016  0.019  0.025  0.044  0.079 14.26143 14.25625 -9.40733
 4.50 3.40  0.094  0.097  0.103  0.123  0.159 14.46052 14.45724 -9.20639
 4.50 3.60  0.184  0.187  0.194  0.214  0.250 14.65980 14.65793 -9.00572
 4.50 3.80  0.288  0.291  0.298  0.317  0.353 14.85922 14.85843 -8.80522
 4.50 4.00  0.406  0.409  0.415  0.433  0.467 15.05881 15.05881 -8.60485
 4.50 4.20  0.544  0.547  0.553  0.569  0.600 15.25859 15.25908 -8.40458
 4.50 4.40  0.695  0.697  0.702  0.717  0.744 15.45842 15.45932 -8.20435
 4.50 4.60  0.862  0.863  0.868  0.879  0.904 15.65829 15.65953 -8.00416
 4.50 4.80  1.041  1.042  1.046  1.056  1.077 15.85817 15.85974 -7.80398
 4.50 5.00  1.226  1.227  1.230  1.238  1.255 16.05805 16.05994 -7.60380
 4.50 5.20  1.426  1.426  1.429  1.436  1.450 16.25778 16.26016 -7.40357
 4.50 5.40  1.626  1.627  1.629  1.636  1.648 16.45745 16.46039 -7.20330
 4.50 5.60  1.833  1.833  1.835  1.840  1.851 16.65708 16.66065 -7.00297
 4.50 5.80  2.044  2.044  2.046  2.050  2.059 16.85665 16.86100 -6.80256
 4.50 6.00  2.255  2.256  2.257  2.260  2.267 17.05614 17.06145 -6.60206
 4.50 6.25  2.525  2.525  2.526  2.529  2.535 17.30530 17.31234 -6.35125
 4.50 6.50  2.793  2.793  2.794  2.795  2.799 17.55413 17.56360 -6.10013
 4.50 6.75  3.071  3.071  3.072  3.073  3.076 17.80229 17.81534 -5.84832
 4.50 7.00  3.348  3.348  3.348  3.349  3.351 18.04961 18.06782 -5.59568
 4.50 7.25  3.628  3.628  3.628  3.628  3.630 18.29554 18.32174 -5.34180
 4.50 7.50  3.901  3.901  3.901  3.902  3.903 18.53970 18.57726 -5.08640
 4.50 7.75  4.165  4.165  4.166  4.166  4.167 18.78090 18.83503 -4.82864
 4.50 8.00  4.414  4.414  4.414  4.414  4.414 19.01953 19.09482 -4.56880
 4.55-2.00 -0.435 -0.434 -0.434 -0.432 -0.429  9.02735  8.98963-14.67407
 4.55-1.50 -0.432 -0.432 -0.431 -0.429 -0.425  9.52737  9.48954-14.17406
 4.55-1.00 -0.427 -0.427 -0.426 -0.424 -0.420 10.02735  9.98967-13.67407
 4.55-0.50 -0.421 -0.420 -0.420 -0.417 -0.411 10.52737 10.48968-13.17406
 4.55 0.00 -0.412 -0.411 -0.410 -0.407 -0.400 11.02735 10.98967-12.67407
 4.55 0.50 -0.401 -0.401 -0.400 -0.396 -0.387 11.52724 11.48968-12.17399
 4.55 1.00 -0.387 -0.387 -0.385 -0.380 -0.369 12.02735 11.98981-11.67387
 4.55 1.25 -0.377 -0.377 -0.375 -0.369 -0.357 12.27719 12.23988-11.42380
 4.55 1.50 -0.364 -0.364 -0.361 -0.355 -0.341 12.52699 12.48996-11.17373
 4.55 1.75 -0.346 -0.345 -0.342 -0.335 -0.320 12.77678 12.74015-10.92355
 4.55 2.00 -0.320 -0.319 -0.316 -0.308 -0.290 13.02653 12.99047-10.67325
 4.55 2.25 -0.282 -0.281 -0.278 -0.268 -0.248 13.27610 13.24099-10.42273
 4.55 2.50 -0.232 -0.230 -0.226 -0.215 -0.194 13.52543 13.49178-10.17192
 4.55 2.75 -0.164 -0.162 -0.158 -0.146 -0.122 13.77416 13.74306 -9.92057
 4.55 3.00 -0.082 -0.080 -0.076 -0.063 -0.036 14.02243 13.99480 -9.66878
 4.55 3.20 -0.007 -0.005  0.000  0.014  0.043 14.22059 14.19681 -9.46685
 4.55 3.40  0.076  0.078  0.083  0.099  0.131 14.41869 14.39882 -9.26488
 4.55 3.60  0.167  0.169  0.175  0.192  0.225 14.61675 14.60083 -9.06285
 4.55 3.80  0.267  0.269  0.275  0.294  0.328 14.81479 14.80280 -8.86080
 4.55 4.00  0.378  0.380  0.387  0.405  0.440 15.01284 15.00475 -8.65876
 4.55 4.20  0.502  0.505  0.511  0.528  0.562 15.21151 15.20612 -8.45741
 4.55 4.40  0.639  0.641  0.647  0.663  0.694 15.41044 15.40725 -8.25633
 4.55 4.60  0.790  0.792  0.798  0.812  0.840 15.60967 15.60816 -8.05553
 4.55 4.80  0.955  0.957  0.961  0.973  0.997 15.80907 15.80890 -7.85490
 4.55 5.00  1.128  1.129  1.132  1.141  1.161 16.00860 16.00945 -7.65443
 4.55 5.20  1.314  1.315  1.318  1.326  1.342 16.20824 16.20967 -7.45412
 4.55 5.40  1.505  1.506  1.508  1.514  1.526 16.40789 16.40990 -7.25382
 4.55 5.60  1.702  1.703  1.705  1.710  1.720 16.60756 16.61013 -7.05351
 4.55 5.80  1.907  1.907  1.909  1.913  1.922 16.80723 16.81041 -6.85319
 4.55 6.00  2.112  2.113  2.114  2.117  2.123 17.00690 17.01073 -6.65286
 4.55 6.25  2.379  2.379  2.380  2.382  2.387 17.25636 17.26127 -6.40233
 4.55 6.50  2.643  2.643  2.643  2.645  2.650 17.50569 17.51202 -6.15163
 4.55 6.75  2.915  2.915  2.916  2.917  2.920 17.75477 17.76307 -5.90060
 4.55 7.00  3.191  3.191  3.191  3.192  3.194 18.00346 18.01452 -5.64917
 4.55 7.25  3.471  3.471  3.471  3.472  3.474 18.25132 18.26650 -5.39721
 4.55 7.50  3.750  3.750  3.750  3.750  3.752 18.49817 18.51930 -5.14442
 4.55 7.75  4.025  4.026  4.026  4.026  4.027 18.74335 18.77383 -4.88990
 4.55 8.00  4.292  4.292  4.292  4.292  4.293 18.98709 19.02979 -4.63395
 4.60-2.00 -0.431 -0.431 -0.430 -0.429 -0.425  8.97740  8.93962-14.72400
 4.60-1.50 -0.429 -0.429 -0.429 -0.427 -0.423  9.47741  9.43965-14.22410
 4.60-1.00 -0.427 -0.427 -0.426 -0.424 -0.420  9.97736  9.93962-13.72400
 4.60-0.50 -0.423 -0.423 -0.422 -0.420 -0.415 10.47727 10.43965-13.22410
 4.60 0.00 -0.417 -0.417 -0.416 -0.413 -0.407 10.97736 10.93967-12.72400
 4.60 0.50 -0.408 -0.408 -0.407 -0.404 -0.397 11.47727 11.43965-12.22403
 4.60 1.00 -0.395 -0.395 -0.394 -0.389 -0.380 11.97731 11.93972-11.72400
 4.60 1.25 -0.386 -0.386 -0.384 -0.380 -0.370 12.22730 12.18976-11.47398
 4.60 1.50 -0.375 -0.374 -0.373 -0.367 -0.356 12.47727 12.43981-11.22395
 4.60 1.75 -0.361 -0.360 -0.358 -0.352 -0.338 12.72723 12.68984-10.97386
 4.60 2.00 -0.341 -0.340 -0.338 -0.331 -0.314 12.97717 12.93987-10.72377
 4.60 2.25 -0.314 -0.313 -0.310 -0.302 -0.284 13.22710 13.18997-10.47372
 4.60 2.50 -0.277 -0.275 -0.272 -0.263 -0.243 13.47698 13.44012-10.22366
 4.60 2.75 -0.225 -0.223 -0.220 -0.209 -0.187 13.72677 13.69034 -9.97345
 4.60 3.00 -0.156 -0.155 -0.151 -0.140 -0.115 13.97644 13.94067 -9.72308
 4.60 3.20 -0.086 -0.085 -0.081 -0.068 -0.042 14.17603 14.14107 -9.52264
 4.60 3.40 -0.004 -0.002  0.002  0.014  0.042 14.37545 14.34165 -9.32202
 4.60 3.60  0.092  0.094  0.098  0.112  0.141 14.57464 14.54252 -9.12111
 4.60 3.80  0.202  0.203  0.208  0.222  0.252 14.77352 14.74376 -8.91984
 4.60 4.00  0.322  0.324  0.329  0.343  0.373 14.97211 14.94532 -8.71828
 4.60 4.20  0.454  0.456  0.461  0.476  0.505 15.17013 15.14742 -8.51624
 4.60 4.40  0.595  0.596  0.601  0.616  0.644 15.36815 15.34951 -8.31420
 4.60 4.60  0.743  0.745  0.749  0.763  0.790 15.56618 15.55158 -8.11216
 4.60 4.80  0.900  0.901  0.905  0.918  0.942 15.76424 15.75356 -7.91016
 4.60 5.00  1.063  1.065  1.068  1.079  1.100 15.96232 15.95545 -7.70819
 4.60 5.20  1.236  1.237  1.240  1.249  1.268 16.16096 16.15678 -7.50686
 4.60 5.40  1.414  1.415  1.417  1.424  1.440 16.35985 16.35788 -7.30576
 4.60 5.60  1.600  1.601  1.603  1.608  1.621 16.55903 16.55874 -7.10488
 4.60 5.80  1.793  1.793  1.795  1.800  1.810 16.75838 16.75945 -6.90415
 4.60 6.00  1.987  1.988  1.989  1.992  2.001 16.95780 16.96004 -6.70355
 4.60 6.25  2.243  2.244  2.244  2.247  2.253 17.20716 17.21062 -6.45304
 4.60 6.50  2.500  2.500  2.501  2.502  2.507 17.45652 17.46120 -6.20253
 4.60 6.75  2.761  2.761  2.761  2.763  2.767 17.70583 17.71190 -5.95182
 4.60 7.00  3.028  3.029  3.029  3.030  3.032 17.95506 17.96275 -5.70093
 4.60 7.25  3.303  3.303  3.303  3.304  3.306 18.20383 18.21392 -5.44977
 4.60 7.50  3.578  3.578  3.578  3.578  3.580 18.45209 18.46553 -5.19818
 4.60 7.75  3.852  3.852  3.853  3.853  3.854 18.69944 18.71811 -4.94563
 4.60 8.00  4.123  4.123  4.123  4.123  4.124 18.94601 18.97146 -4.69229
 4.65-2.00 -0.428 -0.428 -0.428 -0.426 -0.422  8.92742  8.88964-14.77417
 4.65-1.50 -0.426 -0.426 -0.426 -0.424 -0.419  9.42732  9.38952-14.27409
 4.65-1.00 -0.424 -0.424 -0.423 -0.422 -0.417  9.92737  9.88964-13.77392
 4.65-0.50 -0.422 -0.421 -0.421 -0.419 -0.413 10.42732 10.38970-13.27409
 4.65 0.00 -0.418 -0.418 -0.417 -0.414 -0.409 10.92737 10.88969-12.77392
 4.65 0.50 -0.412 -0.412 -0.411 -0.408 -0.402 11.42732 11.38970-12.27401
 4.65 1.00 -0.404 -0.403 -0.402 -0.399 -0.391 11.92732 11.88969-11.77392
 4.65 1.25 -0.397 -0.397 -0.396 -0.392 -0.384 12.17732 12.13970-11.52396
 4.65 1.50 -0.390 -0.389 -0.388 -0.384 -0.374 12.42732 12.38970-11.27401
 4.65 1.75 -0.379 -0.378 -0.377 -0.372 -0.362 12.67730 12.63975-11.02396
 4.65 2.00 -0.365 -0.364 -0.363 -0.357 -0.345 12.92727 12.88981-10.77392
 4.65 2.25 -0.345 -0.344 -0.342 -0.336 -0.322 13.17721 13.13984-10.52388
 4.65 2.50 -0.318 -0.317 -0.315 -0.307 -0.290 13.42716 13.38987-10.27384
 4.65 2.75 -0.279 -0.278 -0.275 -0.267 -0.248 13.67711 13.63995-10.02376
 4.65 3.00 -0.226 -0.225 -0.221 -0.212 -0.191 13.92706 13.89003 -9.77366
 4.65 3.20 -0.171 -0.169 -0.166 -0.155 -0.132 14.12694 14.09010 -9.57356
 4.65 3.40 -0.102 -0.101 -0.097 -0.085 -0.060 14.32677 14.29018 -9.37343
 4.65 3.60 -0.019 -0.018 -0.014 -0.001  0.026 14.52658 14.49034 -9.17326
 4.65 3.80  0.078  0.080  0.084  0.097  0.126 14.72636 14.69065 -8.97299
 4.65 4.00  0.192  0.193  0.198  0.211  0.241 14.92608 14.89109 -8.77263
 4.65 4.20  0.322  0.324  0.328  0.342  0.371 15.12558 15.09165 -8.57208
 4.65 4.40  0.466  0.468  0.472  0.485  0.513 15.32484 15.29241 -8.37131
 4.65 4.60  0.624  0.625  0.629  0.641  0.668 15.52380 15.49351 -8.17022
 4.65 4.80  0.792  0.794  0.797  0.808  0.833 15.72242 15.69501 -7.96876
 4.65 5.00  0.966  0.967  0.970  0.980  1.001 15.92075 15.89680 -7.76700
 4.65 5.20  1.144  1.145  1.148  1.156  1.176 16.11864 16.09899 -7.56479
 4.65 5.40  1.324  1.325  1.327  1.334  1.350 16.31653 16.30117 -7.36257
 4.65 5.60  1.505  1.505  1.507  1.513  1.527 16.51448 16.50328 -7.16042
 4.65 5.80  1.688  1.688  1.690  1.695  1.707 16.71261 16.70519 -6.95847
 4.65 6.00  1.873  1.873  1.875  1.879  1.889 16.91089 16.90693 -6.75671
 4.65 6.25  2.112  2.113  2.114  2.118  2.125 17.15932 17.15851 -6.50521
 4.65 6.50  2.356  2.356  2.357  2.359  2.364 17.40807 17.40977 -6.25399
 4.65 6.75  2.605  2.606  2.606  2.608  2.612 17.65718 17.66068 -6.00300
 4.65 7.00  2.858  2.858  2.858  2.859  2.862 17.90628 17.91158 -5.75203
 4.65 7.25  3.120  3.120  3.120  3.121  3.123 18.15528 18.16256 -5.50107
 4.65 7.50  3.383  3.383  3.383  3.384  3.386 18.40415 18.41364 -5.25011
 4.65 7.75  3.650  3.650  3.650  3.650  3.652 18.65251 18.66525 -4.99849
 4.65 8.00  3.914  3.914  3.914  3.914  3.915 18.90048 18.91724 -4.74642
 4.70-2.00 -0.428 -0.428 -0.428 -0.426 -0.421  8.87737  8.83960-14.82420
 4.70-1.50 -0.425 -0.425 -0.424 -0.422 -0.417  9.37731  9.33965-14.32413
 4.70-1.00 -0.421 -0.421 -0.420 -0.418 -0.413  9.87737  9.83960-13.82391
 4.70-0.50 -0.419 -0.418 -0.418 -0.415 -0.409 10.37731 10.33965-13.32404
 4.70 0.00 -0.415 -0.415 -0.414 -0.412 -0.406 10.87737 10.83967-12.82391
 4.70 0.50 -0.411 -0.411 -0.410 -0.408 -0.402 11.37731 11.33965-12.32404
 4.70 1.00 -0.406 -0.406 -0.405 -0.402 -0.395 11.87731 11.83967-11.82391
 4.70 1.25 -0.402 -0.401 -0.401 -0.398 -0.390 12.12731 12.08966-11.57397
 4.70 1.50 -0.397 -0.396 -0.395 -0.392 -0.384 12.37731 12.33965-11.32404
 4.70 1.75 -0.390 -0.389 -0.388 -0.385 -0.376 12.62729 12.58972-11.07397
 4.70 2.00 -0.381 -0.381 -0.379 -0.375 -0.365 12.87726 12.83979-10.82391
 4.70 2.25 -0.368 -0.368 -0.366 -0.361 -0.350 13.12719 13.08982-10.57393
 4.70 2.50 -0.351 -0.350 -0.349 -0.343 -0.330 13.37712 13.33985-10.32395
 4.70 2.75 -0.325 -0.325 -0.323 -0.316 -0.301 13.62713 13.58988-10.07394
 4.70 3.00 -0.290 -0.289 -0.286 -0.278 -0.262 13.87714 13.83992 -9.82391
 4.70 3.20 -0.249 -0.248 -0.245 -0.237 -0.219 14.07706 14.03996 -9.62383
 4.70 3.40 -0.198 -0.197 -0.194 -0.185 -0.164 14.27698 14.24002 -9.42373
 4.70 3.60 -0.133 -0.131 -0.128 -0.118 -0.095 14.47691 14.44008 -9.22360
 4.70 3.80 -0.051 -0.050 -0.047 -0.036 -0.011 14.67685 14.64015 -9.02347
 4.70 4.00  0.045  0.046  0.050  0.062  0.090 14.87679 14.84023 -8.82333
 4.70 4.20  0.159  0.161  0.165  0.178  0.206 15.07668 15.04035 -8.62321
 4.70 4.40  0.290  0.292  0.296  0.310  0.338 15.27651 15.24053 -8.42309
 4.70 4.60  0.437  0.439  0.443  0.456  0.484 15.47625 15.44081 -8.22289
 4.70 4.80  0.598  0.599  0.603  0.615  0.642 15.67585 15.64128 -8.02248
 4.70 5.00  0.769  0.770  0.774  0.785  0.810 15.87529 15.84192 -7.82189
 4.70 5.20  0.952  0.953  0.956  0.966  0.989 16.07447 16.04279 -7.62104
 4.70 5.40  1.140  1.141  1.143  1.152  1.172 16.27337 16.24392 -7.41990
 4.70 5.60  1.332  1.333  1.335  1.342  1.359 16.47194 16.44546 -7.21826
 4.70 5.80  1.525  1.526  1.528  1.534  1.548 16.67020 16.64732 -7.01627
 4.70 6.00  1.717  1.718  1.719  1.724  1.736 16.86823 16.84936 -6.81417
 4.70 6.25  1.957  1.958  1.959  1.963  1.972 17.11545 17.10212 -6.56146
 4.70 6.50  2.197  2.197  2.198  2.201  2.208 17.36267 17.35488 -6.30874
 4.70 6.75  2.437  2.437  2.438  2.440  2.446 17.61053 17.60718 -6.05654
 4.70 7.00  2.667  2.667  2.668  2.669  2.673 17.85872 17.85914 -5.80465
 4.70 7.25  2.915  2.915  2.915  2.917  2.920 18.10726 18.11053 -5.55323
 4.70 7.50  3.164  3.164  3.164  3.165  3.167 18.35583 18.36192 -5.30181
 4.70 7.75  3.417  3.417  3.417  3.418  3.420 18.60442 18.61333 -5.05036
 4.70 8.00  3.670  3.670  3.670  3.670  3.672 18.85303 18.86475 -4.79888
 4.75-2.00 -0.429 -0.429 -0.429 -0.427 -0.422  8.82737  8.78965-14.87419
 4.75-1.50 -0.427 -0.427 -0.426 -0.425 -0.420  9.32736  9.28959-14.37407
 4.75-1.00 -0.424 -0.424 -0.423 -0.421 -0.416  9.82737  9.78965-13.87419
 4.75-0.50 -0.419 -0.419 -0.418 -0.416 -0.411 10.32736 10.28959-13.37407
 4.75 0.00 -0.414 -0.413 -0.413 -0.410 -0.404 10.82737 10.78965-12.87419
 4.75 0.50 -0.408 -0.408 -0.407 -0.405 -0.398 11.32736 11.28959-12.37407
 4.75 1.00 -0.404 -0.403 -0.402 -0.400 -0.392 11.82737 11.78972-11.87387
 4.75 1.25 -0.401 -0.400 -0.400 -0.397 -0.389 12.07737 12.03966-11.62392
 4.75 1.50 -0.397 -0.397 -0.396 -0.393 -0.385 12.32736 12.28959-11.37397
 4.75 1.75 -0.393 -0.393 -0.392 -0.388 -0.380 12.57734 12.53966-11.12392
 4.75 2.00 -0.387 -0.387 -0.386 -0.383 -0.374 12.82730 12.78972-10.87387
 4.75 2.25 -0.379 -0.379 -0.378 -0.374 -0.364 13.07723 13.03977-10.62392
 4.75 2.50 -0.368 -0.368 -0.367 -0.363 -0.352 13.32715 13.28981-10.37397
 4.75 2.75 -0.352 -0.352 -0.350 -0.346 -0.334 13.57716 13.53984-10.12392
 4.75 3.00 -0.330 -0.329 -0.328 -0.322 -0.308 13.82718 13.78986 -9.87387
 4.75 3.20 -0.304 -0.303 -0.302 -0.295 -0.280 14.02718 13.98984 -9.67383
 4.75 3.40 -0.270 -0.269 -0.267 -0.260 -0.243 14.22717 14.18982 -9.47379
 4.75 3.60 -0.225 -0.224 -0.221 -0.214 -0.195 14.42713 14.38986 -9.27372
 4.75 3.80 -0.166 -0.165 -0.162 -0.154 -0.134 14.62706 14.58997 -9.07363
 4.75 4.00 -0.093 -0.092 -0.089 -0.080 -0.057 14.82698 14.79007 -8.87354
 4.75 4.20 -0.001  0.000  0.002  0.013  0.038 15.02689 14.99015 -8.67351
 4.75 4.40  0.107  0.108  0.112  0.123  0.150 15.22680 15.19022 -8.47347
 4.75 4.60  0.235  0.236  0.240  0.252  0.279 15.42670 15.39033 -8.27336
 4.75 4.80  0.380  0.381  0.385  0.396  0.424 15.62659 15.59050 -8.07314
 4.75 5.00  0.539  0.540  0.543  0.555  0.582 15.82646 15.79071 -7.87290
 4.75 5.20  0.711  0.712  0.715  0.726  0.752 16.02625 15.99093 -7.67265
 4.75 5.40  0.892  0.893  0.896  0.906  0.930 16.22592 16.19121 -7.47238
 4.75 5.60  1.079  1.080  1.083  1.092  1.114 16.42546 16.39166 -7.27197
 4.75 5.80  1.272  1.273  1.275  1.283  1.303 16.62477 16.59242 -7.07127
 4.75 6.00  1.468  1.468  1.471  1.477  1.494 16.82387 16.79344 -6.87031
 4.75 6.25  1.715  1.716  1.718  1.724  1.737 17.07224 17.04515 -6.61851
 4.75 6.50  1.964  1.965  1.966  1.970  1.982 17.32015 17.29732 -6.36623
 4.75 6.75  2.211  2.212  2.213  2.216  2.225 17.56736 17.55025 -6.11333
 4.75 7.00  2.448  2.448  2.449  2.452  2.458 17.81458 17.80318 -5.86044
 4.75 7.25  2.689  2.689  2.690  2.692  2.697 18.06192 18.05588 -5.60775
 4.75 7.50  2.930  2.930  2.931  2.932  2.936 18.30942 18.30835 -5.35527
 4.75 7.75  3.169  3.170  3.170  3.171  3.174 18.55730 18.56048 -5.10317
 4.75 8.00  3.410  3.410  3.410  3.411  3.413 18.80550 18.81231 -4.85140
 4.80-2.00 -0.428 -0.428 -0.428 -0.426 -0.422  8.77743  8.73965-14.92409
 4.80-1.50 -0.427 -0.427 -0.426 -0.425 -0.420  9.27738  9.23955-14.42412
 4.80-1.00 -0.425 -0.425 -0.425 -0.423 -0.417  9.77736  9.73965-13.92409
 4.80-0.50 -0.422 -0.422 -0.421 -0.419 -0.414 10.27738 10.23955-13.42412
 4.80 0.00 -0.418 -0.418 -0.417 -0.415 -0.409 10.77735 10.73965-12.92409
 4.80 0.50 -0.412 -0.412 -0.411 -0.409 -0.403 11.27738 11.23955-12.42412
 4.80 1.00 -0.405 -0.405 -0.404 -0.401 -0.394 11.77735 11.73965-11.92409
 4.80 1.25 -0.401 -0.400 -0.399 -0.397 -0.389 12.02737 11.98960-11.67405
 4.80 1.50 -0.396 -0.395 -0.394 -0.391 -0.383 12.27738 12.23955-11.42400
 4.80 1.75 -0.391 -0.391 -0.390 -0.386 -0.377 12.52734 12.48964-11.17405
 4.80 2.00 -0.385 -0.385 -0.384 -0.380 -0.371 12.77728 12.73973-10.92409
 4.80 2.25 -0.380 -0.379 -0.378 -0.374 -0.364 13.02722 12.98978-10.67407
 4.80 2.50 -0.372 -0.372 -0.371 -0.367 -0.356 13.27715 13.23980-10.42400
 4.80 2.75 -0.362 -0.362 -0.361 -0.357 -0.345 13.52718 13.48981-10.17386
 4.80 3.00 -0.349 -0.348 -0.347 -0.343 -0.331 13.77721 13.73981 -9.92372
 4.80 3.20 -0.333 -0.332 -0.331 -0.326 -0.314 13.97719 13.93981 -9.72374
 4.80 3.40 -0.312 -0.311 -0.310 -0.305 -0.291 14.17717 14.13980 -9.52376
 4.80 3.60 -0.283 -0.282 -0.281 -0.274 -0.260 14.37714 14.33983 -9.32377
 4.80 3.80 -0.244 -0.243 -0.241 -0.235 -0.219 14.57710 14.53990 -9.12376
 4.80 4.00 -0.194 -0.193 -0.191 -0.184 -0.166 14.77706 14.73997 -8.92372
 4.80 4.20 -0.128 -0.127 -0.124 -0.117 -0.097 14.97701 14.94000 -8.72365
 4.80 4.40 -0.047 -0.046 -0.043 -0.034 -0.013 15.17696 15.14003 -8.52358
 4.80 4.60  0.052  0.053  0.056  0.066  0.090 15.37689 15.34010 -8.32351
 4.80 4.80  0.172  0.173  0.176  0.186  0.211 15.57680 15.54022 -8.12343
 4.80 5.00  0.307  0.308  0.311  0.321  0.347 15.77670 15.74036 -7.92336
 4.80 5.20  0.462  0.463  0.466  0.476  0.502 15.97653 15.94052 -7.72323
 4.80 5.40  0.629  0.630  0.633  0.643  0.669 16.17633 16.14070 -7.52307
 4.80 5.60  0.807  0.808  0.811  0.821  0.845 16.37613 16.34090 -7.32287
 4.80 5.80  0.993  0.994  0.997  1.006  1.029 16.57592 16.54116 -7.12260
 4.80 6.00  1.185  1.186  1.189  1.197  1.218 16.77568 16.74147 -6.92227
 4.80 6.25  1.428  1.429  1.431  1.438  1.456 17.02507 16.99210 -6.67162
 4.80 6.50  1.674  1.675  1.676  1.682  1.698 17.27416 17.24304 -6.42067
 4.80 6.75  1.921  1.922  1.923  1.928  1.941 17.52285 17.49452 -6.16919
 4.80 7.00  2.170  2.171  2.172  2.176  2.186 17.77107 17.74648 -5.91722
 4.80 7.25  2.414  2.414  2.415  2.418  2.426 18.01854 17.99905 -5.66460
 4.80 7.50  2.659  2.660  2.660  2.663  2.669 18.26576 18.25188 -5.41173
 4.80 7.75  2.899  2.899  2.900  2.901  2.906 18.51287 18.50485 -5.15872
 4.80 8.00  3.137  3.137  3.138  3.139  3.142 18.75982 18.75800 -4.90553
 4.85-2.00 -0.428 -0.427 -0.427 -0.425 -0.421  8.72738  8.68958-14.97388
 4.85-1.50 -0.425 -0.425 -0.425 -0.423 -0.418  9.22737  9.18949-14.47405
 4.85-1.00 -0.423 -0.423 -0.423 -0.421 -0.415  9.72738  9.68966-13.97388
 4.85-0.50 -0.421 -0.421 -0.421 -0.419 -0.413 10.22737 10.18949-13.47405
 4.85 0.00 -0.419 -0.419 -0.418 -0.416 -0.410 10.72738 10.68966-12.97388
 4.85 0.50 -0.416 -0.415 -0.415 -0.412 -0.406 11.22737 11.18949-12.47405
 4.85 1.00 -0.410 -0.410 -0.409 -0.407 -0.400 11.72738 11.68966-11.97388
 4.85 1.25 -0.407 -0.406 -0.406 -0.403 -0.396 11.97738 11.93973-11.72396
 4.85 1.50 -0.403 -0.402 -0.402 -0.399 -0.391 12.22737 12.18977-11.47405
 4.85 1.75 -0.397 -0.397 -0.396 -0.393 -0.385 12.47735 12.43976-11.22396
 4.85 2.00 -0.391 -0.391 -0.390 -0.387 -0.378 12.72730 12.68975-10.97388
 4.85 2.25 -0.383 -0.383 -0.382 -0.379 -0.369 12.97721 12.93976-10.72390
 4.85 2.50 -0.374 -0.374 -0.373 -0.369 -0.359 13.22712 13.18977-10.47392
 4.85 2.75 -0.364 -0.364 -0.363 -0.359 -0.348 13.47717 13.43981-10.22390
 4.85 3.00 -0.352 -0.351 -0.350 -0.346 -0.334 13.72722 13.68984 -9.97388
 4.85 3.20 -0.340 -0.340 -0.339 -0.334 -0.322 13.92718 13.88981 -9.77389
 4.85 3.40 -0.326 -0.326 -0.324 -0.320 -0.306 14.12714 14.08979 -9.57391
 4.85 3.60 -0.308 -0.307 -0.306 -0.301 -0.286 14.32710 14.28980 -9.37392
 4.85 3.80 -0.284 -0.283 -0.281 -0.276 -0.261 14.52708 14.48987 -9.17391
 4.85 4.00 -0.251 -0.251 -0.249 -0.243 -0.228 14.72705 14.68993 -8.97388
 4.85 4.20 -0.207 -0.206 -0.205 -0.199 -0.182 14.92698 14.88998 -8.77379
 4.85 4.40 -0.151 -0.151 -0.149 -0.142 -0.125 15.12690 15.09003 -8.57370
 4.85 4.60 -0.080 -0.079 -0.077 -0.070 -0.051 15.32685 15.29010 -8.37362
 4.85 4.80  0.008  0.009  0.012  0.019  0.040 15.52683 15.49019 -8.17354
 4.85 5.00  0.115  0.116  0.118  0.127  0.148 15.72681 15.69028 -7.97347
 4.85 5.20  0.242  0.243  0.246  0.255  0.277 15.92674 15.89030 -7.77339
 4.85 5.40  0.386  0.386  0.389  0.398  0.421 16.12666 16.09032 -7.57331
 4.85 5.60  0.545  0.546  0.548  0.557  0.580 16.32654 16.29045 -7.37315
 4.85 5.80  0.719  0.719  0.722  0.730  0.754 16.52641 16.49068 -7.17290
 4.85 6.00  0.901  0.902  0.904  0.912  0.934 16.72624 16.69090 -6.97265
 4.85 6.25  1.138  1.139  1.141  1.149  1.169 16.97595 16.94118 -6.72238
 4.85 6.50  1.380  1.380  1.383  1.390  1.408 17.22557 17.19145 -6.47211
 4.85 6.75  1.622  1.622  1.624  1.630  1.646 17.47503 17.44208 -6.22151
 4.85 7.00  1.870  1.870  1.872  1.877  1.890 17.72428 17.69302 -5.97062
 4.85 7.25  2.111  2.111  2.112  2.116  2.127 17.97308 17.94437 -5.71936
 4.85 7.50  2.357  2.357  2.358  2.361  2.370 18.22141 18.19618 -5.46763
 4.85 7.75  2.598  2.598  2.599  2.602  2.609 18.46909 18.44856 -5.21521
 4.85 8.00  2.841  2.841  2.842  2.844  2.850 18.71617 18.70148 -4.96218
 4.90-2.00 -0.430 -0.430 -0.430 -0.428 -0.425  8.67743  8.63959-15.02406
 4.90-1.50 -0.427 -0.427 -0.427 -0.425 -0.421  9.17725  9.13956-14.52404
 4.90-1.00 -0.424 -0.424 -0.424 -0.422 -0.417  9.67742  9.63959-14.02406
 4.90-0.50 -0.421 -0.420 -0.420 -0.418 -0.412 10.17725 10.13956-13.52404
 4.90 0.00 -0.417 -0.416 -0.416 -0.414 -0.407 10.67742 10.63969-13.02406
 4.90 0.50 -0.413 -0.413 -0.412 -0.410 -0.403 11.17725 11.13956-12.52404
 4.90 1.00 -0.409 -0.409 -0.408 -0.406 -0.399 11.67733 11.63969-12.02402
 4.90 1.25 -0.407 -0.407 -0.406 -0.404 -0.397 11.92729 11.88963-11.77403
 4.90 1.50 -0.405 -0.405 -0.404 -0.401 -0.394 12.17725 12.13956-11.52404
 4.90 1.75 -0.402 -0.401 -0.401 -0.398 -0.390 12.42729 12.38963-11.27400
 4.90 2.00 -0.398 -0.397 -0.397 -0.394 -0.386 12.67733 12.63969-11.02397
 4.90 2.25 -0.392 -0.392 -0.391 -0.388 -0.379 12.92729 12.88963-10.77400
 4.90 2.50 -0.385 -0.385 -0.384 -0.381 -0.372 13.17725 13.13956-10.52404
 4.90 2.75 -0.376 -0.375 -0.374 -0.371 -0.361 13.42724 13.38968-10.27398
 4.90 3.00 -0.364 -0.364 -0.363 -0.359 -0.348 13.67724 13.63979-10.02392
 4.90 3.20 -0.352 -0.351 -0.350 -0.346 -0.335 13.87724 13.83984 -9.82391
 4.90 3.40 -0.337 -0.337 -0.336 -0.332 -0.320 14.07725 14.03987 -9.62390
 4.90 3.60 -0.320 -0.320 -0.319 -0.314 -0.301 14.27724 14.23988 -9.42387
 4.90 3.80 -0.300 -0.299 -0.298 -0.293 -0.278 14.47720 14.43989 -9.22383
 4.90 4.00 -0.274 -0.274 -0.272 -0.267 -0.252 14.67715 14.63988 -9.02379
 4.90 4.20 -0.243 -0.242 -0.241 -0.235 -0.220 14.87707 14.83988 -8.82377
 4.90 4.40 -0.204 -0.203 -0.202 -0.196 -0.180 15.07700 15.03988 -8.62376
 4.90 4.60 -0.154 -0.154 -0.152 -0.146 -0.129 15.27694 15.23994 -8.42370
 4.90 4.80 -0.091 -0.091 -0.089 -0.083 -0.065 15.47691 15.44006 -8.22361
 4.90 5.00 -0.015 -0.015 -0.013 -0.006  0.012 15.67688 15.64018 -8.02351
 4.90 5.20  0.081  0.082  0.084  0.092  0.111 15.87679 15.84019 -7.82343
 4.90 5.40  0.196  0.197  0.199  0.206  0.225 16.07671 16.04019 -7.62335
 4.90 5.60  0.329  0.329  0.332  0.339  0.358 16.27664 16.24029 -7.42327
 4.90 5.80  0.480  0.481  0.483  0.490  0.509 16.47657 16.44049 -7.22317
 4.90 6.00  0.644  0.645  0.646  0.653  0.673 16.67651 16.64068 -7.02306
 4.90 6.25  0.868  0.869  0.871  0.877  0.896 16.92633 16.89091 -6.77285
 4.90 6.50  1.103  1.104  1.105  1.112  1.129 17.17609 17.14114 -6.52259
 4.90 6.75  1.337  1.338  1.339  1.345  1.361 17.42580 17.39142 -6.27228
 4.90 7.00  1.584  1.584  1.586  1.590  1.605 17.67541 17.64177 -6.02187
 4.90 7.25  1.824  1.825  1.826  1.830  1.842 17.92485 17.89241 -5.77127
 4.90 7.50  2.069  2.069  2.070  2.074  2.084 18.17406 18.14333 -5.52043
 4.90 7.75  2.308  2.308  2.309  2.312  2.320 18.42281 18.39464 -5.26910
 4.90 8.00  2.550  2.550  2.551  2.554  2.560 18.67117 18.64631 -5.01737
 4.95-2.00 -0.433 -0.433 -0.433 -0.432 -0.430  8.62737  8.58961-15.07407
 4.95-1.50 -0.432 -0.432 -0.432 -0.431 -0.427  9.12743  9.08955-14.57414
 4.95-1.00 -0.430 -0.429 -0.429 -0.428 -0.424  9.62737  9.58961-14.07407
 4.95-0.50 -0.426 -0.426 -0.425 -0.424 -0.420 10.12743 10.08955-13.57414
 4.95 0.00 -0.421 -0.421 -0.420 -0.418 -0.413 10.62737 10.58961-13.07407
 4.95 0.50 -0.415 -0.414 -0.414 -0.412 -0.406 11.12743 11.08955-12.57414
 4.95 1.00 -0.408 -0.408 -0.407 -0.405 -0.398 11.62737 11.58961-12.07402
 4.95 1.25 -0.405 -0.405 -0.404 -0.402 -0.394 11.87740 11.83958-11.82399
 4.95 1.50 -0.402 -0.402 -0.401 -0.398 -0.390 12.12743 12.08955-11.57398
 4.95 1.75 -0.399 -0.399 -0.398 -0.395 -0.387 12.37742 12.33964-11.32397
 4.95 2.00 -0.396 -0.395 -0.394 -0.391 -0.382 12.62737 12.58973-11.07397
 4.95 2.25 -0.392 -0.391 -0.390 -0.387 -0.378 12.87724 12.83964-10.82397
 4.95 2.50 -0.387 -0.387 -0.386 -0.383 -0.373 13.12711 13.08955-10.57398
 4.95 2.75 -0.381 -0.381 -0.380 -0.377 -0.367 13.37718 13.33964-10.32395
 4.95 3.00 -0.374 -0.374 -0.372 -0.369 -0.359 13.62726 13.58973-10.07392
 4.95 3.20 -0.365 -0.365 -0.364 -0.360 -0.350 13.82720 13.78980 -9.87394
 4.95 3.40 -0.355 -0.354 -0.353 -0.349 -0.339 14.02714 13.98987 -9.67397
 4.95 3.60 -0.341 -0.341 -0.339 -0.335 -0.324 14.22712 14.18989 -9.47394
 4.95 3.80 -0.323 -0.323 -0.321 -0.317 -0.305 14.42714 14.38987 -9.27388
 4.95 4.00 -0.302 -0.301 -0.300 -0.295 -0.282 14.62716 14.58984 -9.07381
 4.95 4.20 -0.273 -0.272 -0.271 -0.266 -0.253 14.82715 14.78985 -8.87381
 4.95 4.40 -0.239 -0.239 -0.237 -0.232 -0.218 15.02713 14.98989 -8.67381
 4.95 4.60 -0.198 -0.198 -0.196 -0.191 -0.176 15.22708 15.18993 -8.47377
 4.95 4.80 -0.148 -0.148 -0.146 -0.140 -0.124 15.42702 15.38999 -8.27369
 4.95 5.00 -0.088 -0.088 -0.086 -0.080 -0.062 15.62696 15.59006 -8.07361
 4.95 5.20 -0.014 -0.014 -0.012 -0.006  0.012 15.82689 15.79013 -7.87356
 4.95 5.40  0.072  0.073  0.074  0.081  0.100 16.02682 15.99021 -7.67351
 4.95 5.60  0.177  0.178  0.180  0.186  0.205 16.22674 16.19031 -7.47344
 4.95 5.80  0.300  0.301  0.303  0.309  0.327 16.42665 16.39041 -7.27332
 4.95 6.00  0.438  0.438  0.440  0.446  0.463 16.62654 16.59051 -7.07320
 4.95 6.25  0.639  0.639  0.641  0.647  0.663 16.87634 16.84056 -6.82303
 4.95 6.50  0.856  0.856  0.858  0.863  0.878 17.12613 17.09061 -6.57284
 4.95 6.75  1.078  1.079  1.080  1.085  1.099 17.37598 17.34094 -6.32263
 4.95 7.00  1.318  1.319  1.320  1.324  1.337 17.62583 17.59129 -6.07237
 4.95 7.25  1.559  1.559  1.560  1.564  1.576 17.87556 17.84164 -5.82202
 4.95 7.50  1.803  1.803  1.804  1.808  1.818 18.12516 18.09202 -5.57154
 4.95 7.75  2.042  2.043  2.043  2.046  2.055 18.37447 18.34275 -5.32083
 4.95 8.00  2.285  2.285  2.286  2.288  2.295 18.62356 18.59373 -5.06992
 5.00-2.00 -0.434 -0.434 -0.434 -0.433 -0.431  8.57738  8.53958-15.12407
 5.00-1.50 -0.433 -0.433 -0.433 -0.432 -0.430  9.07737  9.03941-14.62415
 5.00-1.00 -0.433 -0.432 -0.432 -0.431 -0.429  9.57738  9.53958-14.12407
 5.00-0.50 -0.431 -0.431 -0.431 -0.430 -0.427 10.07737 10.03941-13.62415
 5.00 0.00 -0.428 -0.428 -0.428 -0.427 -0.423 10.57738 10.53958-13.12407
 5.00 0.50 -0.424 -0.424 -0.424 -0.422 -0.418 11.07737 11.03941-12.62415
 5.00 1.00 -0.417 -0.417 -0.417 -0.415 -0.409 11.57738 11.53970-12.12401
 5.00 1.25 -0.413 -0.413 -0.412 -0.410 -0.404 11.82737 11.78978-11.87398
 5.00 1.50 -0.408 -0.408 -0.407 -0.405 -0.399 12.07737 12.03981-11.62397
 5.00 1.75 -0.403 -0.403 -0.402 -0.400 -0.393 12.32737 12.28976-11.37399
 5.00 2.00 -0.397 -0.397 -0.396 -0.394 -0.386 12.57738 12.53970-11.12401
 5.00 2.25 -0.392 -0.392 -0.391 -0.388 -0.379 12.82738 12.78976-10.87399
 5.00 2.50 -0.386 -0.386 -0.385 -0.381 -0.372 13.07737 13.03981-10.62397
 5.00 2.75 -0.380 -0.379 -0.378 -0.375 -0.365 13.32732 13.28976-10.37396
 5.00 3.00 -0.373 -0.372 -0.371 -0.368 -0.357 13.57726 13.53970-10.12396
 5.00 3.20 -0.366 -0.366 -0.365 -0.361 -0.350 13.77730 13.73975 -9.92396
 5.00 3.40 -0.359 -0.358 -0.357 -0.353 -0.342 13.97735 13.93979 -9.72397
 5.00 3.60 -0.349 -0.349 -0.348 -0.344 -0.332 14.17732 14.13982 -9.52394
 5.00 3.80 -0.337 -0.337 -0.335 -0.331 -0.319 14.37724 14.33983 -9.32389
 5.00 4.00 -0.322 -0.321 -0.320 -0.316 -0.303 14.57715 14.53983 -9.12384
 5.00 4.20 -0.301 -0.300 -0.299 -0.294 -0.281 14.77708 14.73982 -8.92382
 5.00 4.40 -0.274 -0.274 -0.272 -0.268 -0.255 14.97702 14.93981 -8.72380
 5.00 4.60 -0.241 -0.240 -0.239 -0.234 -0.221 15.17701 15.13986 -8.52376
 5.00 4.80 -0.199 -0.198 -0.197 -0.192 -0.179 15.37702 15.33997 -8.32372
 5.00 5.00 -0.148 -0.148 -0.146 -0.141 -0.127 15.57703 15.54008 -8.12367
 5.00 5.20 -0.086 -0.085 -0.084 -0.078 -0.063 15.77703 15.74013 -7.92364
 5.00 5.40 -0.012 -0.011 -0.010 -0.004  0.012 15.97702 15.94018 -7.72362
 5.00 5.60  0.075  0.076  0.078  0.084  0.100 16.17695 16.14026 -7.52355
 5.00 5.80  0.178  0.179  0.180  0.186  0.203 16.37683 16.34036 -7.32343
 5.00 6.00  0.295  0.296  0.297  0.303  0.320 16.57669 16.54045 -7.12332
 5.00 6.25  0.467  0.467  0.469  0.474  0.490 16.82648 16.79053 -6.87319
 5.00 6.50  0.658  0.658  0.660  0.665  0.679 17.07628 17.04060 -6.62306
 5.00 6.75  0.870  0.870  0.871  0.876  0.889 17.32619 17.29081 -6.37285
 5.00 7.00  1.088  1.088  1.089  1.093  1.104 17.57611 17.54108 -6.12263
 5.00 7.25  1.323  1.324  1.325  1.328  1.338 17.82588 17.79142 -5.87240
 5.00 7.50  1.564  1.564  1.565  1.568  1.577 18.07555 18.04179 -5.62215
 5.00 7.75  1.803  1.804  1.804  1.807  1.815 18.32512 18.29217 -5.37169
 5.00 8.00  2.046  2.046  2.047  2.049  2.055 18.57461 18.54258 -5.12108
 5.05-2.00 -0.432 -0.432 -0.432 -0.431 -0.429  8.52737  8.48968-15.17406
 5.05-1.50 -0.432 -0.432 -0.431 -0.431 -0.429  9.02735  8.98958-14.67407
 5.05-1.00 -0.432 -0.431 -0.431 -0.431 -0.429  9.52737  9.48968-14.17406
 5.05-0.50 -0.431 -0.431 -0.431 -0.430 -0.428 10.02735  9.98958-13.67407
 5.05 0.00 -0.430 -0.430 -0.430 -0.429 -0.427 10.52737 10.48968-13.17406
 5.05 0.50 -0.428 -0.428 -0.428 -0.427 -0.424 11.02735 10.98958-12.67407
 5.05 1.00 -0.425 -0.425 -0.425 -0.424 -0.421 11.52737 11.48968-12.17406
 5.05 1.25 -0.423 -0.423 -0.422 -0.421 -0.418 11.77736 11.73965-11.92406
 5.05 1.50 -0.420 -0.420 -0.420 -0.418 -0.414 12.02735 11.98963-11.67407
 5.05 1.75 -0.416 -0.416 -0.415 -0.414 -0.409 12.27736 12.23965-11.42403
 5.05 2.00 -0.411 -0.411 -0.410 -0.409 -0.403 12.52737 12.48968-11.17399
 5.05 2.25 -0.405 -0.405 -0.404 -0.402 -0.396 12.77737 12.73968-10.92403
 5.05 2.50 -0.398 -0.398 -0.397 -0.395 -0.388 13.02735 12.98967-10.67407
 5.05 2.75 -0.390 -0.390 -0.389 -0.387 -0.379 13.27730 13.23967-10.42400
 5.05 3.00 -0.381 -0.380 -0.380 -0.377 -0.368 13.52724 13.48968-10.17393
 5.05 3.20 -0.373 -0.372 -0.372 -0.368 -0.359 13.72729 13.68969 -9.97390
 5.05 3.40 -0.364 -0.363 -0.362 -0.359 -0.348 13.92733 13.88970 -9.77388
 5.05 3.60 -0.354 -0.353 -0.352 -0.348 -0.337 14.12735 14.08974 -9.57387
 5.05 3.80 -0.342 -0.342 -0.341 -0.337 -0.324 14.32731 14.28978 -9.37386
 5.05 4.00 -0.329 -0.328 -0.327 -0.323 -0.309 14.52724 14.48982 -9.17386
 5.05 4.20 -0.313 -0.312 -0.311 -0.306 -0.293 14.72712 14.68983 -8.97386
 5.05 4.40 -0.292 -0.291 -0.290 -0.285 -0.272 14.92700 14.88984 -8.77387
 5.05 4.60 -0.266 -0.266 -0.265 -0.260 -0.246 15.12698 15.08987 -8.57383
 5.05 4.80 -0.234 -0.234 -0.232 -0.228 -0.214 15.32705 15.28991 -8.37375
 5.05 5.00 -0.195 -0.194 -0.193 -0.188 -0.175 15.52711 15.48996 -8.17367
 5.05 5.20 -0.144 -0.143 -0.142 -0.137 -0.124 15.72705 15.69000 -7.97367
 5.05 5.40 -0.083 -0.083 -0.081 -0.076 -0.063 15.92698 15.89005 -7.77366
 5.05 5.60 -0.009 -0.009 -0.007 -0.003  0.011 16.12690 16.09010 -7.57361
 5.05 5.80  0.078  0.079  0.080  0.085  0.100 16.32681 16.29016 -7.37351
 5.05 6.00  0.181  0.181  0.183  0.187  0.201 16.52673 16.49024 -7.17341
 5.05 6.25  0.333  0.333  0.334  0.339  0.353 16.77663 16.74038 -6.92333
 5.05 6.50  0.506  0.507  0.508  0.513  0.526 17.02653 16.99052 -6.67325
 5.05 6.75  0.702  0.703  0.704  0.708  0.721 17.27639 17.24066 -6.42304
 5.05 7.00  0.902  0.903  0.904  0.908  0.919 17.52621 17.49080 -6.17282
 5.05 7.25  1.127  1.127  1.128  1.131  1.141 17.77597 17.74103 -5.92263
 5.05 7.50  1.359  1.359  1.360  1.363  1.371 18.02572 17.99132 -5.67244
 5.05 7.75  1.595  1.595  1.595  1.598  1.605 18.27545 18.24166 -5.42210
 5.05 8.00  1.833  1.834  1.834  1.836  1.842 18.52518 18.49206 -5.17166
 5.10-2.00 -0.427 -0.427 -0.426 -0.426 -0.424  8.47741  8.43965-15.22410
 5.10-1.50 -0.427 -0.427 -0.426 -0.426 -0.424  8.97736  8.93957-14.72400
 5.10-1.00 -0.427 -0.426 -0.426 -0.426 -0.424  9.47741  9.43965-14.22410
 5.10-0.50 -0.426 -0.426 -0.426 -0.426 -0.424  9.97736  9.93957-13.72400
 5.10 0.00 -0.426 -0.426 -0.426 -0.425 -0.424 10.47741 10.43965-13.22403
 5.10 0.50 -0.426 -0.425 -0.425 -0.425 -0.423 10.97736 10.93962-12.72400
 5.10 1.00 -0.424 -0.424 -0.424 -0.423 -0.421 11.47741 11.43965-12.22403
 5.10 1.25 -0.423 -0.423 -0.423 -0.422 -0.420 11.72736 11.68963-11.97401
 5.10 1.50 -0.422 -0.422 -0.422 -0.421 -0.419 11.97731 11.93962-11.72400
 5.10 1.75 -0.420 -0.420 -0.420 -0.419 -0.416 12.22736 12.18963-11.47401
 5.10 2.00 -0.418 -0.418 -0.418 -0.417 -0.414 12.47741 12.43965-11.22403
 5.10 2.25 -0.415 -0.415 -0.415 -0.413 -0.410 12.72736 12.68966-10.97402
 5.10 2.50 -0.411 -0.411 -0.410 -0.409 -0.405 12.97731 12.93967-10.72400
 5.10 2.75 -0.406 -0.405 -0.405 -0.403 -0.399 13.22729 13.18966-10.47398
 5.10 3.00 -0.399 -0.399 -0.399 -0.397 -0.391 13.47727 13.43965-10.22395
 5.10 3.20 -0.393 -0.392 -0.392 -0.390 -0.384 13.67725 13.63967-10.02397
 5.10 3.40 -0.385 -0.384 -0.384 -0.381 -0.375 13.87723 13.83970 -9.82399
 5.10 3.60 -0.375 -0.375 -0.374 -0.371 -0.364 14.07723 14.03974 -9.62397
 5.10 3.80 -0.363 -0.363 -0.362 -0.359 -0.351 14.27725 14.23977 -9.42393
 5.10 4.00 -0.349 -0.349 -0.348 -0.344 -0.335 14.47727 14.43981 -9.22388
 5.10 4.20 -0.333 -0.332 -0.331 -0.327 -0.316 14.67721 14.63981 -9.02384
 5.10 4.40 -0.312 -0.312 -0.310 -0.306 -0.295 14.87716 14.83982 -8.82379
 5.10 4.60 -0.289 -0.288 -0.287 -0.282 -0.270 15.07713 15.03985 -8.62376
 5.10 4.80 -0.260 -0.260 -0.259 -0.254 -0.241 15.27713 15.23991 -8.42374
 5.10 5.00 -0.226 -0.225 -0.224 -0.219 -0.205 15.47712 15.43996 -8.22373
 5.10 5.20 -0.184 -0.183 -0.182 -0.177 -0.163 15.67705 15.63999 -8.02375
 5.10 5.40 -0.133 -0.133 -0.131 -0.126 -0.112 15.87698 15.84001 -7.82376
 5.10 5.60 -0.072 -0.071 -0.070 -0.065 -0.050 16.07692 16.04007 -7.62370
 5.10 5.80  0.002  0.002  0.003  0.008  0.022 16.27688 16.24018 -7.42357
 5.10 6.00  0.088  0.088  0.089  0.094  0.107 16.47683 16.44028 -7.22344
 5.10 6.25  0.220  0.220  0.221  0.225  0.238 16.72673 16.69035 -6.97338
 5.10 6.50  0.373  0.374  0.375  0.378  0.390 16.97663 16.94042 -6.72331
 5.10 6.75  0.555  0.555  0.556  0.560  0.570 17.22652 17.19059 -6.47312
 5.10 7.00  0.749  0.749  0.750  0.753  0.763 17.47640 17.44075 -6.22294
 5.10 7.25  0.962  0.963  0.963  0.966  0.975 17.72620 17.69091 -5.97278
 5.10 7.50  1.189  1.190  1.190  1.193  1.200 17.97598 17.94106 -5.72262
 5.10 7.75  1.419  1.419  1.420  1.422  1.428 18.22576 18.19134 -5.47235
 5.10 8.00  1.653  1.653  1.653  1.655  1.661 18.47553 18.44170 -5.22199
 5.15-2.00 -0.418 -0.418 -0.418 -0.417 -0.416  8.42749  8.38970-15.27409
 5.15-1.50 -0.418 -0.418 -0.418 -0.417 -0.416  8.92737  8.88958-14.77417
 5.15-1.00 -0.418 -0.418 -0.418 -0.417 -0.416  9.42732  9.38970-14.27409
 5.15-0.50 -0.418 -0.418 -0.418 -0.417 -0.416  9.92737  9.88958-13.77417
 5.15 0.00 -0.418 -0.418 -0.418 -0.417 -0.416 10.42732 10.38970-13.27409
 5.15 0.50 -0.418 -0.418 -0.418 -0.417 -0.415 10.92737 10.88958-12.77417
 5.15 1.00 -0.417 -0.417 -0.417 -0.417 -0.415 11.42732 11.38970-12.27409
 5.15 1.25 -0.417 -0.417 -0.417 -0.416 -0.415 11.67732 11.63967-12.02413
 5.15 1.50 -0.417 -0.417 -0.416 -0.416 -0.414 11.92732 11.88964-11.77417
 5.15 1.75 -0.416 -0.416 -0.416 -0.415 -0.413 12.17732 12.13967-11.52409
 5.15 2.00 -0.415 -0.415 -0.415 -0.414 -0.412 12.42732 12.38970-11.27401
 5.15 2.25 -0.414 -0.413 -0.413 -0.413 -0.410 12.67732 12.63967-11.02395
 5.15 2.50 -0.412 -0.412 -0.411 -0.411 -0.408 12.92732 12.88964-10.77392
 5.15 2.75 -0.409 -0.409 -0.409 -0.408 -0.405 13.17732 13.13967-10.52396
 5.15 3.00 -0.406 -0.406 -0.405 -0.404 -0.401 13.42732 13.38970-10.27401
 5.15 3.20 -0.402 -0.402 -0.401 -0.400 -0.397 13.62730 13.58970-10.07397
 5.15 3.40 -0.398 -0.398 -0.397 -0.396 -0.392 13.82728 13.78969 -9.87393
 5.15 3.60 -0.392 -0.392 -0.392 -0.390 -0.386 14.02728 13.98969 -9.67392
 5.15 3.80 -0.385 -0.385 -0.384 -0.383 -0.378 14.22730 14.18970 -9.47392
 5.15 4.00 -0.376 -0.376 -0.376 -0.374 -0.368 14.42733 14.38970 -9.27393
 5.15 4.20 -0.364 -0.364 -0.363 -0.361 -0.355 14.62726 14.58974 -9.07393
 5.15 4.40 -0.349 -0.349 -0.348 -0.346 -0.338 14.82720 14.78979 -8.87392
 5.15 4.60 -0.330 -0.330 -0.329 -0.326 -0.317 15.02716 14.98982 -8.67389
 5.15 4.80 -0.304 -0.304 -0.303 -0.300 -0.290 15.22716 15.18985 -8.47382
 5.15 5.00 -0.273 -0.273 -0.272 -0.268 -0.258 15.42716 15.38988 -8.27376
 5.15 5.20 -0.235 -0.235 -0.234 -0.230 -0.218 15.62711 15.58991 -8.07372
 5.15 5.40 -0.188 -0.187 -0.186 -0.182 -0.169 15.82705 15.78995 -7.87368
 5.15 5.60 -0.132 -0.131 -0.130 -0.125 -0.111 16.02698 15.99002 -7.67363
 5.15 5.80 -0.065 -0.064 -0.063 -0.058 -0.045 16.22691 16.19013 -7.47357
 5.15 6.00  0.012  0.013  0.014  0.018  0.032 16.42684 16.39023 -7.27352
 5.15 6.25  0.126  0.127  0.128  0.132  0.145 16.67677 16.64027 -7.02346
 5.15 6.50  0.262  0.262  0.263  0.267  0.279 16.92670 16.89031 -6.77340
 5.15 6.75  0.423  0.424  0.425  0.428  0.439 17.17662 17.14044 -6.52326
 5.15 7.00  0.605  0.605  0.606  0.609  0.618 17.42651 17.39058 -6.27311
 5.15 7.25  0.802  0.802  0.803  0.805  0.813 17.67634 17.64072 -6.02300
 5.15 7.50  1.020  1.020  1.021  1.023  1.029 17.92614 17.89087 -5.77289
 5.15 7.75  1.247  1.247  1.247  1.249  1.255 18.17593 18.14113 -5.52264
 5.15 8.00  1.479  1.479  1.480  1.482  1.486 18.42570 18.39146 -5.27230
 5.20-2.00 -0.405 -0.405 -0.405 -0.404 -0.403  8.37749  8.33965-15.32404
 5.20-1.50 -0.405 -0.405 -0.405 -0.404 -0.403  8.87737  8.83960-14.82420
 5.20-1.00 -0.405 -0.405 -0.405 -0.404 -0.403  9.37749  9.33965-14.32404
 5.20-0.50 -0.405 -0.405 -0.405 -0.404 -0.403  9.87737  9.83960-13.82420
 5.20 0.00 -0.405 -0.405 -0.405 -0.404 -0.403 10.37731 10.33965-13.32404
 5.20 0.50 -0.405 -0.405 -0.405 -0.404 -0.403 10.87737 10.83960-12.82420
 5.20 1.00 -0.405 -0.405 -0.405 -0.404 -0.403 11.37731 11.33965-12.32404
 5.20 1.25 -0.405 -0.405 -0.405 -0.404 -0.403 11.62731 11.58963-12.07412
 5.20 1.50 -0.405 -0.405 -0.404 -0.404 -0.403 11.87731 11.83960-11.82420
 5.20 1.75 -0.404 -0.404 -0.404 -0.404 -0.402 12.12731 12.08963-11.57412
 5.20 2.00 -0.404 -0.404 -0.404 -0.403 -0.402 12.37731 12.33965-11.32404
 5.20 2.25 -0.403 -0.403 -0.403 -0.403 -0.401 12.62731 12.58966-11.07397
 5.20 2.50 -0.403 -0.403 -0.403 -0.402 -0.400 12.87731 12.83967-10.82391
 5.20 2.75 -0.401 -0.401 -0.401 -0.401 -0.399 13.12731 13.08966-10.57393
 5.20 3.00 -0.400 -0.400 -0.400 -0.399 -0.397 13.37731 13.33965-10.32395
 5.20 3.20 -0.398 -0.398 -0.398 -0.397 -0.395 13.57729 13.53965-10.12393
 5.20 3.40 -0.396 -0.396 -0.396 -0.395 -0.392 13.77727 13.73966 -9.92392
 5.20 3.60 -0.393 -0.393 -0.393 -0.392 -0.389 13.97727 13.93970 -9.72392
 5.20 3.80 -0.389 -0.389 -0.389 -0.388 -0.385 14.17729 14.13978 -9.52393
 5.20 4.00 -0.385 -0.385 -0.384 -0.383 -0.380 14.37731 14.33985 -9.32395
 5.20 4.20 -0.378 -0.378 -0.378 -0.376 -0.373 14.57726 14.53983 -9.12394
 5.20 4.40 -0.370 -0.370 -0.369 -0.368 -0.363 14.77722 14.73980 -8.92392
 5.20 4.60 -0.358 -0.358 -0.358 -0.356 -0.351 14.97718 14.93980 -8.72388
 5.20 4.80 -0.343 -0.342 -0.342 -0.340 -0.334 15.17715 15.13982 -8.52382
 5.20 5.00 -0.323 -0.322 -0.322 -0.320 -0.312 15.37712 15.33985 -8.32376
 5.20 5.20 -0.293 -0.293 -0.293 -0.290 -0.283 15.57708 15.53988 -8.12371
 5.20 5.40 -0.258 -0.257 -0.256 -0.254 -0.245 15.77705 15.73990 -7.92365
 5.20 5.60 -0.211 -0.211 -0.210 -0.207 -0.198 15.97701 15.93994 -7.72361
 5.20 5.80 -0.153 -0.153 -0.152 -0.149 -0.138 16.17698 16.13999 -7.52360
 5.20 6.00 -0.082 -0.081 -0.080 -0.077 -0.066 16.37694 16.34005 -7.32358
 5.20 6.25  0.023  0.024  0.025  0.029  0.040 16.62688 16.59014 -7.07346
 5.20 6.50  0.151  0.152  0.153  0.157  0.168 16.87679 16.84023 -6.82333
 5.20 6.75  0.299  0.300  0.301  0.304  0.316 17.12670 17.09033 -6.57327
 5.20 7.00  0.469  0.469  0.470  0.474  0.484 17.37658 17.34044 -6.32322
 5.20 7.25  0.650  0.650  0.651  0.654  0.663 17.62643 17.59058 -6.07314
 5.20 7.50  0.856  0.856  0.857  0.859  0.867 17.87628 17.84073 -5.82304
 5.20 7.75  1.074  1.074  1.075  1.077  1.083 18.12615 18.09096 -5.57281
 5.20 8.00  1.300  1.300  1.300  1.302  1.306 18.37603 18.34124 -5.32248
 5.25-2.00 -0.385 -0.385 -0.385 -0.385 -0.383  8.32736  8.28959-15.37407
 5.25-1.50 -0.385 -0.385 -0.385 -0.385 -0.383  8.82737  8.78958-14.87419
 5.25-1.00 -0.385 -0.385 -0.385 -0.385 -0.383  9.32736  9.28959-14.37407
 5.25-0.50 -0.385 -0.385 -0.385 -0.385 -0.383  9.82737  9.78958-13.87419
 5.25 0.00 -0.385 -0.385 -0.385 -0.385 -0.383 10.32736 10.28959-13.37407
 5.25 0.50 -0.385 -0.385 -0.385 -0.385 -0.383 10.82737 10.78958-12.87419
 5.25 1.00 -0.385 -0.385 -0.385 -0.385 -0.383 11.32736 11.28959-12.37407
 5.25 1.25 -0.385 -0.385 -0.385 -0.385 -0.383 11.57736 11.53959-12.12413
 5.25 1.50 -0.385 -0.385 -0.385 -0.384 -0.383 11.82737 11.78958-11.87419
 5.25 1.75 -0.385 -0.385 -0.385 -0.384 -0.383 12.07737 12.03958-11.62413
 5.25 2.00 -0.385 -0.385 -0.385 -0.384 -0.383 12.32736 12.28959-11.37407
 5.25 2.25 -0.385 -0.385 -0.385 -0.384 -0.383 12.57733 12.53962-11.12413
 5.25 2.50 -0.384 -0.384 -0.384 -0.384 -0.382 12.82730 12.78965-10.87419
 5.25 2.75 -0.384 -0.384 -0.384 -0.383 -0.382 13.07733 13.03962-10.62408
 5.25 3.00 -0.383 -0.383 -0.383 -0.383 -0.381 13.32736 13.28959-10.37397
 5.25 3.20 -0.383 -0.383 -0.382 -0.382 -0.380 13.52734 13.48960-10.17391
 5.25 3.40 -0.382 -0.382 -0.382 -0.381 -0.379 13.72732 13.68963 -9.97388
 5.25 3.60 -0.380 -0.380 -0.380 -0.380 -0.378 13.92732 13.88968 -9.77389
 5.25 3.80 -0.379 -0.378 -0.378 -0.378 -0.376 14.12734 14.08975 -9.57393
 5.25 4.00 -0.376 -0.376 -0.376 -0.375 -0.373 14.32736 14.28981 -9.37397
 5.25 4.20 -0.372 -0.372 -0.372 -0.371 -0.369 14.52729 14.48978 -9.17393
 5.25 4.40 -0.368 -0.368 -0.367 -0.367 -0.364 14.72721 14.68974 -8.97389
 5.25 4.60 -0.361 -0.361 -0.361 -0.360 -0.357 14.92717 14.88974 -8.77387
 5.25 4.80 -0.352 -0.352 -0.352 -0.351 -0.347 15.12716 15.08977 -8.57386
 5.25 5.00 -0.340 -0.340 -0.340 -0.339 -0.335 15.32715 15.28981 -8.37387
 5.25 5.20 -0.323 -0.323 -0.322 -0.321 -0.317 15.52711 15.48986 -8.17387
 5.25 5.40 -0.300 -0.300 -0.299 -0.297 -0.292 15.72707 15.68991 -7.97387
 5.25 5.60 -0.268 -0.268 -0.267 -0.266 -0.260 15.92703 15.88995 -7.77383
 5.25 5.80 -0.227 -0.227 -0.226 -0.224 -0.218 16.12699 16.08999 -7.57374
 5.25 6.00 -0.175 -0.174 -0.174 -0.171 -0.164 16.32695 16.29004 -7.37366
 5.25 6.25 -0.088 -0.087 -0.087 -0.084 -0.076 16.57690 16.54009 -7.12360
 5.25 6.50  0.022  0.022  0.023  0.026  0.034 16.82685 16.79014 -6.87354
 5.25 6.75  0.158  0.158  0.159  0.162  0.171 17.07680 17.04031 -6.62340
 5.25 7.00  0.318  0.318  0.319  0.322  0.331 17.32675 17.29048 -6.37325
 5.25 7.25  0.497  0.497  0.498  0.501  0.509 17.57657 17.54056 -6.12324
 5.25 7.50  0.691  0.692  0.692  0.694  0.703 17.82640 17.79064 -5.87322
 5.25 7.75  0.900  0.900  0.900  0.903  0.910 18.07626 18.04077 -5.62300
 5.25 8.00  1.119  1.119  1.119  1.121  1.126 18.32613 18.29092 -5.37263
 5.30-2.00 -0.359 -0.359 -0.359 -0.358 -0.357  8.27738  8.23955-15.42412
 5.30-1.50 -0.359 -0.359 -0.359 -0.358 -0.357  8.77735  8.73957-14.92409
 5.30-1.00 -0.359 -0.359 -0.359 -0.358 -0.357  9.27738  9.23955-14.42412
 5.30-0.50 -0.359 -0.359 -0.359 -0.358 -0.357  9.77736  9.73957-13.92409
 5.30 0.00 -0.359 -0.359 -0.359 -0.358 -0.357 10.27738 10.23955-13.42412
 5.30 0.50 -0.359 -0.359 -0.359 -0.358 -0.357 10.77735 10.73957-12.92409
 5.30 1.00 -0.359 -0.359 -0.359 -0.358 -0.357 11.27738 11.23955-12.42400
 5.30 1.25 -0.359 -0.359 -0.359 -0.358 -0.357 11.52737 11.48956-12.17405
 5.30 1.50 -0.359 -0.359 -0.359 -0.358 -0.357 11.77735 11.73957-11.92409
 5.30 1.75 -0.359 -0.359 -0.359 -0.358 -0.357 12.02737 11.98956-11.67405
 5.30 2.00 -0.359 -0.359 -0.359 -0.358 -0.357 12.27738 12.23955-11.42400
 5.30 2.25 -0.359 -0.359 -0.359 -0.358 -0.357 12.52737 12.48959-11.17405
 5.30 2.50 -0.359 -0.359 -0.359 -0.358 -0.357 12.77736 12.73965-10.92409
 5.30 2.75 -0.359 -0.359 -0.358 -0.358 -0.357 13.02737 12.98973-10.67405
 5.30 3.00 -0.358 -0.358 -0.358 -0.358 -0.356 13.27738 13.23980-10.42400
 5.30 3.20 -0.358 -0.358 -0.358 -0.357 -0.356 13.47734 13.43974-10.22404
 5.30 3.40 -0.358 -0.358 -0.358 -0.357 -0.356 13.67730 13.63968-10.02407
 5.30 3.60 -0.357 -0.357 -0.357 -0.356 -0.355 13.87730 13.83968 -9.82407
 5.30 3.80 -0.356 -0.356 -0.356 -0.355 -0.354 14.07734 14.03974 -9.62404
 5.30 4.00 -0.355 -0.355 -0.355 -0.354 -0.353 14.27738 14.23980 -9.42400
 5.30 4.20 -0.353 -0.353 -0.353 -0.352 -0.351 14.47731 14.43977 -9.22404
 5.30 4.40 -0.350 -0.350 -0.350 -0.350 -0.348 14.67724 14.63974 -9.02407
 5.30 4.60 -0.346 -0.346 -0.346 -0.346 -0.344 14.87719 14.83974 -8.82405
 5.30 4.80 -0.341 -0.341 -0.341 -0.340 -0.338 15.07717 15.03977 -8.62397
 5.30 5.00 -0.334 -0.334 -0.334 -0.333 -0.331 15.27715 15.23980 -8.42389
 5.30 5.20 -0.323 -0.323 -0.322 -0.322 -0.319 15.47714 15.43983 -8.22382
 5.30 5.40 -0.308 -0.308 -0.308 -0.307 -0.304 15.67714 15.63987 -8.02375
 5.30 5.60 -0.288 -0.288 -0.288 -0.287 -0.284 15.87714 15.83992 -7.82370
 5.30 5.80 -0.260 -0.260 -0.260 -0.259 -0.255 16.07715 16.03999 -7.62367
 5.30 6.00 -0.225 -0.225 -0.224 -0.223 -0.219 16.27715 16.24005 -7.42366
 5.30 6.25 -0.164 -0.164 -0.163 -0.162 -0.157 16.52703 16.49009 -7.17369
 5.30 6.50 -0.082 -0.082 -0.081 -0.079 -0.073 16.77692 16.74013 -6.92372
 5.30 6.75  0.027  0.027  0.028  0.030  0.036 17.02680 16.99021 -6.67358
 5.30 7.00  0.162  0.162  0.163  0.165  0.171 17.27669 17.24030 -6.42343
 5.30 7.25  0.325  0.326  0.326  0.328  0.335 17.52659 17.49041 -6.17339
 5.30 7.50  0.506  0.507  0.507  0.509  0.516 17.77648 17.74052 -5.92336
 5.30 7.75  0.708  0.709  0.709  0.711  0.717 18.02636 17.99065 -5.67316
 5.30 8.00  0.924  0.924  0.924  0.926  0.931 18.27623 18.24080 -5.42285
