
 ROSSELAND MASS ABSORPTION COEFFICENTS
 logT logP  0km/s  1km/s  2km/s  4km/s  8km/s  log Ne   log Na  log rho IPloCM-1
 3.32-2.00 -5.168 -5.156 -5.136 -5.106 -5.069  5.37894 10.53983-13.12378
 3.32-1.50 -5.202 -5.188 -5.167 -5.135 -5.097  5.79435 11.04060-12.62288
 3.32-1.00 -5.247 -5.232 -5.210 -5.177 -5.139  6.19756 11.54357-12.12004
 3.32-0.50 -5.291 -5.276 -5.253 -5.220 -5.182  6.60282 12.05192-11.61172
 3.32 0.00 -5.317 -5.301 -5.279 -5.246 -5.207  7.02694 12.57322-11.09044
 3.32 0.50 -5.320 -5.304 -5.282 -5.248 -5.211  7.46374 13.11428-10.54929
 3.32 1.00 -5.314 -5.298 -5.276 -5.243 -5.205  7.87593 13.66792 -9.99568
 3.32 1.25 -5.308 -5.293 -5.271 -5.238 -5.200  8.06441 13.94301 -9.72065
 3.32 1.50 -5.301 -5.286 -5.264 -5.231 -5.194  8.24378 14.21617 -9.44758
 3.32 1.75 -5.290 -5.274 -5.253 -5.221 -5.186  8.41410 14.48506 -9.17861
 3.32 2.00 -5.274 -5.260 -5.239 -5.208 -5.174  8.58070 14.75066 -8.91293
 3.32 2.25 -5.253 -5.239 -5.218 -5.189 -5.156  8.74427 15.01289 -8.65074
 3.32 2.50 -5.225 -5.210 -5.192 -5.165 -5.132  8.90784 15.27254 -8.39115
 3.32 2.75 -5.189 -5.175 -5.157 -5.132 -5.100  9.07294 15.52995 -8.13381
 3.32 3.00 -5.144 -5.132 -5.115 -5.090 -5.061  9.23880 15.78569 -7.87811
 3.32 3.20 -5.102 -5.090 -5.073 -5.050 -5.023  9.37220 15.98926 -7.67455
 3.32 3.40 -5.053 -5.043 -5.028 -5.006 -4.979  9.50559 16.19216 -7.47161
 3.32 3.60 -4.999 -4.989 -4.976 -4.955 -4.930  9.63787 16.39442 -7.26926
 3.32 3.80 -4.938 -4.929 -4.918 -4.899 -4.875  9.76723 16.59624 -7.06733
 3.32 4.00 -4.872 -4.865 -4.855 -4.838 -4.816  9.89421 16.79768 -6.86582
 3.32 4.20 -4.811 -4.804 -4.793 -4.777 -4.755 10.01693 16.99883 -6.66475
 3.32 4.40 -4.743 -4.736 -4.727 -4.710 -4.688 10.13649 17.19977 -6.46388
 3.32 4.60 -4.672 -4.666 -4.655 -4.640 -4.618 10.25272 17.40052 -6.26315
 3.32 4.80 -4.597 -4.590 -4.581 -4.565 -4.543 10.36617 17.60113 -6.06252
 3.32 5.00 -4.515 -4.508 -4.498 -4.483 -4.461 10.47712 17.80161 -5.86201
 3.32 5.20 -4.424 -4.418 -4.408 -4.394 -4.372 10.58583 18.00194 -5.66170
 3.32 5.40 -4.323 -4.316 -4.308 -4.293 -4.272 10.69296 18.20222 -5.46143
 3.32 5.60 -4.208 -4.203 -4.195 -4.181 -4.160 10.79862 18.40246 -5.26118
 3.32 5.80 -4.078 -4.073 -4.066 -4.053 -4.033 10.90326 18.60267 -5.06095
 3.32 6.00 -3.930 -3.925 -3.919 -3.906 -3.888 11.00690 18.80284 -4.86075
 3.32 6.25 -3.710 -3.707 -3.701 -3.691 -3.675 11.13523 19.05291 -4.61068
 3.32 6.50 -3.444 -3.441 -3.437 -3.428 -3.415 11.26269 19.30298 -4.36061
 3.32 6.75 -3.120 -3.118 -3.115 -3.108 -3.099 11.38959 19.55312 -4.11053
 3.32 7.00 -2.916 -2.914 -2.911 -2.906 -2.898 11.51587 19.80325 -3.86044
 3.32 7.25 -2.807 -2.806 -2.803 -2.799 -2.791 11.64160 20.05322 -3.61042
 3.32 7.50 -2.704 -2.702 -2.700 -2.695 -2.689 11.76671 20.30320 -3.36041
 3.32 7.75 -2.604 -2.602 -2.600 -2.596 -2.590 11.89115 20.55326 -3.11042
 3.32 8.00 -2.508 -2.505 -2.503 -2.499 -2.495 12.01494 20.80339 -2.86044
 3.34-2.00 -5.100 -5.090 -5.072 -5.043 -5.007  5.45117 10.51943-13.14424
 3.34-1.50 -5.113 -5.100 -5.080 -5.049 -5.010  5.89092 11.01953-12.64397
 3.34-1.00 -5.134 -5.119 -5.097 -5.062 -5.023  6.31302 11.52061-12.14303
 3.34-0.50 -5.161 -5.145 -5.122 -5.085 -5.045  6.72008 12.02325-11.64035
 3.34 0.00 -5.182 -5.165 -5.141 -5.104 -5.062  7.12353 12.53148-11.13224
 3.34 0.50 -5.174 -5.157 -5.132 -5.095 -5.054  7.54020 13.05231-10.61154
 3.34 1.00 -5.129 -5.111 -5.087 -5.049 -5.007  7.97350 13.59284-10.07084
 3.34 1.25 -5.097 -5.080 -5.055 -5.018 -4.977  8.18499 13.86949 -9.79420
 3.34 1.50 -5.066 -5.048 -5.024 -4.988 -4.948  8.39058 14.14613 -9.51756
 3.34 1.75 -5.035 -5.017 -4.993 -4.958 -4.919  8.58216 14.42132 -9.24240
 3.34 2.00 -5.005 -4.989 -4.965 -4.931 -4.893  8.76410 14.69478 -8.96900
 3.34 2.25 -4.975 -4.958 -4.936 -4.904 -4.866  8.93614 14.96388 -8.69980
 3.34 2.50 -4.944 -4.929 -4.906 -4.875 -4.839  9.10312 15.22968 -8.43392
 3.34 2.75 -4.910 -4.894 -4.873 -4.844 -4.809  9.26547 15.49214 -8.17160
 3.34 3.00 -4.870 -4.855 -4.835 -4.807 -4.775  9.42781 15.75197 -7.91186
 3.34 3.20 -4.832 -4.819 -4.799 -4.773 -4.742  9.55781 15.95812 -7.70563
 3.34 3.40 -4.790 -4.777 -4.760 -4.736 -4.705  9.68793 16.16318 -7.50052
 3.34 3.60 -4.741 -4.730 -4.714 -4.692 -4.663  9.81842 16.36718 -7.29653
 3.34 3.80 -4.687 -4.677 -4.663 -4.642 -4.616  9.94916 16.57046 -7.09332
 3.34 4.00 -4.627 -4.620 -4.608 -4.589 -4.564 10.07990 16.77306 -6.89076
 3.34 4.20 -4.573 -4.565 -4.554 -4.536 -4.511 10.20830 16.97506 -6.68867
 3.34 4.40 -4.514 -4.507 -4.497 -4.479 -4.455 10.33466 17.17669 -6.48697
 3.34 4.60 -4.456 -4.448 -4.439 -4.421 -4.398 10.45822 17.37802 -6.28565
 3.34 4.80 -4.397 -4.390 -4.380 -4.363 -4.339 10.57835 17.57914 -6.08457
 3.34 5.00 -4.336 -4.330 -4.319 -4.303 -4.280 10.69557 17.78003 -5.88373
 3.34 5.20 -4.274 -4.268 -4.259 -4.242 -4.219 10.80968 17.98072 -5.68305
 3.34 5.40 -4.210 -4.205 -4.195 -4.180 -4.156 10.92144 18.18127 -5.48250
 3.34 5.60 -4.146 -4.139 -4.130 -4.115 -4.092 11.03088 18.38168 -5.28205
 3.34 5.80 -4.078 -4.073 -4.064 -4.049 -4.027 11.13860 18.58201 -5.08169
 3.34 6.00 -4.010 -4.004 -3.997 -3.982 -3.961 11.24477 18.78226 -4.88141
 3.34 6.25 -3.923 -3.918 -3.911 -3.896 -3.876 11.37577 19.03244 -4.63118
 3.34 6.50 -3.835 -3.830 -3.822 -3.809 -3.789 11.50529 19.28262 -4.38101
 3.34 6.75 -3.746 -3.740 -3.734 -3.721 -3.702 11.63363 19.53280 -4.13086
 3.34 7.00 -3.655 -3.652 -3.645 -3.633 -3.615 11.76103 19.78298 -3.88074
 3.34 7.25 -3.566 -3.562 -3.556 -3.544 -3.528 11.88773 20.03303 -3.63067
 3.34 7.50 -3.476 -3.473 -3.467 -3.456 -3.440 12.01368 20.28308 -3.38059
 3.34 7.75 -3.386 -3.383 -3.377 -3.367 -3.353 12.13891 20.53313 -3.13051
 3.34 8.00 -3.298 -3.293 -3.288 -3.278 -3.266 12.26340 20.78319 -2.88041
 3.36-2.00 -5.016 -5.007 -4.991 -4.964 -4.930  5.54494 10.49941-13.16431
 3.36-1.50 -5.046 -5.036 -5.017 -4.988 -4.950  5.96431 10.99944-12.66414
 3.36-1.00 -5.055 -5.042 -5.022 -4.988 -4.948  6.39933 11.49982-12.16393
 3.36-0.50 -5.059 -5.045 -5.021 -4.985 -4.942  6.82497 12.00087-11.66294
 3.36 0.00 -5.061 -5.043 -5.017 -4.979 -4.934  7.23578 12.50352-11.16015
 3.36 0.50 -5.039 -5.021 -4.993 -4.953 -4.908  7.63988 13.01157-10.65189
 3.36 1.00 -4.975 -4.955 -4.929 -4.888 -4.842  8.05231 13.53288-10.13077
 3.36 1.25 -4.925 -4.906 -4.878 -4.839 -4.795  8.26666 13.80159 -9.86216
 3.36 1.50 -4.868 -4.849 -4.821 -4.783 -4.738  8.48101 14.07408 -9.58973
 3.36 1.75 -4.806 -4.788 -4.762 -4.723 -4.681  8.69221 14.35078 -9.31299
 3.36 2.00 -4.748 -4.729 -4.703 -4.667 -4.625  8.89922 14.62747 -9.03626
 3.36 2.25 -4.693 -4.674 -4.649 -4.614 -4.574  9.09237 14.90256 -8.76119
 3.36 2.50 -4.643 -4.625 -4.602 -4.568 -4.529  9.27577 15.17580 -8.48798
 3.36 2.75 -4.596 -4.578 -4.556 -4.524 -4.487  9.44866 15.44474 -8.21889
 3.36 3.00 -4.550 -4.535 -4.514 -4.483 -4.447  9.61574 15.71037 -7.95312
 3.36 3.20 -4.512 -4.497 -4.477 -4.449 -4.415  9.74539 15.92034 -7.74314
 3.36 3.40 -4.472 -4.458 -4.440 -4.413 -4.380  9.87440 16.12868 -7.53485
 3.36 3.60 -4.427 -4.416 -4.399 -4.374 -4.343 10.00281 16.33545 -7.32820
 3.36 3.80 -4.378 -4.368 -4.354 -4.331 -4.302 10.13108 16.54104 -7.12272
 3.36 4.00 -4.325 -4.318 -4.305 -4.285 -4.258 10.25935 16.74554 -6.91829
 3.36 4.20 -4.275 -4.268 -4.257 -4.237 -4.210 10.38766 16.94904 -6.71467
 3.36 4.40 -4.222 -4.215 -4.203 -4.185 -4.161 10.51597 17.15190 -6.51172
 3.36 4.60 -4.167 -4.160 -4.149 -4.132 -4.108 10.64342 17.35420 -6.30946
 3.36 4.80 -4.111 -4.104 -4.094 -4.076 -4.053 10.76861 17.55611 -6.10767
 3.36 5.00 -4.052 -4.046 -4.036 -4.019 -3.995 10.89193 17.75762 -5.90623
 3.36 5.20 -3.992 -3.986 -3.977 -3.961 -3.938 11.01191 17.95877 -5.70503
 3.36 5.40 -3.930 -3.924 -3.915 -3.899 -3.877 11.12927 18.15969 -5.50404
 3.36 5.60 -3.865 -3.860 -3.852 -3.836 -3.814 11.24381 18.36042 -5.30323
 3.36 5.80 -3.799 -3.794 -3.786 -3.772 -3.751 11.35591 18.56101 -5.10256
 3.36 6.00 -3.732 -3.727 -3.720 -3.706 -3.686 11.46583 18.76148 -4.90205
 3.36 6.25 -3.645 -3.641 -3.634 -3.622 -3.602 11.60057 19.01188 -4.65170
 3.36 6.50 -3.558 -3.554 -3.548 -3.536 -3.517 11.73304 19.26221 -4.40143
 3.36 6.75 -3.469 -3.466 -3.460 -3.448 -3.431 11.86366 19.51252 -4.15120
 3.36 7.00 -3.380 -3.377 -3.371 -3.360 -3.345 11.99282 19.76275 -3.90101
 3.36 7.25 -3.291 -3.288 -3.283 -3.273 -3.258 12.12078 20.01284 -3.65087
 3.36 7.50 -3.202 -3.199 -3.194 -3.184 -3.171 12.24773 20.26293 -3.40077
 3.36 7.75 -3.114 -3.110 -3.105 -3.097 -3.085 12.37387 20.51302 -3.15070
 3.36 8.00 -3.025 -3.023 -3.018 -3.010 -2.999 12.49914 20.76313 -2.90067
 3.38-2.00 -4.865 -4.857 -4.841 -4.816 -4.783  5.73576 10.47929-13.18436
 3.38-1.50 -4.940 -4.931 -4.914 -4.886 -4.849  6.09272 10.97937-12.68424
 3.38-1.00 -4.980 -4.969 -4.951 -4.919 -4.879  6.48671 11.47943-12.18422
 3.38-0.50 -4.985 -4.972 -4.951 -4.917 -4.872  6.90870 11.97978-11.68382
 3.38 0.00 -4.967 -4.952 -4.928 -4.890 -4.843  7.33304 12.48073-11.18290
 3.38 0.50 -4.924 -4.907 -4.880 -4.839 -4.790  7.74609 12.98376-10.67985
 3.38 1.00 -4.839 -4.819 -4.790 -4.748 -4.699  8.15168 13.49262-10.17108
 3.38 1.25 -4.776 -4.757 -4.728 -4.686 -4.637  8.35606 13.75177 -9.91195
 3.38 1.50 -4.702 -4.681 -4.653 -4.611 -4.563  8.56229 14.01494 -9.64878
 3.38 1.75 -4.618 -4.599 -4.570 -4.530 -4.484  8.77464 14.28425 -9.37949
 3.38 2.00 -4.530 -4.510 -4.484 -4.444 -4.399  8.98700 14.55715 -9.10657
 3.38 2.25 -4.443 -4.424 -4.398 -4.361 -4.318  9.19705 14.83387 -8.82978
 3.38 2.50 -4.361 -4.344 -4.319 -4.283 -4.243  9.40381 15.11059 -8.55300
 3.38 2.75 -4.288 -4.271 -4.249 -4.215 -4.176  9.59723 15.38546 -8.27813
 3.38 3.00 -4.224 -4.208 -4.187 -4.156 -4.118  9.78104 15.65830 -8.00533
 3.38 3.20 -4.175 -4.161 -4.142 -4.113 -4.077  9.91998 15.87335 -7.79026
 3.38 3.40 -4.130 -4.118 -4.099 -4.073 -4.039 10.05493 16.08632 -7.57729
 3.38 3.60 -4.085 -4.075 -4.058 -4.033 -4.002 10.18571 16.29711 -7.36655
 3.38 3.80 -4.039 -4.030 -4.016 -3.993 -3.963 10.31444 16.50607 -7.15767
 3.38 4.00 -3.992 -3.984 -3.972 -3.951 -3.924 10.44201 16.71341 -6.95039
 3.38 4.20 -3.947 -3.941 -3.930 -3.911 -3.884 10.56892 16.91925 -6.74450
 3.38 4.40 -3.901 -3.895 -3.885 -3.866 -3.841 10.69547 17.12407 -6.53964
 3.38 4.60 -3.853 -3.847 -3.838 -3.820 -3.796 10.82184 17.32791 -6.33572
 3.38 4.80 -3.804 -3.798 -3.789 -3.773 -3.749 10.94798 17.53108 -6.13250
 3.38 5.00 -3.752 -3.746 -3.737 -3.720 -3.698 11.07372 17.73360 -5.92996
 3.38 5.20 -3.696 -3.691 -3.682 -3.667 -3.645 11.19752 17.93556 -5.72812
 3.38 5.40 -3.637 -3.633 -3.625 -3.610 -3.589 11.31953 18.13714 -5.52661
 3.38 5.60 -3.576 -3.572 -3.565 -3.551 -3.530 11.43923 18.33838 -5.32534
 3.38 5.80 -3.513 -3.510 -3.503 -3.490 -3.469 11.55621 18.53940 -5.12424
 3.38 6.00 -3.449 -3.445 -3.438 -3.425 -3.406 11.67080 18.74021 -4.92336
 3.38 6.25 -3.365 -3.361 -3.355 -3.344 -3.326 11.81052 18.99097 -4.67272
 3.38 6.50 -3.280 -3.276 -3.271 -3.260 -3.242 11.94714 19.24155 -4.42216
 3.38 6.75 -3.193 -3.189 -3.184 -3.174 -3.158 12.08099 19.49199 -4.17163
 3.38 7.00 -3.104 -3.102 -3.097 -3.088 -3.074 12.21272 19.74233 -3.92118
 3.38 7.25 -3.017 -3.014 -3.010 -3.001 -2.988 12.34274 19.99259 -3.67100
 3.38 7.50 -2.929 -2.926 -2.922 -2.914 -2.902 12.47129 20.24279 -3.42090
 3.38 7.75 -2.841 -2.839 -2.835 -2.827 -2.818 12.59867 20.49294 -3.17084
 3.38 8.00 -2.754 -2.752 -2.748 -2.741 -2.733 12.72477 20.74304 -2.92082
 3.40-2.00 -4.670 -4.663 -4.649 -4.627 -4.596  5.97978 10.45939-13.20433
 3.40-1.50 -4.773 -4.765 -4.749 -4.723 -4.689  6.30728 10.95933-12.70443
 3.40-1.00 -4.852 -4.843 -4.826 -4.796 -4.758  6.64768 11.45939-12.20426
 3.40-0.50 -4.895 -4.884 -4.864 -4.831 -4.788  7.01787 11.95947-11.70421
 3.40 0.00 -4.889 -4.877 -4.854 -4.816 -4.769  7.42160 12.45984-11.20384
 3.40 0.50 -4.837 -4.821 -4.796 -4.755 -4.704  7.83935 12.96095-10.70268
 3.40 1.00 -4.731 -4.713 -4.685 -4.642 -4.590  8.25212 13.46434-10.19935
 3.40 1.25 -4.655 -4.636 -4.609 -4.564 -4.512  8.45559 13.71811 -9.94555
 3.40 1.50 -4.563 -4.543 -4.516 -4.472 -4.420  8.65906 13.97410 -9.68952
 3.40 1.75 -4.462 -4.441 -4.413 -4.371 -4.321  8.86354 14.23410 -9.42954
 3.40 2.00 -4.351 -4.331 -4.303 -4.262 -4.214  9.06930 14.49831 -9.16539
 3.40 2.25 -4.238 -4.220 -4.193 -4.155 -4.109  9.28012 14.76885 -8.89494
 3.40 2.50 -4.127 -4.109 -4.085 -4.049 -4.005  9.49094 15.04258 -8.62124
 3.40 2.75 -4.023 -4.007 -3.985 -3.951 -3.911  9.69937 15.31937 -8.34436
 3.40 3.00 -3.929 -3.915 -3.895 -3.864 -3.826  9.90445 15.59616 -8.06748
 3.40 3.20 -3.862 -3.849 -3.831 -3.802 -3.766 10.05912 15.81580 -7.84783
 3.40 3.40 -3.801 -3.790 -3.773 -3.747 -3.714 10.20780 16.03391 -7.62975
 3.40 3.60 -3.746 -3.737 -3.721 -3.697 -3.667 10.34967 16.24992 -7.41377
 3.40 3.80 -3.694 -3.686 -3.674 -3.652 -3.623 10.48613 16.46343 -7.20027
 3.40 4.00 -3.645 -3.638 -3.628 -3.609 -3.583 10.61847 16.67486 -6.98885
 3.40 4.20 -3.603 -3.597 -3.587 -3.569 -3.544 10.74708 16.88412 -6.77959
 3.40 4.40 -3.561 -3.555 -3.546 -3.530 -3.505 10.87423 17.09181 -6.57191
 3.40 4.60 -3.518 -3.514 -3.505 -3.490 -3.467 11.00020 17.29799 -6.36575
 3.40 4.80 -3.477 -3.471 -3.464 -3.449 -3.426 11.12553 17.50307 -6.16070
 3.40 5.00 -3.431 -3.427 -3.419 -3.405 -3.383 11.25018 17.70714 -5.95664
 3.40 5.20 -3.384 -3.379 -3.372 -3.359 -3.338 11.37457 17.91034 -5.75342
 3.40 5.40 -3.332 -3.329 -3.322 -3.309 -3.289 11.49816 18.11296 -5.55077
 3.40 5.60 -3.278 -3.274 -3.267 -3.255 -3.235 11.62066 18.31506 -5.34860
 3.40 5.80 -3.220 -3.216 -3.210 -3.199 -3.180 11.74134 18.51679 -5.14680
 3.40 6.00 -3.160 -3.156 -3.150 -3.139 -3.122 11.86028 18.71817 -4.94539
 3.40 6.25 -3.080 -3.078 -3.072 -3.062 -3.046 12.00523 18.96943 -4.69423
 3.40 6.50 -2.998 -2.996 -2.991 -2.981 -2.967 12.14675 19.22037 -4.44334
 3.40 6.75 -2.914 -2.912 -2.908 -2.899 -2.885 12.28476 19.47109 -4.19256
 3.40 7.00 -2.830 -2.827 -2.823 -2.814 -2.802 12.41996 19.72165 -3.94195
 3.40 7.25 -2.743 -2.741 -2.737 -2.730 -2.719 12.55270 19.97211 -3.69159
 3.40 7.50 -2.657 -2.655 -2.651 -2.645 -2.635 12.68341 20.22246 -3.44129
 3.40 7.75 -2.571 -2.569 -2.566 -2.560 -2.551 12.81251 20.47269 -3.19103
 3.40 8.00 -2.486 -2.484 -2.482 -2.476 -2.467 12.93987 20.72280 -2.94082
 3.42-2.00 -4.481 -4.474 -4.462 -4.441 -4.414  6.20385 10.43933-13.22432
 3.42-1.50 -4.581 -4.574 -4.560 -4.536 -4.504  6.54444 10.93937-12.72423
 3.42-1.00 -4.677 -4.668 -4.653 -4.625 -4.589  6.87186 11.43949-12.22424
 3.42-0.50 -4.750 -4.739 -4.721 -4.689 -4.649  7.20249 11.93942-11.72423
 3.42 0.00 -4.778 -4.766 -4.745 -4.709 -4.663  7.55461 12.43965-11.22410
 3.42 0.50 -4.745 -4.731 -4.708 -4.668 -4.616  7.93882 12.94002-10.72377
 3.42 1.00 -4.640 -4.624 -4.599 -4.556 -4.500  8.34537 13.44138-10.22236
 3.42 1.25 -4.557 -4.542 -4.515 -4.472 -4.415  8.55021 13.69286 -9.97089
 3.42 1.50 -4.456 -4.439 -4.412 -4.368 -4.314  8.75504 13.94527 -9.71851
 3.42 1.75 -4.338 -4.321 -4.294 -4.252 -4.199  8.95865 14.19964 -9.46408
 3.42 2.00 -4.207 -4.190 -4.163 -4.122 -4.071  9.16227 14.45652 -9.20712
 3.42 2.25 -4.073 -4.056 -4.030 -3.991 -3.944  9.36710 14.71784 -8.94587
 3.42 2.50 -3.936 -3.920 -3.897 -3.859 -3.815  9.57322 14.98354 -8.68027
 3.42 2.75 -3.806 -3.792 -3.770 -3.737 -3.696  9.78282 15.25553 -8.40816
 3.42 3.00 -3.684 -3.671 -3.652 -3.622 -3.584  9.99242 15.53007 -8.13354
 3.42 3.20 -3.594 -3.583 -3.566 -3.539 -3.504 10.15785 15.75144 -7.91214
 3.42 3.40 -3.513 -3.503 -3.488 -3.464 -3.431 10.32065 15.97282 -7.69074
 3.42 3.60 -3.438 -3.431 -3.417 -3.395 -3.366 10.47827 16.19329 -7.47027
 3.42 3.80 -3.372 -3.365 -3.354 -3.334 -3.308 10.62832 16.41156 -7.25205
 3.42 4.00 -3.312 -3.307 -3.298 -3.281 -3.257 10.77254 16.62808 -7.03560
 3.42 4.20 -3.263 -3.259 -3.250 -3.234 -3.212 10.90985 16.84171 -6.82197
 3.42 4.40 -3.217 -3.213 -3.206 -3.191 -3.169 11.04311 17.05332 -6.61034
 3.42 4.60 -3.175 -3.172 -3.164 -3.151 -3.131 11.17231 17.26290 -6.40075
 3.42 4.80 -3.136 -3.132 -3.126 -3.112 -3.093 11.29920 17.47087 -6.19279
 3.42 5.00 -3.096 -3.092 -3.086 -3.074 -3.055 11.42439 17.67733 -5.98632
 3.42 5.20 -3.055 -3.052 -3.045 -3.034 -3.016 11.54860 17.88243 -5.78119
 3.42 5.40 -3.011 -3.009 -3.003 -2.991 -2.973 11.67194 18.08661 -5.57698
 3.42 5.60 -2.964 -2.961 -2.956 -2.945 -2.928 11.79467 18.28996 -5.37360
 3.42 5.80 -2.914 -2.911 -2.906 -2.896 -2.880 11.91673 18.49274 -5.17080
 3.42 6.00 -2.860 -2.858 -2.852 -2.843 -2.828 12.03783 18.69496 -4.96859
 3.42 6.25 -2.789 -2.786 -2.782 -2.773 -2.759 12.18654 18.94707 -4.71660
 3.42 6.50 -2.713 -2.711 -2.707 -2.699 -2.685 12.33244 19.19866 -4.46509
 3.42 6.75 -2.635 -2.632 -2.628 -2.621 -2.609 12.47480 19.44982 -4.21389
 3.42 7.00 -2.553 -2.551 -2.548 -2.541 -2.530 12.61405 19.70070 -3.96297
 3.42 7.25 -2.470 -2.469 -2.465 -2.459 -2.449 12.75018 19.95141 -3.71232
 3.42 7.50 -2.387 -2.385 -2.383 -2.377 -2.368 12.88372 20.20194 -3.46180
 3.42 7.75 -2.304 -2.302 -2.299 -2.294 -2.286 13.01513 20.45231 -3.21135
 3.42 8.00 -2.221 -2.220 -2.217 -2.212 -2.205 13.14426 20.70252 -2.96098
 3.44-2.00 -4.330 -4.324 -4.312 -4.292 -4.266  6.36903 10.41929-13.24435
 3.44-1.50 -4.405 -4.398 -4.385 -4.363 -4.333  6.74788 10.91934-12.74425
 3.44-1.00 -4.491 -4.483 -4.469 -4.443 -4.408  7.09761 11.41946-12.24428
 3.44-0.50 -4.569 -4.560 -4.543 -4.514 -4.474  7.42797 11.91939-11.74425
 3.44 0.00 -4.617 -4.606 -4.585 -4.551 -4.507  7.75397 12.41946-11.24420
 3.44 0.50 -4.610 -4.597 -4.575 -4.535 -4.484  8.09307 12.91960-10.74401
 3.44 1.00 -4.530 -4.515 -4.490 -4.446 -4.389  8.45969 13.42012-10.24352
 3.44 1.25 -4.454 -4.439 -4.413 -4.369 -4.311  8.65429 13.67073 -9.99299
 3.44 1.50 -4.356 -4.340 -4.314 -4.271 -4.212  8.85266 13.92174 -9.74208
 3.44 1.75 -4.233 -4.219 -4.194 -4.150 -4.093  9.05390 14.17355 -9.49021
 3.44 2.00 -4.095 -4.080 -4.056 -4.014 -3.960  9.25624 14.42651 -9.23710
 3.44 2.25 -3.944 -3.929 -3.906 -3.867 -3.817  9.45894 14.68178 -8.98184
 3.44 2.50 -3.787 -3.773 -3.752 -3.716 -3.669  9.66257 14.93992 -8.72377
 3.44 2.75 -3.633 -3.621 -3.601 -3.569 -3.527  9.86786 15.20302 -8.46069
 3.44 3.00 -3.484 -3.474 -3.456 -3.427 -3.390 10.07445 15.47056 -8.19314
 3.44 3.20 -3.375 -3.365 -3.350 -3.324 -3.289 10.24116 15.68936 -7.97421
 3.44 3.40 -3.272 -3.264 -3.250 -3.227 -3.196 10.40787 15.90921 -7.75430
 3.44 3.60 -3.178 -3.171 -3.159 -3.139 -3.111 10.57338 16.13013 -7.53341
 3.44 3.80 -3.092 -3.086 -3.076 -3.059 -3.035 10.73524 16.35133 -7.31227
 3.44 4.00 -3.015 -3.010 -3.003 -2.987 -2.965 10.89382 16.57252 -7.09114
 3.44 4.20 -2.950 -2.947 -2.939 -2.925 -2.905 11.04438 16.79084 -6.87294
 3.44 4.40 -2.893 -2.890 -2.883 -2.871 -2.852 11.18927 17.00718 -6.65668
 3.44 4.60 -2.843 -2.840 -2.834 -2.822 -2.805 11.32787 17.22117 -6.44269
 3.44 4.80 -2.799 -2.796 -2.791 -2.780 -2.763 11.46152 17.43284 -6.23094
 3.44 5.00 -2.759 -2.756 -2.750 -2.740 -2.724 11.59129 17.64256 -6.02113
 3.44 5.20 -2.720 -2.716 -2.712 -2.702 -2.687 11.71777 17.85052 -5.81319
 3.44 5.40 -2.680 -2.678 -2.673 -2.663 -2.648 11.84248 18.05710 -5.60665
 3.44 5.60 -2.640 -2.637 -2.633 -2.623 -2.609 11.96575 18.26229 -5.40150
 3.44 5.80 -2.596 -2.593 -2.589 -2.581 -2.567 12.08806 18.46650 -5.19732
 3.44 6.00 -2.550 -2.548 -2.544 -2.535 -2.523 12.20925 18.66988 -4.99396
 3.44 6.25 -2.488 -2.486 -2.482 -2.474 -2.462 12.35958 18.92324 -4.74058
 3.44 6.50 -2.421 -2.418 -2.415 -2.408 -2.397 12.50799 19.17580 -4.48798
 3.44 6.75 -2.349 -2.347 -2.344 -2.337 -2.327 12.65383 19.42766 -4.23607
 3.44 7.00 -2.274 -2.273 -2.269 -2.264 -2.253 12.79692 19.67907 -3.98464
 3.44 7.25 -2.197 -2.195 -2.192 -2.187 -2.178 12.93659 19.93016 -3.73360
 3.44 7.50 -2.118 -2.116 -2.114 -2.108 -2.101 13.07335 20.18099 -3.48280
 3.44 7.75 -2.038 -2.037 -2.034 -2.029 -2.022 13.20747 20.43163 -3.23217
 3.44 8.00 -1.958 -1.957 -1.954 -1.951 -1.944 13.33885 20.68206 -2.98172
 3.46-2.00 -4.223 -4.217 -4.207 -4.188 -4.163  6.46864 10.39933-13.26440
 3.46-1.50 -4.270 -4.263 -4.251 -4.229 -4.201  6.88913 10.89927-12.76447
 3.46-1.00 -4.328 -4.321 -4.307 -4.283 -4.250  7.27944 11.39933-12.26432
 3.46-0.50 -4.389 -4.380 -4.364 -4.336 -4.298  7.63859 11.89933-11.76447
 3.46 0.00 -4.431 -4.422 -4.403 -4.370 -4.326  7.97382 12.39933-11.26432
 3.46 0.50 -4.433 -4.420 -4.399 -4.360 -4.309  8.29863 12.89944-10.76422
 3.46 1.00 -4.371 -4.357 -4.332 -4.290 -4.231  8.62941 13.39967-10.26400
 3.46 1.25 -4.309 -4.294 -4.269 -4.224 -4.164  8.80259 13.64991-10.01380
 3.46 1.50 -4.223 -4.208 -4.183 -4.137 -4.077  8.98173 13.90031 -9.76346
 3.46 1.75 -4.111 -4.097 -4.072 -4.028 -3.968  9.16869 14.15111 -9.51267
 3.46 2.00 -3.979 -3.965 -3.941 -3.898 -3.841  9.36078 14.40243 -9.26130
 3.46 2.25 -3.826 -3.813 -3.792 -3.752 -3.698  9.55722 14.65471 -9.00897
 3.46 2.50 -3.663 -3.652 -3.632 -3.596 -3.548  9.75648 14.90838 -8.75523
 3.46 2.75 -3.496 -3.485 -3.467 -3.435 -3.392  9.95762 15.16488 -8.49875
 3.46 3.00 -3.329 -3.319 -3.303 -3.276 -3.237 10.16077 15.42472 -8.23898
 3.46 3.20 -3.200 -3.191 -3.177 -3.153 -3.118 10.32511 15.63659 -8.02709
 3.46 3.40 -3.077 -3.069 -3.057 -3.036 -3.005 10.49000 15.85127 -7.81240
 3.46 3.60 -2.963 -2.956 -2.945 -2.926 -2.900 10.65545 16.06997 -7.59368
 3.46 3.80 -2.857 -2.852 -2.844 -2.827 -2.804 10.82107 16.29059 -7.37305
 3.46 4.00 -2.761 -2.757 -2.750 -2.736 -2.716 10.98668 16.51122 -7.15243
 3.46 4.20 -2.678 -2.674 -2.668 -2.656 -2.638 11.14773 16.73181 -6.93183
 3.46 4.40 -2.604 -2.602 -2.595 -2.584 -2.569 11.30480 16.95234 -6.71128
 3.46 4.60 -2.540 -2.537 -2.532 -2.523 -2.508 11.45629 17.17141 -6.49220
 3.46 4.80 -2.484 -2.483 -2.477 -2.469 -2.454 11.60112 17.38751 -6.27613
 3.46 5.00 -2.435 -2.433 -2.429 -2.420 -2.406 11.74052 17.60152 -6.06213
 3.46 5.20 -2.391 -2.390 -2.385 -2.377 -2.364 11.87404 17.81298 -5.85058
 3.46 5.40 -2.351 -2.349 -2.345 -2.336 -2.325 12.00389 18.02263 -5.64087
 3.46 5.60 -2.312 -2.309 -2.306 -2.298 -2.286 12.13015 18.23052 -5.43300
 3.46 5.80 -2.272 -2.270 -2.266 -2.259 -2.247 12.25420 18.43707 -5.22654
 3.46 6.00 -2.232 -2.229 -2.227 -2.220 -2.208 12.37640 18.64237 -5.02132
 3.46 6.25 -2.178 -2.176 -2.173 -2.166 -2.156 12.52762 18.89747 -4.76621
 3.46 6.50 -2.120 -2.118 -2.115 -2.109 -2.099 12.67688 19.15137 -4.51230
 3.46 6.75 -2.057 -2.056 -2.053 -2.047 -2.038 12.82453 19.40433 -4.25934
 3.46 7.00 -1.991 -1.989 -1.987 -1.981 -1.972 12.97002 19.65658 -4.00709
 3.46 7.25 -1.921 -1.919 -1.917 -1.911 -1.904 13.11271 19.90828 -3.75544
 3.46 7.50 -1.848 -1.846 -1.844 -1.839 -1.832 13.25261 20.15957 -3.50418
 3.46 7.75 -1.773 -1.771 -1.770 -1.766 -1.758 13.38946 20.41057 -3.25318
 3.46 8.00 -1.698 -1.697 -1.694 -1.691 -1.684 13.52336 20.66124 -3.00248
 3.48-2.00 -4.160 -4.155 -4.144 -4.127 -4.104  6.51402 10.37894-13.28475
 3.48-1.50 -4.177 -4.171 -4.160 -4.139 -4.113  6.97137 10.87892-12.78463
 3.48-1.00 -4.207 -4.200 -4.186 -4.163 -4.131  7.40157 11.37894-12.28467
 3.48-0.50 -4.240 -4.231 -4.215 -4.188 -4.151  7.80223 11.87898-11.78463
 3.48 0.00 -4.258 -4.247 -4.229 -4.197 -4.153  8.17085 12.37912-11.28467
 3.48 0.50 -4.243 -4.232 -4.210 -4.174 -4.123  8.51188 12.87904-10.78463
 3.48 1.00 -4.180 -4.167 -4.143 -4.101 -4.044  8.83740 13.37912-10.28450
 3.48 1.25 -4.123 -4.109 -4.085 -4.040 -3.981  9.00013 13.62924-10.03443
 3.48 1.50 -4.047 -4.033 -4.007 -3.963 -3.902  9.16286 13.87944 -9.78436
 3.48 1.75 -3.948 -3.933 -3.908 -3.864 -3.805  9.33112 14.12980 -9.53399
 3.48 2.00 -3.828 -3.815 -3.790 -3.747 -3.689  9.50420 14.38039 -9.28333
 3.48 2.25 -3.688 -3.675 -3.654 -3.613 -3.559  9.68433 14.63135 -9.03231
 3.48 2.50 -3.533 -3.522 -3.501 -3.465 -3.415  9.87011 14.88292 -8.78068
 3.48 2.75 -3.367 -3.357 -3.339 -3.306 -3.262 10.06144 15.13592 -8.52771
 3.48 3.00 -3.195 -3.187 -3.171 -3.143 -3.103 10.25696 15.39076 -8.27295
 3.48 3.20 -3.057 -3.049 -3.036 -3.010 -2.976 10.41585 15.59696 -8.06679
 3.48 3.40 -2.921 -2.914 -2.902 -2.881 -2.851 10.57668 15.80557 -7.85821
 3.48 3.60 -2.790 -2.785 -2.774 -2.756 -2.730 10.74012 16.01745 -7.64628
 3.48 3.80 -2.667 -2.661 -2.653 -2.637 -2.615 10.90471 16.23272 -7.43093
 3.48 4.00 -2.550 -2.546 -2.539 -2.526 -2.508 11.06930 16.45056 -7.21304
 3.48 4.20 -2.449 -2.445 -2.439 -2.428 -2.411 11.23363 16.67189 -6.99180
 3.48 4.40 -2.356 -2.353 -2.349 -2.339 -2.324 11.39751 16.89322 -6.77057
 3.48 4.60 -2.275 -2.273 -2.268 -2.259 -2.246 11.55890 17.11422 -6.54964
 3.48 4.80 -2.204 -2.201 -2.197 -2.190 -2.177 11.71474 17.33409 -6.32973
 3.48 5.00 -2.141 -2.139 -2.135 -2.128 -2.116 11.86605 17.55291 -6.11081
 3.48 5.20 -2.087 -2.084 -2.081 -2.074 -2.063 12.01020 17.76873 -5.89501
 3.48 5.40 -2.037 -2.036 -2.033 -2.026 -2.016 12.14916 17.98243 -5.68133
 3.48 5.60 -1.994 -1.992 -1.989 -1.982 -1.972 12.28264 18.19387 -5.46989
 3.48 5.80 -1.953 -1.951 -1.948 -1.942 -1.933 12.41200 18.40334 -5.26040
 3.48 6.00 -1.914 -1.911 -1.909 -1.903 -1.894 12.53794 18.61109 -5.05262
 3.48 6.25 -1.865 -1.863 -1.860 -1.855 -1.846 12.69172 18.86864 -4.79500
 3.48 6.50 -1.814 -1.812 -1.809 -1.804 -1.796 12.84255 19.12450 -4.53910
 3.48 6.75 -1.760 -1.758 -1.755 -1.750 -1.742 12.99137 19.37907 -4.28456
 3.48 7.00 -1.702 -1.701 -1.698 -1.693 -1.686 13.13799 19.63256 -4.03110
 3.48 7.25 -1.641 -1.639 -1.637 -1.632 -1.625 13.28265 19.88510 -3.77858
 3.48 7.50 -1.576 -1.575 -1.572 -1.567 -1.561 13.42488 20.13704 -3.52666
 3.48 7.75 -1.508 -1.507 -1.505 -1.500 -1.494 13.56411 20.38859 -3.27510
 3.48 8.00 -1.439 -1.438 -1.436 -1.431 -1.426 13.70053 20.63969 -3.02397
 3.50-2.00 -4.132 -4.127 -4.119 -4.105 -4.087  6.51812 10.35927-13.30452
 3.50-1.50 -4.126 -4.120 -4.109 -4.092 -4.068  7.00217 10.85920-12.80438
 3.50-1.00 -4.128 -4.121 -4.108 -4.085 -4.056  7.46657 11.35927-12.30443
 3.50-0.50 -4.132 -4.123 -4.108 -4.082 -4.045  7.90390 11.85926-11.80438
 3.50 0.00 -4.120 -4.109 -4.092 -4.061 -4.017  8.31197 12.35927-11.30434
 3.50 0.50 -4.075 -4.063 -4.042 -4.005 -3.956  8.68744 12.85932-10.80438
 3.50 1.00 -3.988 -3.975 -3.952 -3.911 -3.855  9.03342 13.35946-10.30426
 3.50 1.25 -3.926 -3.912 -3.888 -3.845 -3.787  9.19789 13.60948-10.05419
 3.50 1.50 -3.849 -3.835 -3.811 -3.767 -3.708  9.36059 13.85950 -9.80410
 3.50 1.75 -3.753 -3.740 -3.716 -3.673 -3.615  9.52200 14.10970 -9.55396
 3.50 2.00 -3.642 -3.629 -3.607 -3.565 -3.509  9.68341 14.36002 -9.30373
 3.50 2.25 -3.515 -3.503 -3.480 -3.441 -3.388  9.84857 14.61045 -9.05325
 3.50 2.50 -3.373 -3.362 -3.342 -3.306 -3.257 10.01745 14.86112 -8.80244
 3.50 2.75 -3.220 -3.209 -3.192 -3.159 -3.115 10.19265 15.11247 -8.55108
 3.50 3.00 -3.056 -3.048 -3.032 -3.003 -2.964 10.37346 15.36474 -8.29886
 3.50 3.20 -2.921 -2.913 -2.899 -2.874 -2.839 10.52253 15.56779 -8.09588
 3.50 3.40 -2.783 -2.776 -2.764 -2.742 -2.713 10.67496 15.77234 -7.89141
 3.50 3.60 -2.646 -2.640 -2.629 -2.611 -2.585 10.83093 15.97892 -7.68488
 3.50 3.80 -2.511 -2.506 -2.497 -2.482 -2.460 10.98967 16.18845 -7.47534
 3.50 4.00 -2.381 -2.377 -2.369 -2.356 -2.339 11.15076 16.40071 -7.26305
 3.50 4.20 -2.261 -2.258 -2.252 -2.241 -2.225 11.31480 16.61733 -7.04639
 3.50 4.40 -2.150 -2.148 -2.142 -2.133 -2.119 11.47884 16.83587 -6.82783
 3.50 4.60 -2.050 -2.048 -2.043 -2.036 -2.023 11.64242 17.05663 -6.60708
 3.50 4.80 -1.962 -1.960 -1.957 -1.949 -1.938 11.80426 17.27816 -6.38557
 3.50 5.00 -1.883 -1.881 -1.878 -1.871 -1.860 11.96440 17.49969 -6.16406
 3.50 5.20 -1.814 -1.813 -1.809 -1.803 -1.793 12.11852 17.71905 -5.94466
 3.50 5.40 -1.753 -1.752 -1.749 -1.743 -1.734 12.26770 17.93673 -5.72694
 3.50 5.60 -1.700 -1.698 -1.695 -1.690 -1.681 12.41106 18.15228 -5.51137
 3.50 5.80 -1.651 -1.651 -1.648 -1.642 -1.634 12.54866 18.36545 -5.29823
 3.50 6.00 -1.609 -1.607 -1.605 -1.599 -1.592 12.68142 18.57657 -5.08714
 3.50 6.25 -1.559 -1.556 -1.555 -1.549 -1.542 12.84105 18.83760 -4.82613
 3.50 6.50 -1.510 -1.508 -1.506 -1.502 -1.494 12.99585 19.09621 -4.56751
 3.50 6.75 -1.461 -1.460 -1.458 -1.453 -1.446 13.14698 19.35274 -4.31096
 3.50 7.00 -1.411 -1.410 -1.408 -1.402 -1.396 13.29513 19.60778 -4.05591
 3.50 7.25 -1.358 -1.356 -1.354 -1.350 -1.343 13.44109 19.86166 -3.80207
 3.50 7.50 -1.301 -1.299 -1.298 -1.293 -1.288 13.58456 20.11461 -3.54914
 3.50 7.75 -1.242 -1.240 -1.238 -1.234 -1.228 13.72550 20.36687 -3.29686
 3.50 8.00 -1.180 -1.178 -1.176 -1.173 -1.166 13.86392 20.61836 -3.04532
 3.52-2.00 -4.115 -4.113 -4.107 -4.097 -4.085  6.50745 10.33905-13.32450
 3.52-1.50 -4.104 -4.100 -4.092 -4.078 -4.061  7.00087 10.83916-12.82449
 3.52-1.00 -4.088 -4.082 -4.071 -4.052 -4.026  7.48770 11.33925-12.32450
 3.52-0.50 -4.066 -4.057 -4.043 -4.019 -3.986  7.95789 11.83923-11.82449
 3.52 0.00 -4.025 -4.015 -3.999 -3.968 -3.928  8.40192 12.33925-11.32440
 3.52 0.50 -3.947 -3.936 -3.916 -3.880 -3.832  8.81624 12.83929-10.82449
 3.52 1.00 -3.826 -3.812 -3.790 -3.749 -3.695  9.19838 13.33945-10.32431
 3.52 1.25 -3.748 -3.735 -3.711 -3.670 -3.613  9.37697 13.58943-10.07426
 3.52 1.50 -3.659 -3.646 -3.622 -3.579 -3.522  9.54913 13.83942 -9.82420
 3.52 1.75 -3.557 -3.544 -3.521 -3.480 -3.423  9.71507 14.08950 -9.57413
 3.52 2.00 -3.444 -3.432 -3.410 -3.370 -3.315  9.87812 14.33965 -9.32404
 3.52 2.25 -3.320 -3.309 -3.287 -3.250 -3.198 10.03866 14.58985 -9.07388
 3.52 2.50 -3.187 -3.176 -3.157 -3.123 -3.075 10.19921 14.84017 -8.82362
 3.52 2.75 -3.044 -3.035 -3.017 -2.986 -2.943 10.36219 15.09079 -8.57294
 3.52 3.00 -2.895 -2.886 -2.871 -2.843 -2.805 10.52789 15.34183 -8.32176
 3.52 3.20 -2.769 -2.760 -2.747 -2.722 -2.688 10.66446 15.54328 -8.12031
 3.52 3.40 -2.639 -2.632 -2.620 -2.599 -2.568 10.80447 15.74553 -7.91811
 3.52 3.60 -2.505 -2.500 -2.489 -2.470 -2.444 10.94830 15.94884 -7.71485
 3.52 3.80 -2.371 -2.366 -2.357 -2.342 -2.319 11.09624 16.15405 -7.50964
 3.52 4.00 -2.237 -2.233 -2.226 -2.212 -2.194 11.24797 16.36116 -7.30251
 3.52 4.20 -2.108 -2.104 -2.097 -2.087 -2.071 11.40427 16.57168 -7.09198
 3.52 4.40 -1.983 -1.980 -1.975 -1.965 -1.952 11.56304 16.78506 -6.87859
 3.52 4.60 -1.867 -1.865 -1.860 -1.852 -1.840 11.72476 17.00247 -6.66122
 3.52 4.80 -1.761 -1.760 -1.755 -1.748 -1.737 11.88757 17.22229 -6.44146
 3.52 5.00 -1.664 -1.662 -1.659 -1.653 -1.642 12.05038 17.44279 -6.22098
 3.52 5.20 -1.579 -1.578 -1.575 -1.569 -1.561 12.21038 17.66376 -6.00002
 3.52 5.40 -1.503 -1.503 -1.500 -1.494 -1.486 12.36759 17.88472 -5.77906
 3.52 5.60 -1.438 -1.436 -1.434 -1.429 -1.421 12.52055 18.10444 -5.55932
 3.52 5.80 -1.378 -1.378 -1.375 -1.370 -1.362 12.66757 18.32143 -5.34230
 3.52 6.00 -1.326 -1.326 -1.323 -1.319 -1.311 12.80949 18.53643 -5.12726
 3.52 6.25 -1.269 -1.268 -1.266 -1.261 -1.254 12.97845 18.80157 -4.86212
 3.52 6.50 -1.218 -1.217 -1.214 -1.210 -1.203 13.14051 19.06371 -4.59998
 3.52 6.75 -1.170 -1.168 -1.166 -1.162 -1.156 13.29646 19.32314 -4.34052
 3.52 7.00 -1.123 -1.122 -1.119 -1.115 -1.109 13.44793 19.58047 -4.08318
 3.52 7.25 -1.076 -1.074 -1.072 -1.068 -1.062 13.59599 19.83601 -3.82770
 3.52 7.50 -1.026 -1.025 -1.023 -1.018 -1.013 13.74092 20.09026 -3.57349
 3.52 7.75 -0.974 -0.974 -0.971 -0.967 -0.961 13.88326 20.34361 -3.32012
 3.52 8.00 -0.921 -0.919 -0.918 -0.914 -0.908 14.02284 20.59594 -3.06773
 3.54-2.00 -4.086 -4.083 -4.080 -4.074 -4.065  6.50840 10.31911-13.34457
 3.54-1.50 -4.087 -4.084 -4.078 -4.069 -4.057  6.99207 10.81908-12.84466
 3.54-1.00 -4.071 -4.068 -4.059 -4.045 -4.027  7.48345 11.31911-12.34448
 3.54-0.50 -4.037 -4.031 -4.019 -3.999 -3.972  7.97165 11.81915-11.84466
 3.54 0.00 -3.974 -3.965 -3.950 -3.923 -3.885  8.44592 12.31931-11.34448
 3.54 0.50 -3.867 -3.855 -3.837 -3.802 -3.757  8.89509 12.81928-10.84436
 3.54 1.00 -3.708 -3.695 -3.674 -3.634 -3.582  9.31450 13.31931-10.34438
 3.54 1.25 -3.612 -3.599 -3.576 -3.536 -3.480  9.51199 13.56933-10.09438
 3.54 1.50 -3.504 -3.491 -3.468 -3.426 -3.371  9.70140 13.81935 -9.84436
 3.54 1.75 -3.388 -3.375 -3.352 -3.312 -3.256  9.88221 14.06943 -9.59428
 3.54 2.00 -3.263 -3.251 -3.229 -3.189 -3.136 10.05614 14.31952 -9.34419
 3.54 2.25 -3.132 -3.120 -3.101 -3.063 -3.014 10.22331 14.56962 -9.09412
 3.54 2.50 -2.996 -2.985 -2.966 -2.933 -2.887 10.38686 14.81974 -8.84406
 3.54 2.75 -2.855 -2.846 -2.829 -2.799 -2.757 10.54704 15.07004 -8.59373
 3.54 3.00 -2.713 -2.704 -2.689 -2.662 -2.625 10.70723 15.32056 -8.34314
 3.54 3.20 -2.593 -2.586 -2.573 -2.548 -2.515 10.83625 15.52125 -8.14245
 3.54 3.40 -2.472 -2.465 -2.454 -2.432 -2.403 10.96635 15.72233 -7.94140
 3.54 3.60 -2.348 -2.342 -2.332 -2.313 -2.287 11.09857 15.92394 -7.73981
 3.54 3.80 -2.221 -2.216 -2.207 -2.191 -2.168 11.23455 16.12662 -7.53712
 3.54 4.00 -2.093 -2.089 -2.081 -2.068 -2.048 11.37383 16.33042 -7.33330
 3.54 4.20 -1.964 -1.961 -1.954 -1.943 -1.926 11.51772 16.53632 -7.12741
 3.54 4.40 -1.837 -1.834 -1.828 -1.819 -1.804 11.66566 16.74459 -6.91917
 3.54 4.60 -1.713 -1.711 -1.706 -1.697 -1.685 11.81865 16.95606 -6.70769
 3.54 4.80 -1.595 -1.592 -1.589 -1.582 -1.571 11.97522 17.17095 -6.49277
 3.54 5.00 -1.483 -1.482 -1.477 -1.471 -1.461 12.13386 17.38846 -6.27523
 3.54 5.20 -1.382 -1.381 -1.378 -1.372 -1.363 12.29443 17.60962 -6.05410
 3.54 5.40 -1.291 -1.289 -1.286 -1.282 -1.273 12.45501 17.83078 -5.83296
 3.54 5.60 -1.209 -1.208 -1.206 -1.201 -1.193 12.61388 18.05170 -5.61204
 3.54 5.80 -1.138 -1.137 -1.134 -1.130 -1.122 12.76831 18.27175 -5.39196
 3.54 6.00 -1.074 -1.073 -1.070 -1.066 -1.059 12.91908 18.49094 -5.17270
 3.54 6.25 -1.005 -1.004 -1.002 -0.998 -0.991 13.09869 18.76080 -4.90289
 3.54 6.50 -0.946 -0.944 -0.942 -0.938 -0.932 13.27045 19.02735 -4.63639
 3.54 6.75 -0.893 -0.891 -0.890 -0.886 -0.880 13.43402 19.29027 -4.37342
 3.54 7.00 -0.845 -0.844 -0.842 -0.838 -0.832 13.59129 19.55047 -4.11317
 3.54 7.25 -0.799 -0.798 -0.796 -0.792 -0.786 13.74309 19.80836 -3.85535
 3.54 7.50 -0.755 -0.753 -0.752 -0.747 -0.742 13.89059 20.06446 -3.59929
 3.54 7.75 -0.709 -0.708 -0.706 -0.702 -0.696 14.03485 20.31927 -3.34446
 3.54 8.00 -0.662 -0.661 -0.659 -0.655 -0.649 14.17551 20.57264 -3.09103
 3.56-2.00 -4.000 -3.998 -3.996 -3.991 -3.985  6.57345 10.29907-13.36462
 3.56-1.50 -4.043 -4.040 -4.036 -4.030 -4.021  7.01030 10.79900-12.86455
 3.56-1.00 -4.049 -4.047 -4.041 -4.031 -4.019  7.48058 11.29907-12.36462
 3.56-0.50 -4.026 -4.021 -4.012 -3.998 -3.978  7.96689 11.79906-11.86455
 3.56 0.00 -3.960 -3.954 -3.941 -3.919 -3.890  8.45485 12.29907-11.36462
 3.56 0.50 -3.834 -3.825 -3.807 -3.777 -3.737  8.93141 12.79913-10.86455
 3.56 1.00 -3.641 -3.629 -3.609 -3.572 -3.523  9.38453 13.29929-10.36452
 3.56 1.25 -3.526 -3.513 -3.491 -3.453 -3.401  9.60001 13.54925-10.11453
 3.56 1.50 -3.398 -3.385 -3.362 -3.323 -3.269  9.80767 13.79920 -9.86455
 3.56 1.75 -3.262 -3.249 -3.228 -3.189 -3.135 10.00699 14.04924 -9.61443
 3.56 2.00 -3.121 -3.108 -3.087 -3.049 -2.997 10.19811 14.29929 -9.36432
 3.56 2.25 -2.975 -2.963 -2.944 -2.908 -2.859 10.38049 14.54934 -9.11427
 3.56 2.50 -2.827 -2.816 -2.798 -2.766 -2.720 10.55570 14.79941 -8.86423
 3.56 2.75 -2.679 -2.670 -2.654 -2.623 -2.583 10.72381 15.04962 -8.61408
 3.56 3.00 -2.532 -2.523 -2.509 -2.482 -2.446 10.88779 15.29994 -8.36381
 3.56 3.20 -2.414 -2.405 -2.393 -2.369 -2.336 11.01573 15.50027 -8.16349
 3.56 3.40 -2.294 -2.288 -2.276 -2.255 -2.226 11.14367 15.70076 -7.96297
 3.56 3.60 -2.174 -2.169 -2.158 -2.140 -2.114 11.27174 15.90152 -7.76219
 3.56 3.80 -2.053 -2.049 -2.040 -2.023 -2.001 11.40040 16.10291 -7.56081
 3.56 4.00 -1.931 -1.928 -1.921 -1.906 -1.886 11.52969 16.30492 -7.35882
 3.56 4.20 -1.809 -1.805 -1.799 -1.787 -1.770 11.66252 16.50806 -7.15565
 3.56 4.40 -1.685 -1.682 -1.677 -1.668 -1.652 11.79855 16.71270 -6.95094
 3.56 4.60 -1.563 -1.560 -1.556 -1.548 -1.535 11.93859 16.91937 -6.74421
 3.56 4.80 -1.442 -1.440 -1.437 -1.429 -1.418 12.08335 17.12903 -6.53453
 3.56 5.00 -1.325 -1.323 -1.319 -1.313 -1.303 12.23223 17.34144 -6.32212
 3.56 5.20 -1.214 -1.212 -1.209 -1.204 -1.194 12.38739 17.55836 -6.10525
 3.56 5.40 -1.110 -1.109 -1.106 -1.100 -1.092 12.54349 17.77711 -5.88655
 3.56 5.60 -1.015 -1.013 -1.011 -1.006 -0.998 12.70051 17.99792 -5.66576
 3.56 5.80 -0.929 -0.928 -0.925 -0.921 -0.914 12.85773 18.21941 -5.44428
 3.56 6.00 -0.852 -0.851 -0.849 -0.845 -0.838 13.01494 18.44091 -5.22279
 3.56 6.25 -0.770 -0.768 -0.766 -0.762 -0.756 13.20335 18.71478 -4.94895
 3.56 6.50 -0.698 -0.697 -0.694 -0.691 -0.685 13.38507 18.98597 -4.67778
 3.56 6.75 -0.637 -0.636 -0.633 -0.630 -0.623 13.55778 19.25310 -4.41060
 3.56 7.00 -0.584 -0.582 -0.581 -0.576 -0.571 13.72296 19.51707 -4.14661
 3.56 7.25 -0.535 -0.535 -0.533 -0.528 -0.522 13.88072 19.77805 -3.88577
 3.56 7.50 -0.491 -0.490 -0.488 -0.484 -0.479 14.03262 20.03663 -3.62727
 3.56 7.75 -0.449 -0.447 -0.445 -0.442 -0.435 14.17993 20.29330 -3.37052
 3.56 8.00 -0.407 -0.406 -0.404 -0.400 -0.394 14.32222 20.54790 -3.11572
 3.58-2.00 -3.820 -3.819 -3.816 -3.812 -3.807  6.75709 10.27898-13.38468
 3.58-1.50 -3.923 -3.921 -3.918 -3.912 -3.906  7.11826 10.77902-12.88472
 3.58-1.00 -3.984 -3.981 -3.977 -3.970 -3.960  7.52505 11.27898-12.38458
 3.58-0.50 -3.996 -3.993 -3.986 -3.977 -3.963  7.97529 11.77902-11.88472
 3.58 0.00 -3.952 -3.947 -3.939 -3.923 -3.903  8.45255 12.27898-11.38458
 3.58 0.50 -3.834 -3.827 -3.813 -3.790 -3.760  8.93782 12.77909-10.88472
 3.58 1.00 -3.626 -3.615 -3.598 -3.567 -3.525  9.41514 13.27921-10.38458
 3.58 1.25 -3.492 -3.482 -3.463 -3.429 -3.384  9.64600 13.52919-10.13448
 3.58 1.50 -3.345 -3.333 -3.312 -3.276 -3.228  9.87052 13.77916 -9.88439
 3.58 1.75 -3.189 -3.178 -3.156 -3.121 -3.072 10.08708 14.02918 -9.63443
 3.58 2.00 -3.026 -3.015 -2.995 -2.958 -2.909 10.29579 14.27921 -9.38447
 3.58 2.25 -2.863 -2.852 -2.832 -2.798 -2.752 10.49610 14.52925 -9.13446
 3.58 2.50 -2.698 -2.688 -2.670 -2.637 -2.594 10.68815 14.77931 -8.88439
 3.58 2.75 -2.536 -2.527 -2.510 -2.481 -2.442 10.87140 15.02946 -8.63426
 3.58 3.00 -2.377 -2.368 -2.354 -2.327 -2.291 11.04727 15.27967 -8.38405
 3.58 3.20 -2.252 -2.245 -2.231 -2.207 -2.174 11.18243 15.47984 -8.18385
 3.58 3.40 -2.128 -2.122 -2.110 -2.089 -2.059 11.31475 15.68005 -7.98356
 3.58 3.60 -2.007 -2.000 -1.990 -1.970 -1.944 11.44371 15.88040 -7.78317
 3.58 3.80 -1.885 -1.879 -1.871 -1.854 -1.831 11.57143 16.08112 -7.58250
 3.58 4.00 -1.764 -1.760 -1.753 -1.737 -1.717 11.69914 16.28217 -7.38153
 3.58 4.20 -1.644 -1.640 -1.634 -1.621 -1.602 11.82705 16.48380 -7.17992
 3.58 4.40 -1.524 -1.520 -1.515 -1.504 -1.488 11.95529 16.68631 -6.97741
 3.58 4.60 -1.405 -1.401 -1.396 -1.388 -1.373 12.08522 16.89000 -6.77370
 3.58 4.80 -1.286 -1.283 -1.280 -1.271 -1.259 12.21901 17.09578 -6.56790
 3.58 5.00 -1.168 -1.167 -1.163 -1.156 -1.145 12.35603 17.30363 -6.36002
 3.58 5.20 -1.054 -1.053 -1.050 -1.044 -1.034 12.49848 17.51514 -6.14850
 3.58 5.40 -0.945 -0.944 -0.941 -0.936 -0.926 12.64480 17.72949 -5.93417
 3.58 5.60 -0.842 -0.840 -0.838 -0.833 -0.825 12.79650 17.94783 -5.71581
 3.58 5.80 -0.746 -0.745 -0.743 -0.738 -0.730 12.95066 18.16822 -5.49542
 3.58 6.00 -0.658 -0.657 -0.655 -0.650 -0.643 13.10483 18.38881 -5.27482
 3.58 6.25 -0.561 -0.560 -0.558 -0.554 -0.548 13.29642 18.66469 -4.99895
 3.58 6.50 -0.477 -0.475 -0.473 -0.469 -0.463 13.48629 18.94057 -4.72308
 3.58 6.75 -0.404 -0.403 -0.401 -0.397 -0.391 13.66724 19.21197 -4.45171
 3.58 7.00 -0.342 -0.341 -0.339 -0.335 -0.329 13.84099 19.48015 -4.18356
 3.58 7.25 -0.288 -0.287 -0.285 -0.281 -0.275 14.00624 19.74455 -3.91911
 3.58 7.50 -0.241 -0.240 -0.237 -0.234 -0.228 14.16435 20.00604 -3.65758
 3.58 7.75 -0.198 -0.197 -0.194 -0.191 -0.184 14.31620 20.26518 -3.39842
 3.58 8.00 -0.158 -0.157 -0.155 -0.151 -0.145 14.46150 20.52179 -3.14182
 3.60-2.00 -3.563 -3.562 -3.559 -3.555 -3.549  7.03503 10.25888-13.40473
 3.60-1.50 -3.712 -3.710 -3.707 -3.703 -3.696  7.34301 10.75899-12.90483
 3.60-1.00 -3.830 -3.828 -3.825 -3.819 -3.811  7.67825 11.25912-12.40461
 3.60-0.50 -3.904 -3.901 -3.897 -3.889 -3.878  8.05461 11.75906-11.90448
 3.60 0.00 -3.912 -3.909 -3.903 -3.891 -3.875  8.47914 12.25912-11.40461
 3.60 0.50 -3.831 -3.825 -3.816 -3.799 -3.775  8.94201 12.75906-10.90448
 3.60 1.00 -3.638 -3.630 -3.616 -3.592 -3.560  9.42177 13.25912-10.40461
 3.60 1.25 -3.500 -3.491 -3.477 -3.449 -3.413  9.66059 13.50913-10.15455
 3.60 1.50 -3.341 -3.332 -3.314 -3.285 -3.245  9.89785 13.75914 -9.90448
 3.60 1.75 -3.169 -3.158 -3.141 -3.109 -3.068 10.12888 14.00913 -9.65449
 3.60 2.00 -2.986 -2.976 -2.957 -2.925 -2.882 10.35392 14.25912 -9.40450
 3.60 2.25 -2.803 -2.793 -2.774 -2.742 -2.701 10.57089 14.50920 -9.15450
 3.60 2.50 -2.618 -2.608 -2.590 -2.560 -2.519 10.77996 14.75929 -8.90448
 3.60 2.75 -2.438 -2.430 -2.413 -2.385 -2.346 10.98046 15.00932 -8.65441
 3.60 3.00 -2.262 -2.253 -2.239 -2.213 -2.177 11.17260 15.25936 -8.40428
 3.60 3.20 -2.125 -2.117 -2.104 -2.080 -2.048 11.31981 15.45946 -8.20413
 3.60 3.40 -1.992 -1.985 -1.972 -1.951 -1.920 11.46228 15.65963 -8.00391
 3.60 3.60 -1.861 -1.855 -1.844 -1.824 -1.796 11.59970 15.85987 -7.80366
 3.60 3.80 -1.734 -1.728 -1.718 -1.701 -1.676 11.73344 16.06025 -7.60331
 3.60 4.00 -1.609 -1.604 -1.595 -1.581 -1.558 11.86427 16.26079 -7.40285
 3.60 4.20 -1.486 -1.481 -1.474 -1.461 -1.441 11.99176 16.46166 -7.20196
 3.60 4.40 -1.365 -1.360 -1.355 -1.343 -1.325 12.11924 16.66302 -7.00054
 3.60 4.60 -1.244 -1.241 -1.237 -1.226 -1.210 12.24680 16.86504 -6.79849
 3.60 4.80 -1.126 -1.123 -1.119 -1.110 -1.096 12.37475 17.06835 -6.59525
 3.60 5.00 -1.009 -1.007 -1.003 -0.995 -0.984 12.50311 17.27300 -6.39073
 3.60 5.20 -0.895 -0.893 -0.890 -0.882 -0.872 12.63534 17.48013 -6.18362
 3.60 5.40 -0.783 -0.782 -0.779 -0.773 -0.763 12.77083 17.68984 -5.97390
 3.60 5.60 -0.676 -0.676 -0.673 -0.668 -0.659 12.91082 17.90310 -5.76065
 3.60 5.80 -0.576 -0.575 -0.572 -0.567 -0.559 13.05523 18.11966 -5.54412
 3.60 6.00 -0.481 -0.481 -0.478 -0.474 -0.465 13.20276 18.33846 -5.32532
 3.60 6.25 -0.374 -0.373 -0.371 -0.367 -0.359 13.39201 18.61525 -5.04846
 3.60 6.50 -0.278 -0.277 -0.275 -0.271 -0.264 13.58127 18.89204 -4.77160
 3.60 6.75 -0.195 -0.194 -0.192 -0.188 -0.181 13.76663 19.16677 -4.49686
 3.60 7.00 -0.123 -0.122 -0.119 -0.115 -0.109 13.94773 19.43933 -4.22432
 3.60 7.25 -0.061 -0.060 -0.058 -0.054 -0.047 14.12010 19.70768 -3.95604
 3.60 7.50 -0.008 -0.008 -0.005 -0.001  0.005 14.28511 19.97276 -3.69101
 3.60 7.75  0.037  0.038  0.041  0.045  0.051 14.44260 20.23486 -3.42889
 3.60 8.00  0.078  0.080  0.082  0.086  0.093 14.59262 20.49388 -3.16980
 3.62-2.00 -3.263 -3.260 -3.258 -3.254 -3.247  7.35813 10.23855-13.42516
 3.62-1.50 -3.440 -3.438 -3.436 -3.431 -3.423  7.63969 10.73878-12.92482
 3.62-1.00 -3.598 -3.595 -3.592 -3.586 -3.577  7.93349 11.23880-12.42481
 3.62-0.50 -3.722 -3.720 -3.716 -3.708 -3.698  8.24822 11.73894-11.92482
 3.62 0.00 -3.794 -3.791 -3.785 -3.776 -3.762  8.59759 12.23905-11.42470
 3.62 0.50 -3.776 -3.772 -3.765 -3.752 -3.733  8.99405 12.73902-10.92482
 3.62 1.00 -3.634 -3.628 -3.617 -3.599 -3.574  9.43712 13.23905-10.42458
 3.62 1.25 -3.510 -3.504 -3.492 -3.471 -3.443  9.67154 13.48903-10.17470
 3.62 1.50 -3.359 -3.351 -3.338 -3.314 -3.283  9.90725 13.73902 -9.92482
 3.62 1.75 -3.183 -3.174 -3.160 -3.135 -3.101 10.14373 13.98903 -9.67470
 3.62 2.00 -2.990 -2.982 -2.966 -2.940 -2.904 10.38021 14.23905 -9.42458
 3.62 2.25 -2.790 -2.782 -2.766 -2.740 -2.702 10.61043 14.48907 -9.17450
 3.62 2.50 -2.588 -2.579 -2.563 -2.536 -2.500 10.83506 14.73910 -8.92445
 3.62 2.75 -2.389 -2.381 -2.365 -2.339 -2.303 11.05172 14.98920 -8.67446
 3.62 3.00 -2.194 -2.186 -2.171 -2.146 -2.111 11.26055 15.23930 -8.42446
 3.62 3.20 -2.043 -2.035 -2.022 -1.998 -1.966 11.42132 15.43938 -8.22433
 3.62 3.40 -1.895 -1.888 -1.875 -1.854 -1.823 11.57669 15.63946 -8.02417
 3.62 3.60 -1.753 -1.745 -1.735 -1.714 -1.686 11.72631 15.83956 -7.82401
 3.62 3.80 -1.614 -1.608 -1.598 -1.579 -1.554 11.87068 16.03976 -7.62384
 3.62 4.00 -1.480 -1.474 -1.465 -1.448 -1.424 12.01030 16.24005 -7.42366
 3.62 4.20 -1.349 -1.344 -1.336 -1.321 -1.299 12.14501 16.44051 -7.22319
 3.62 4.40 -1.222 -1.217 -1.211 -1.198 -1.178 12.27692 16.64124 -7.02241
 3.62 4.60 -1.097 -1.093 -1.088 -1.076 -1.059 12.40552 16.84235 -6.82128
 3.62 4.80 -0.975 -0.973 -0.968 -0.957 -0.942 12.53291 17.04426 -6.61943
 3.62 5.00 -0.855 -0.854 -0.849 -0.840 -0.827 12.66030 17.24699 -6.41680
 3.62 5.20 -0.739 -0.738 -0.734 -0.725 -0.714 12.78810 17.45118 -6.21260
 3.62 5.40 -0.625 -0.623 -0.620 -0.613 -0.603 12.91654 17.65723 -6.00651
 3.62 5.60 -0.516 -0.514 -0.511 -0.505 -0.496 13.04710 17.86587 -5.79782
 3.62 5.80 -0.412 -0.410 -0.407 -0.402 -0.394 13.18171 18.07785 -5.58583
 3.62 6.00 -0.313 -0.312 -0.310 -0.304 -0.296 13.31952 18.29270 -5.37100
 3.62 6.25 -0.199 -0.198 -0.196 -0.191 -0.183 13.49905 18.56695 -5.09679
 3.62 6.50 -0.097 -0.095 -0.093 -0.089 -0.081 13.68097 18.84242 -4.82131
 3.62 6.75 -0.006 -0.004 -0.001  0.002  0.010 13.86471 19.11870 -4.54498
 3.62 7.00  0.075  0.076  0.079  0.083  0.090 14.04844 19.39498 -4.26865
 3.62 7.25  0.145  0.146  0.148  0.153  0.160 14.22566 19.66715 -3.99649
 3.62 7.50  0.206  0.206  0.208  0.213  0.220 14.39707 19.93621 -3.72746
 3.62 7.75  0.257  0.257  0.260  0.265  0.271 14.56006 20.20164 -3.46203
 3.62 8.00  0.300  0.302  0.304  0.309  0.316 14.71550 20.46359 -3.20004
 3.64-2.00 -2.938 -2.936 -2.933 -2.928 -2.921  7.69522 10.21801-13.44575
 3.64-1.50 -3.136 -3.134 -3.131 -3.125 -3.117  7.96332 10.71842-12.94539
 3.64-1.00 -3.318 -3.315 -3.312 -3.305 -3.296  8.23754 11.21880-12.44491
 3.64-0.50 -3.476 -3.472 -3.469 -3.461 -3.450  8.52088 11.71883-11.94500
 3.64 0.00 -3.591 -3.588 -3.582 -3.573 -3.560  8.82073 12.21906-11.44466
 3.64 0.50 -3.634 -3.630 -3.623 -3.611 -3.594  9.14860 12.71900-10.94462
 3.64 1.00 -3.560 -3.556 -3.547 -3.532 -3.510  9.51878 13.21906-10.44454
 3.64 1.25 -3.471 -3.465 -3.456 -3.438 -3.414  9.72342 13.46908-10.19458
 3.64 1.50 -3.346 -3.339 -3.329 -3.309 -3.283  9.93867 13.71908 -9.94462
 3.64 1.75 -3.188 -3.181 -3.169 -3.149 -3.120 10.16513 13.96907 -9.69458
 3.64 2.00 -3.006 -2.998 -2.986 -2.964 -2.933 10.39550 14.21906 -9.44454
 3.64 2.25 -2.806 -2.798 -2.785 -2.761 -2.730 10.62888 14.46906 -9.19458
 3.64 2.50 -2.595 -2.588 -2.574 -2.550 -2.518 10.86225 14.71908 -8.94462
 3.64 2.75 -2.383 -2.375 -2.361 -2.338 -2.305 11.09071 14.96920 -8.69452
 3.64 3.00 -2.170 -2.163 -2.149 -2.126 -2.095 11.31429 15.21932 -8.44442
 3.64 3.20 -2.006 -1.998 -1.985 -1.962 -1.932 11.48720 15.41933 -8.24435
 3.64 3.40 -1.844 -1.837 -1.825 -1.803 -1.773 11.65511 15.61933 -8.04428
 3.64 3.60 -1.687 -1.680 -1.668 -1.648 -1.619 11.81774 15.81940 -7.84420
 3.64 3.80 -1.535 -1.529 -1.518 -1.498 -1.471 11.97479 16.01960 -7.64408
 3.64 4.00 -1.387 -1.381 -1.372 -1.354 -1.329 12.12646 16.21985 -7.44394
 3.64 4.20 -1.244 -1.240 -1.231 -1.215 -1.191 12.27216 16.42011 -7.24371
 3.64 4.40 -1.107 -1.102 -1.095 -1.081 -1.059 12.41323 16.62045 -7.04333
 3.64 4.60 -0.974 -0.970 -0.963 -0.951 -0.931 12.54933 16.82098 -6.84274
 3.64 4.80 -0.845 -0.841 -0.836 -0.824 -0.807 12.68202 17.02200 -6.64166
 3.64 5.00 -0.719 -0.716 -0.711 -0.701 -0.686 12.81211 17.22350 -6.44009
 3.64 5.20 -0.597 -0.595 -0.590 -0.582 -0.568 12.93940 17.42595 -6.23769
 3.64 5.40 -0.479 -0.477 -0.473 -0.466 -0.454 13.06669 17.62966 -6.03408
 3.64 5.60 -0.365 -0.363 -0.360 -0.354 -0.343 13.19430 17.83504 -5.82874
 3.64 5.80 -0.257 -0.256 -0.252 -0.247 -0.236 13.32309 18.04305 -5.62067
 3.64 6.00 -0.154 -0.152 -0.149 -0.144 -0.134 13.45301 18.25358 -5.41005
 3.64 6.25 -0.034 -0.032 -0.031 -0.025 -0.016 13.62119 18.52242 -5.14126
 3.64 6.50  0.074  0.075  0.079  0.083  0.091 13.79358 18.79505 -4.86870
 3.64 6.75  0.172  0.174  0.176  0.181  0.189 13.97186 19.07187 -4.59188
 3.64 7.00  0.259  0.261  0.263  0.268  0.275 14.15014 19.34869 -4.31507
 3.64 7.25  0.336  0.336  0.339  0.344  0.352 14.32720 19.62367 -4.04005
 3.64 7.50  0.402  0.403  0.405  0.410  0.419 14.50243 19.89664 -3.76700
 3.64 7.75  0.458  0.460  0.463  0.467  0.475 14.66936 20.16553 -3.49810
 3.64 8.00  0.507  0.508  0.511  0.516  0.525 14.83014 20.43104 -3.23262
 3.66-2.00 -2.602 -2.600 -2.597 -2.592 -2.584  8.03423 10.19618-13.46750
 3.66-1.50 -2.816 -2.813 -2.809 -2.803 -2.794  8.29491 10.69740-12.96618
 3.66-1.00 -3.015 -3.012 -3.008 -3.000 -2.990  8.55907 11.19811-12.46547
 3.66-0.50 -3.194 -3.191 -3.186 -3.177 -3.166  8.82776 11.69853-11.96497
 3.66 0.00 -3.338 -3.334 -3.328 -3.319 -3.304  9.10380 12.19893-11.46483
 3.66 0.50 -3.418 -3.414 -3.406 -3.395 -3.378  9.39235 12.69888-10.96497
 3.66 1.00 -3.397 -3.392 -3.384 -3.369 -3.349  9.70364 13.19893-10.46471
 3.66 1.25 -3.339 -3.334 -3.326 -3.309 -3.287  9.87220 13.44899-10.21462
 3.66 1.50 -3.250 -3.244 -3.234 -3.217 -3.193 10.05115 13.69906 -9.96457
 3.66 1.75 -3.128 -3.122 -3.111 -3.092 -3.066 10.24357 13.94913 -9.71458
 3.66 2.00 -2.976 -2.970 -2.959 -2.939 -2.911 10.44747 14.19921 -9.46458
 3.66 2.25 -2.799 -2.792 -2.780 -2.760 -2.731 10.66412 14.44913 -9.21457
 3.66 2.50 -2.603 -2.596 -2.583 -2.562 -2.533 10.88717 14.69906 -8.96457
 3.66 2.75 -2.393 -2.386 -2.373 -2.352 -2.322 11.11607 14.94913 -8.71457
 3.66 3.00 -2.177 -2.170 -2.158 -2.135 -2.105 11.34498 15.19921 -8.46458
 3.66 3.20 -2.003 -1.996 -1.984 -1.962 -1.933 11.52557 15.39918 -8.26458
 3.66 3.40 -1.831 -1.824 -1.812 -1.790 -1.762 11.70362 15.59916 -8.06457
 3.66 3.60 -1.661 -1.655 -1.643 -1.622 -1.594 11.87790 15.79919 -7.86450
 3.66 3.80 -1.496 -1.490 -1.479 -1.459 -1.431 12.04668 15.99931 -7.66436
 3.66 4.00 -1.335 -1.329 -1.318 -1.299 -1.273 12.21059 16.19948 -7.46420
 3.66 4.20 -1.178 -1.173 -1.164 -1.147 -1.122 12.36872 16.39965 -7.26404
 3.66 4.40 -1.027 -1.023 -1.015 -0.999 -0.976 12.52153 16.59988 -7.06387
 3.66 4.60 -0.882 -0.877 -0.870 -0.857 -0.835 12.66863 16.80021 -6.86356
 3.66 4.80 -0.742 -0.738 -0.732 -0.720 -0.701 12.81068 17.00080 -6.66290
 3.66 5.00 -0.607 -0.604 -0.598 -0.587 -0.570 12.94827 17.20167 -6.46193
 3.66 5.20 -0.477 -0.475 -0.470 -0.460 -0.444 13.08117 17.40310 -6.26052
 3.66 5.40 -0.352 -0.350 -0.345 -0.336 -0.323 13.21190 17.60532 -6.05838
 3.66 5.60 -0.231 -0.229 -0.226 -0.218 -0.206 13.34022 17.80856 -5.85517
 3.66 5.80 -0.117 -0.116 -0.112 -0.105 -0.094 13.46775 18.01366 -5.65003
 3.66 6.00 -0.008 -0.007 -0.004  0.002  0.013 13.59528 18.22063 -5.44297
 3.66 6.25  0.118  0.119  0.123  0.128  0.138 13.75681 18.48407 -5.17965
 3.66 6.50  0.235  0.236  0.238  0.244  0.254 13.92065 18.75197 -4.91186
 3.66 6.75  0.340  0.341  0.344  0.350  0.359 14.08988 19.02621 -4.63754
 3.66 7.00  0.433  0.434  0.437  0.442  0.451 14.26126 19.30168 -4.36201
 3.66 7.25  0.513  0.515  0.517  0.524  0.532 14.43457 19.57796 -4.08570
 3.66 7.50  0.585  0.586  0.589  0.595  0.604 14.60788 19.85425 -3.80939
 3.66 7.75  0.646  0.647  0.650  0.655  0.664 14.77574 20.12635 -3.53726
 3.66 8.00  0.698  0.700  0.702  0.708  0.717 14.93997 20.39568 -3.26793
 3.68-2.00 -2.265 -2.263 -2.260 -2.254 -2.245  8.36342 10.17260-13.49120
 3.68-1.50 -2.488 -2.485 -2.482 -2.476 -2.465  8.62128 10.67532-12.98843
 3.68-1.00 -2.700 -2.697 -2.693 -2.685 -2.674  8.88036 11.17696-12.48665
 3.68-0.50 -2.895 -2.891 -2.886 -2.877 -2.864  9.14176 11.67788-11.98590
 3.68 0.00 -3.057 -3.053 -3.047 -3.036 -3.021  9.40654 12.17840-11.48519
 3.68 0.50 -3.161 -3.157 -3.150 -3.138 -3.119  9.67715 12.67870-10.98506
 3.68 1.00 -3.173 -3.168 -3.159 -3.145 -3.123  9.95794 13.17898-10.48479
 3.68 1.25 -3.135 -3.130 -3.121 -3.105 -3.082 10.10458 13.42898-10.23470
 3.68 1.50 -3.069 -3.064 -3.055 -3.037 -3.012 10.25696 13.67897 -9.98464
 3.68 1.75 -2.977 -2.970 -2.960 -2.941 -2.916 10.41738 13.92897 -9.73465
 3.68 2.00 -2.859 -2.852 -2.840 -2.821 -2.795 10.58692 14.17898 -9.48466
 3.68 2.25 -2.716 -2.709 -2.697 -2.677 -2.649 10.76842 14.42901 -9.23465
 3.68 2.50 -2.553 -2.546 -2.534 -2.514 -2.485 10.96128 14.67906 -8.98464
 3.68 2.75 -2.371 -2.364 -2.351 -2.330 -2.301 11.16768 14.92916 -8.73458
 3.68 3.00 -2.174 -2.166 -2.154 -2.132 -2.103 11.38220 15.17927 -8.48452
 3.68 3.20 -2.006 -1.998 -1.987 -1.965 -1.936 11.56052 15.37922 -8.28457
 3.68 3.40 -1.835 -1.827 -1.816 -1.794 -1.765 11.73885 15.57918 -8.08462
 3.68 3.60 -1.661 -1.655 -1.642 -1.622 -1.593 11.91670 15.77916 -7.88459
 3.68 3.80 -1.487 -1.481 -1.470 -1.449 -1.422 12.09278 15.97919 -7.68449
 3.68 4.00 -1.317 -1.311 -1.299 -1.280 -1.253 12.26717 16.17926 -7.48439
 3.68 4.20 -1.149 -1.143 -1.134 -1.115 -1.089 12.43590 16.37936 -7.28432
 3.68 4.40 -0.985 -0.979 -0.971 -0.955 -0.930 12.59996 16.57951 -7.08426
 3.68 4.60 -0.827 -0.822 -0.814 -0.799 -0.776 12.75887 16.77974 -6.88407
 3.68 4.80 -0.674 -0.670 -0.663 -0.648 -0.628 12.91221 16.98013 -6.68361
 3.68 5.00 -0.526 -0.523 -0.516 -0.504 -0.485 13.06032 17.18070 -6.48294
 3.68 5.20 -0.385 -0.382 -0.377 -0.366 -0.349 13.20251 17.38155 -6.28209
 3.68 5.40 -0.249 -0.247 -0.242 -0.233 -0.218 13.34058 17.58285 -6.08083
 3.68 5.60 -0.120 -0.118 -0.114 -0.105 -0.091 13.47413 17.78480 -5.87894
 3.68 5.80  0.001  0.003  0.007  0.015  0.027 13.60508 17.98803 -5.67573
 3.68 6.00  0.118  0.119  0.123  0.130  0.141 13.73448 18.19257 -5.47121
 3.68 6.25  0.253  0.255  0.258  0.265  0.276 13.89455 18.45159 -5.21221
 3.68 6.50  0.379  0.381  0.383  0.391  0.400 14.05461 18.71458 -4.94923
 3.68 6.75  0.493  0.494  0.498  0.503  0.514 14.21742 18.98383 -4.67995
 3.68 7.00  0.594  0.595  0.599  0.604  0.614 14.38220 19.25672 -4.40705
 3.68 7.25  0.681  0.683  0.686  0.692  0.701 14.55014 19.53348 -4.13030
 3.68 7.50  0.757  0.758  0.761  0.768  0.778 14.71809 19.81023 -3.85356
 3.68 7.75  0.822  0.822  0.826  0.832  0.842 14.88381 20.08481 -3.57895
 3.68 8.00  0.877  0.878  0.882  0.888  0.898 15.04805 20.35793 -3.30575
 3.70-2.00 -1.932 -1.930 -1.927 -1.921 -1.911  8.67870 10.14457-13.51913
 3.70-1.50 -2.161 -2.159 -2.155 -2.148 -2.138  8.93787 10.65079-13.01287
 3.70-1.00 -2.381 -2.378 -2.374 -2.366 -2.354  9.19562 11.15442-12.50934
 3.70-0.50 -2.586 -2.583 -2.577 -2.568 -2.555  9.45347 11.65639-12.00727
 3.70 0.00 -2.763 -2.760 -2.753 -2.741 -2.725  9.71299 12.15746-11.50612
 3.70 0.50 -2.886 -2.881 -2.874 -2.860 -2.841  9.97506 12.65820-11.00546
 3.70 1.00 -2.918 -2.913 -2.905 -2.888 -2.866 10.24180 13.15866-10.50501
 3.70 1.25 -2.893 -2.888 -2.878 -2.861 -2.837 10.37790 13.40872-10.25495
 3.70 1.50 -2.842 -2.836 -2.826 -2.807 -2.782 10.51667 13.65878-10.00489
 3.70 1.75 -2.765 -2.759 -2.747 -2.728 -2.702 10.65933 13.90887 -9.75481
 3.70 2.00 -2.667 -2.660 -2.649 -2.629 -2.602 10.80679 14.15897 -9.50473
 3.70 2.25 -2.550 -2.543 -2.531 -2.511 -2.483 10.96091 14.40897 -9.25473
 3.70 2.50 -2.417 -2.410 -2.398 -2.377 -2.349 11.12287 14.65897 -9.00472
 3.70 2.75 -2.267 -2.260 -2.248 -2.227 -2.197 11.29540 14.90897 -8.75466
 3.70 3.00 -2.103 -2.096 -2.084 -2.062 -2.033 11.47857 15.15897 -8.50459
 3.70 3.20 -1.961 -1.953 -1.941 -1.919 -1.890 11.63489 15.35899 -8.30461
 3.70 3.40 -1.809 -1.802 -1.789 -1.767 -1.738 11.79701 15.55903 -8.10462
 3.70 3.60 -1.649 -1.642 -1.629 -1.609 -1.579 11.96655 15.75910 -7.90459
 3.70 3.80 -1.483 -1.475 -1.464 -1.444 -1.415 12.13915 15.95918 -7.70453
 3.70 4.00 -1.313 -1.307 -1.296 -1.275 -1.247 12.31176 16.15927 -7.50446
 3.70 4.20 -1.142 -1.135 -1.125 -1.105 -1.079 12.48396 16.35930 -7.30440
 3.70 4.40 -0.971 -0.965 -0.956 -0.938 -0.912 12.65553 16.55933 -7.10435
 3.70 4.60 -0.803 -0.798 -0.789 -0.772 -0.748 12.82434 16.75945 -6.90424
 3.70 4.80 -0.638 -0.634 -0.626 -0.611 -0.589 12.98759 16.95975 -6.70399
 3.70 5.00 -0.478 -0.475 -0.467 -0.454 -0.433 13.14644 17.16017 -6.50362
 3.70 5.20 -0.325 -0.322 -0.316 -0.303 -0.285 13.29941 17.36066 -6.30311
 3.70 5.40 -0.176 -0.174 -0.169 -0.159 -0.141 13.44742 17.56138 -6.10232
 3.70 5.60 -0.037 -0.035 -0.030 -0.021 -0.005 13.59004 17.76248 -5.90116
 3.70 5.80  0.095  0.097  0.101  0.110  0.124 13.72826 17.96446 -5.69918
 3.70 6.00  0.222  0.223  0.227  0.235  0.248 13.86285 18.16732 -5.49635
 3.70 6.25  0.367  0.369  0.373  0.381  0.393 14.02602 18.42323 -5.24037
 3.70 6.50  0.503  0.505  0.508  0.516  0.528 14.18780 18.68224 -4.98130
 3.70 6.75  0.627  0.629  0.632  0.640  0.651 14.34864 18.94645 -4.71715
 3.70 7.00  0.739  0.740  0.743  0.750  0.762 14.50947 19.21511 -4.44855
 3.70 7.25  0.836  0.836  0.840  0.847  0.859 14.67245 19.49002 -4.17356
 3.70 7.50  0.918  0.919  0.923  0.929  0.941 14.83544 19.76567 -3.89791
 3.70 7.75  0.987  0.988  0.992  0.999  1.010 14.99762 20.04156 -3.62205
 3.70 8.00  1.045  1.047  1.050  1.058  1.069 15.15927 20.31785 -3.34582
 3.73-2.00 -1.451 -1.449 -1.446 -1.440 -1.429  9.10687 10.08600-13.57774
 3.73-1.50 -1.681 -1.679 -1.675 -1.669 -1.658  9.37876 10.60412-13.05958
 3.73-1.00 -1.906 -1.904 -1.900 -1.891 -1.880  9.64207 11.11494-12.54883
 3.73-0.50 -2.120 -2.116 -2.111 -2.102 -2.088  9.90108 11.62097-12.04273
 3.73 0.00 -2.309 -2.306 -2.299 -2.287 -2.271 10.15836 12.12451-11.53910
 3.73 0.50 -2.451 -2.447 -2.439 -2.425 -2.405 10.41564 12.62644-11.03720
 3.73 1.00 -2.510 -2.504 -2.495 -2.478 -2.455 10.67404 13.12775-10.53596
 3.73 1.25 -2.500 -2.493 -2.483 -2.465 -2.439 10.80400 13.37804-10.28564
 3.73 1.50 -2.462 -2.455 -2.444 -2.425 -2.398 10.93475 13.62829-10.03541
 3.73 1.75 -2.399 -2.393 -2.382 -2.362 -2.334 11.06676 13.87852 -9.78522
 3.73 2.00 -2.319 -2.312 -2.300 -2.279 -2.250 11.20030 14.12872 -9.53506
 3.73 2.25 -2.221 -2.214 -2.202 -2.181 -2.152 11.33595 14.37882 -9.28496
 3.73 2.50 -2.112 -2.105 -2.092 -2.071 -2.042 11.47436 14.62890 -9.03485
 3.73 2.75 -1.992 -1.985 -1.972 -1.950 -1.920 11.61689 14.87898 -8.78473
 3.73 3.00 -1.862 -1.855 -1.843 -1.821 -1.791 11.76440 15.12905 -8.53462
 3.73 3.20 -1.752 -1.745 -1.732 -1.710 -1.679 11.88728 15.32903 -8.33463
 3.73 3.40 -1.635 -1.628 -1.616 -1.594 -1.563 12.01517 15.52901 -8.13465
 3.73 3.60 -1.512 -1.505 -1.492 -1.470 -1.440 12.14881 15.72900 -7.93462
 3.73 3.80 -1.380 -1.374 -1.362 -1.339 -1.309 12.28913 15.92902 -7.73454
 3.73 4.00 -1.242 -1.235 -1.223 -1.201 -1.171 12.43569 16.12905 -7.53447
 3.73 4.20 -1.094 -1.087 -1.076 -1.055 -1.026 12.59053 16.32909 -7.33447
 3.73 4.40 -0.939 -0.933 -0.923 -0.902 -0.874 12.74939 16.52916 -7.13447
 3.73 4.60 -0.779 -0.773 -0.763 -0.744 -0.717 12.91292 16.72928 -6.93444
 3.73 4.80 -0.613 -0.609 -0.600 -0.582 -0.556 13.07810 16.92946 -6.73434
 3.73 5.00 -0.447 -0.443 -0.435 -0.419 -0.396 13.24329 17.12969 -6.53417
 3.73 5.20 -0.282 -0.279 -0.272 -0.257 -0.236 13.40598 17.32993 -6.33392
 3.73 5.40 -0.120 -0.117 -0.112 -0.098 -0.079 13.56622 17.53024 -6.13351
 3.73 5.60  0.036  0.038  0.043  0.054  0.072 13.72278 17.73075 -5.93291
 3.73 5.80  0.184  0.186  0.191  0.201  0.218 13.87419 17.93175 -5.73191
 3.73 6.00  0.328  0.330  0.334  0.344  0.359 14.02119 18.13322 -5.53047
 3.73 6.25  0.493  0.494  0.498  0.507  0.522 14.19751 18.38624 -5.27742
 3.73 6.50  0.646  0.648  0.653  0.661  0.676 14.36810 18.64108 -5.02255
 3.73 6.75  0.788  0.790  0.794  0.803  0.817 14.53337 18.89945 -4.76425
 3.73 7.00  0.918  0.920  0.924  0.932  0.946 14.69601 19.16167 -4.50210
 3.73 7.25  1.032  1.033  1.038  1.046  1.059 14.85710 19.42974 -4.23389
 3.73 7.50  1.130  1.132  1.135  1.144  1.157 15.01662 19.70174 -3.96178
 3.73 7.75  1.211  1.213  1.217  1.225  1.238 15.17482 19.97673 -3.68680
 3.73 8.00  1.277  1.280  1.283  1.292  1.305 15.33163 20.25503 -3.40860
 3.76-2.00 -1.011 -1.009 -1.006 -1.000 -0.990  9.44994  9.98914-13.67448
 3.76-1.50 -1.227 -1.225 -1.221 -1.214 -1.203  9.75959 10.53148-13.13230
 3.76-1.00 -1.446 -1.444 -1.440 -1.432 -1.419 10.04415 11.05919-12.60450
 3.76-0.50 -1.657 -1.655 -1.650 -1.641 -1.628 10.31429 11.57600-12.08762
 3.76 0.00 -1.849 -1.846 -1.840 -1.830 -1.814 10.57680 12.08600-11.57774
 3.76 0.50 -2.000 -1.997 -1.989 -1.976 -1.957 10.83512 12.59162-11.07207
 3.76 1.00 -2.077 -2.072 -2.063 -2.048 -2.024 11.09202 13.09482-10.56880
 3.76 1.25 -2.079 -2.074 -2.064 -2.047 -2.021 11.22036 13.34587-10.31776
 3.76 1.50 -2.055 -2.049 -2.038 -2.020 -1.993 11.34869 13.59671-10.06697
 3.76 1.75 -2.007 -2.001 -1.990 -1.970 -1.942 11.47736 13.84742 -9.81637
 3.76 2.00 -1.938 -1.932 -1.921 -1.901 -1.872 11.60638 14.09795 -9.56591
 3.76 2.25 -1.854 -1.848 -1.836 -1.815 -1.786 11.73608 14.34818 -9.31560
 3.76 2.50 -1.758 -1.752 -1.740 -1.718 -1.688 11.86664 14.59835 -9.06535
 3.76 2.75 -1.653 -1.646 -1.635 -1.613 -1.583 11.99859 14.84850 -8.81513
 3.76 3.00 -1.540 -1.534 -1.522 -1.500 -1.470 12.13226 15.09864 -8.56495
 3.76 3.20 -1.447 -1.439 -1.427 -1.405 -1.375 12.24090 15.29875 -8.36489
 3.76 3.40 -1.349 -1.342 -1.329 -1.307 -1.276 12.35151 15.49885 -8.16483
 3.76 3.60 -1.246 -1.239 -1.227 -1.205 -1.174 12.46435 15.69892 -7.96476
 3.76 3.80 -1.139 -1.132 -1.120 -1.099 -1.067 12.58046 15.89895 -7.76470
 3.76 4.00 -1.029 -1.022 -1.010 -0.988 -0.957 12.69992 16.09899 -7.56463
 3.76 4.20 -0.911 -0.905 -0.893 -0.871 -0.841 12.82409 16.29903 -7.36462
 3.76 4.40 -0.788 -0.782 -0.771 -0.750 -0.720 12.95316 16.49909 -7.16460
 3.76 4.60 -0.658 -0.653 -0.643 -0.622 -0.593 13.08794 16.69915 -6.96455
 3.76 4.80 -0.521 -0.516 -0.506 -0.487 -0.459 13.22855 16.89923 -6.76444
 3.76 5.00 -0.377 -0.373 -0.364 -0.347 -0.320 13.37420 17.09933 -6.56432
 3.76 5.20 -0.227 -0.223 -0.215 -0.199 -0.175 13.52647 17.29947 -6.36419
 3.76 5.40 -0.072 -0.069 -0.062 -0.048 -0.025 13.68013 17.49966 -6.16403
 3.76 5.60  0.083  0.086  0.091  0.104  0.125 13.83514 17.69993 -5.96378
 3.76 5.80  0.237  0.240  0.244  0.257  0.276 13.99048 17.90039 -5.76329
 3.76 6.00  0.391  0.392  0.398  0.408  0.426 14.14582 18.10106 -5.56257
 3.76 6.25  0.569  0.571  0.576  0.586  0.604 14.33406 18.35265 -5.31099
 3.76 6.50  0.741  0.743  0.748  0.757  0.775 14.51733 18.60530 -5.05839
 3.76 6.75  0.900  0.903  0.908  0.917  0.934 14.69362 18.85986 -4.80381
 3.76 7.00  1.050  1.052  1.056  1.066  1.082 14.86451 19.11694 -4.54668
 3.76 7.25  1.184  1.185  1.190  1.200  1.215 15.03038 19.37859 -4.28503
 3.76 7.50  1.302  1.304  1.309  1.317  1.333 15.19229 19.64464 -4.01900
 3.76 7.75  1.401  1.403  1.408  1.417  1.433 15.35114 19.91576 -3.74786
 3.76 8.00  1.484  1.485  1.490  1.498  1.514 15.50664 20.19173 -3.47186
 3.79-2.00 -0.685 -0.684 -0.680 -0.673 -0.661  9.64856  9.86225-13.80134
 3.79-1.50 -0.834 -0.832 -0.829 -0.822 -0.809 10.03623 10.41880-13.24489
 3.79-1.00 -1.019 -1.016 -1.013 -1.005 -0.993 10.37383 10.97151-12.69208
 3.79-0.50 -1.213 -1.210 -1.206 -1.197 -1.184 10.67578 11.50987-12.15385
 3.79 0.00 -1.393 -1.391 -1.386 -1.377 -1.362 10.95583 12.03423-11.62930
 3.79 0.50 -1.541 -1.538 -1.531 -1.520 -1.502 11.22350 12.54913-11.11458
 3.79 1.00 -1.626 -1.622 -1.615 -1.600 -1.579 11.48444 13.05767-10.60590
 3.79 1.25 -1.638 -1.633 -1.625 -1.609 -1.586 11.61342 13.31048-10.35314
 3.79 1.50 -1.626 -1.621 -1.612 -1.595 -1.569 11.74194 13.56265-10.10106
 3.79 1.75 -1.592 -1.586 -1.576 -1.559 -1.532 11.87012 13.81433 -9.84946
 3.79 2.00 -1.538 -1.532 -1.522 -1.503 -1.476 11.99822 14.06558 -9.59826
 3.79 2.25 -1.467 -1.461 -1.451 -1.431 -1.403 12.12626 14.31642 -9.34738
 3.79 2.50 -1.384 -1.378 -1.368 -1.348 -1.320 12.25431 14.56703 -9.09669
 3.79 2.75 -1.291 -1.285 -1.275 -1.255 -1.226 12.38290 14.81745 -8.84612
 3.79 3.00 -1.191 -1.185 -1.174 -1.155 -1.125 12.51202 15.06781 -8.59568
 3.79 3.20 -1.106 -1.100 -1.090 -1.069 -1.040 12.61580 15.26808 -8.39546
 3.79 3.40 -1.019 -1.013 -1.002 -0.982 -0.952 12.72023 15.46832 -8.19530
 3.79 3.60 -0.928 -0.923 -0.911 -0.891 -0.861 12.82546 15.66855 -7.99518
 3.79 3.80 -0.835 -0.829 -0.817 -0.796 -0.766 12.93198 15.86876 -7.79508
 3.79 4.00 -0.739 -0.733 -0.722 -0.701 -0.671 13.03981 16.06893 -7.59500
 3.79 4.20 -0.638 -0.633 -0.622 -0.600 -0.571 13.14945 16.26892 -7.39491
 3.79 4.40 -0.535 -0.530 -0.518 -0.498 -0.468 13.26130 16.46891 -7.19483
 3.79 4.60 -0.427 -0.421 -0.411 -0.391 -0.361 13.37566 16.66890 -6.99477
 3.79 4.80 -0.313 -0.308 -0.299 -0.280 -0.250 13.49344 16.86891 -6.79471
 3.79 5.00 -0.197 -0.192 -0.183 -0.164 -0.137 13.61469 17.06893 -6.59465
 3.79 5.20 -0.072 -0.068 -0.060 -0.043 -0.017 13.74062 17.26907 -6.39457
 3.79 5.40  0.056  0.060  0.067  0.083  0.108 13.87087 17.46926 -6.19444
 3.79 5.60  0.190  0.193  0.199  0.213  0.236 14.00621 17.66948 -5.99427
 3.79 5.80  0.327  0.331  0.336  0.350  0.370 14.14570 17.86973 -5.79401
 3.79 6.00  0.468  0.472  0.477  0.488  0.507 14.28825 18.07004 -5.59363
 3.79 6.25  0.641  0.643  0.648  0.659  0.679 14.47088 18.32084 -5.34281
 3.79 6.50  0.814  0.816  0.821  0.831  0.850 14.65350 18.57217 -5.09146
 3.79 6.75  0.981  0.983  0.988  0.999  1.018 14.83428 18.82457 -4.83900
 3.79 7.00  1.143  1.145  1.151  1.161  1.179 15.01284 19.07846 -4.58503
 3.79 7.25  1.294  1.296  1.301  1.311  1.329 15.18584 19.33531 -4.32825
 3.79 7.50  1.432  1.434  1.439  1.450  1.467 15.35411 19.59561 -4.06808
 3.79 7.75  1.552  1.554  1.559  1.569  1.587 15.51729 19.86126 -3.80247
 3.79 8.00  1.655  1.657  1.661  1.671  1.688 15.67550 20.13162 -3.53210
 3.82-2.00 -0.549 -0.546 -0.543 -0.535 -0.522  9.69819  9.77539-13.88840
 3.82-1.50 -0.592 -0.590 -0.586 -0.577 -0.564 10.16227 10.30320-13.36051
 3.82-1.00 -0.682 -0.681 -0.676 -0.668 -0.655 10.58377 10.85217-12.81135
 3.82-0.50 -0.814 -0.812 -0.809 -0.800 -0.787 10.95187 11.40943-12.25430
 3.82 0.00 -0.959 -0.957 -0.953 -0.944 -0.931 11.27462 11.95737-11.70642
 3.82 0.50 -1.086 -1.083 -1.078 -1.068 -1.053 11.56714 12.49024-11.17347
 3.82 1.00 -1.166 -1.162 -1.156 -1.144 -1.125 11.84173 13.01072-10.65287
 3.82 1.25 -1.181 -1.177 -1.170 -1.157 -1.136 11.97503 13.26758-10.39608
 3.82 1.50 -1.177 -1.173 -1.165 -1.151 -1.128 12.10653 13.52284-10.14086
 3.82 1.75 -1.155 -1.151 -1.142 -1.127 -1.104 12.23654 13.77677 -9.88683
 3.82 2.00 -1.115 -1.111 -1.102 -1.086 -1.061 12.36567 14.02979 -9.63376
 3.82 2.25 -1.059 -1.055 -1.046 -1.029 -1.004 12.49416 14.28212 -9.38154
 3.82 2.50 -0.991 -0.987 -0.977 -0.961 -0.934 12.62232 14.53390 -9.12983
 3.82 2.75 -0.913 -0.908 -0.898 -0.880 -0.855 12.75019 14.78524 -8.87848
 3.82 3.00 -0.826 -0.821 -0.811 -0.793 -0.767 12.87806 15.03623 -8.62746
 3.82 3.20 -0.751 -0.746 -0.737 -0.718 -0.692 12.98043 15.23679 -8.42692
 3.82 3.40 -0.673 -0.668 -0.658 -0.640 -0.613 13.08290 15.43725 -8.22647
 3.82 3.60 -0.592 -0.587 -0.577 -0.558 -0.531 13.18560 15.63763 -8.02607
 3.82 3.80 -0.508 -0.503 -0.493 -0.474 -0.446 13.28875 15.83796 -7.82572
 3.82 4.00 -0.421 -0.417 -0.407 -0.387 -0.359 13.39235 16.03822 -7.62543
 3.82 4.20 -0.332 -0.327 -0.317 -0.298 -0.269 13.49656 16.23836 -7.42529
 3.82 4.40 -0.241 -0.235 -0.225 -0.206 -0.178 13.60162 16.43851 -7.22516
 3.82 4.60 -0.146 -0.141 -0.131 -0.111 -0.082 13.70768 16.63866 -7.02507
 3.82 4.80 -0.046 -0.042 -0.032 -0.014  0.014 13.81528 16.83884 -6.82498
 3.82 5.00  0.054  0.058  0.067  0.086  0.113 13.92443 17.03902 -6.62489
 3.82 5.20  0.161  0.165  0.173  0.190  0.217 14.03569 17.23904 -6.42478
 3.82 5.40  0.271  0.275  0.282  0.298  0.323 14.14936 17.43906 -6.22466
 3.82 5.60  0.384  0.388  0.395  0.410  0.433 14.26573 17.63911 -6.02452
 3.82 5.80  0.502  0.505  0.511  0.525  0.548 14.38539 17.83923 -5.82436
 3.82 6.00  0.623  0.626  0.632  0.643  0.664 14.50826 18.03941 -5.62415
 3.82 6.25  0.772  0.775  0.780  0.791  0.812 14.66747 18.28985 -5.37374
 3.82 6.50  0.925  0.928  0.933  0.944  0.965 14.83129 18.54058 -5.12309
 3.82 6.75  1.081  1.082  1.088  1.099  1.120 15.00059 18.79178 -4.87185
 3.82 7.00  1.237  1.240  1.244  1.256  1.276 15.17026 19.04375 -4.61979
 3.82 7.25  1.390  1.392  1.397  1.408  1.428 15.34014 19.29747 -4.36610
 3.82 7.50  1.538  1.539  1.544  1.556  1.575 15.51001 19.55340 -4.11025
 3.82 7.75  1.673  1.674  1.679  1.691  1.709 15.67501 19.81346 -3.85016
 3.82 8.00  1.793  1.796  1.800  1.811  1.829 15.83677 20.07701 -3.58653
 3.85-2.00 -0.520 -0.518 -0.513 -0.505 -0.490  9.68467  9.73119-13.93256
 3.85-1.50 -0.515 -0.512 -0.508 -0.498 -0.482 10.17696 10.23780-13.42585
 3.85-1.00 -0.516 -0.515 -0.510 -0.500 -0.484 10.65543 10.75580-12.90798
 3.85-0.50 -0.541 -0.539 -0.535 -0.526 -0.511 11.10209 11.29381-12.36988
 3.85 0.00 -0.599 -0.597 -0.592 -0.583 -0.569 11.49872 11.84917-11.81446
 3.85 0.50 -0.666 -0.664 -0.660 -0.650 -0.637 11.84386 12.40364-11.26003
 3.85 1.00 -0.715 -0.713 -0.707 -0.697 -0.681 12.15076 12.94458-10.71919
 3.85 1.25 -0.725 -0.722 -0.716 -0.705 -0.687 12.29436 13.20938-10.45438
 3.85 1.50 -0.720 -0.717 -0.712 -0.700 -0.681 12.43361 13.47115-10.19260
 3.85 1.75 -0.704 -0.701 -0.694 -0.681 -0.661 12.56946 13.73020 -9.93355
 3.85 2.00 -0.674 -0.671 -0.664 -0.650 -0.629 12.70286 13.98722 -9.67654
 3.85 2.25 -0.632 -0.628 -0.621 -0.607 -0.585 12.83429 14.24255 -9.42121
 3.85 2.50 -0.578 -0.575 -0.567 -0.552 -0.530 12.96445 14.49665 -9.16711
 3.85 2.75 -0.515 -0.511 -0.503 -0.488 -0.465 13.09365 14.74979 -8.91394
 3.85 3.00 -0.442 -0.438 -0.430 -0.415 -0.392 13.22220 15.00217 -8.66154
 3.85 3.20 -0.379 -0.376 -0.368 -0.352 -0.328 13.32455 15.20356 -8.46016
 3.85 3.40 -0.312 -0.308 -0.300 -0.284 -0.260 13.42686 15.40469 -8.25904
 3.85 3.60 -0.242 -0.237 -0.229 -0.213 -0.189 13.52911 15.60558 -8.05814
 3.85 3.80 -0.168 -0.164 -0.155 -0.138 -0.113 13.63136 15.80631 -7.85739
 3.85 4.00 -0.091 -0.087 -0.079 -0.061 -0.036 13.73360 16.00690 -7.65679
 3.85 4.20 -0.012 -0.008  0.002  0.018  0.043 13.83606 16.20732 -7.45635
 3.85 4.40  0.069  0.074  0.082  0.100  0.127 13.93877 16.40769 -7.25599
 3.85 4.60  0.155  0.159  0.168  0.185  0.212 14.04180 16.60803 -7.05569
 3.85 4.80  0.243  0.246  0.255  0.273  0.300 14.14544 16.80834 -6.85542
 3.85 5.00  0.333  0.337  0.345  0.363  0.390 14.24969 17.00860 -6.65522
 3.85 5.20  0.428  0.432  0.440  0.456  0.483 14.35486 17.20868 -6.45509
 3.85 5.40  0.526  0.529  0.536  0.551  0.577 14.46113 17.40876 -6.25496
 3.85 5.60  0.626  0.629  0.636  0.650  0.674 14.56864 17.60884 -6.05481
 3.85 5.80  0.729  0.733  0.738  0.752  0.775 14.67784 17.80893 -5.85462
 3.85 6.00  0.836  0.839  0.844  0.857  0.878 14.78873 18.00903 -5.65443
 3.85 6.25  0.967  0.969  0.974  0.987  1.007 14.93037 18.25930 -5.40420
 3.85 6.50  1.100  1.103  1.108  1.120  1.141 15.07555 18.50974 -5.15397
 3.85 6.75  1.237  1.239  1.244  1.256  1.277 15.22519 18.76046 -4.90335
 3.85 7.00  1.376  1.378  1.383  1.395  1.416 15.37822 19.01157 -4.65228
 3.85 7.25  1.517  1.520  1.525  1.536  1.556 15.53520 19.26333 -4.40047
 3.85 7.50  1.658  1.661  1.666  1.677  1.697 15.69267 19.51614 -4.14752
 3.85 7.75  1.794  1.796  1.801  1.812  1.832 15.85029 19.77168 -3.89191
 3.85 8.00  1.923  1.925  1.930  1.941  1.960 16.00817 20.02938 -3.63414
 3.88-2.00 -0.520 -0.518 -0.514 -0.505 -0.492  9.65753  9.69845-13.96537
 3.88-1.50 -0.503 -0.502 -0.497 -0.486 -0.470 10.15594 10.19975-13.46382
 3.88-1.00 -0.478 -0.475 -0.470 -0.458 -0.441 10.65138 10.70398-12.95979
 3.88-0.50 -0.438 -0.436 -0.431 -0.419 -0.401 11.13767 11.21564-12.44794
 3.88 0.00 -0.391 -0.389 -0.384 -0.374 -0.358 11.60097 11.74414-11.91937
 3.88 0.50 -0.352 -0.350 -0.345 -0.336 -0.321 12.02119 12.29336-11.37029
 3.88 1.00 -0.322 -0.319 -0.315 -0.306 -0.290 12.38828 12.85065-10.81304
 3.88 1.25 -0.307 -0.304 -0.299 -0.289 -0.273 12.55374 13.12594-10.53778
 3.88 1.50 -0.287 -0.284 -0.280 -0.269 -0.252 12.71020 13.39829-10.26544
 3.88 1.75 -0.262 -0.260 -0.255 -0.244 -0.227 12.85894 13.66627 -9.99743
 3.88 2.00 -0.231 -0.229 -0.223 -0.212 -0.194 13.00217 13.93085 -9.73283
 3.88 2.25 -0.194 -0.192 -0.186 -0.175 -0.156 13.14102 14.19216 -9.47152
 3.88 2.50 -0.150 -0.148 -0.141 -0.130 -0.111 13.27669 14.45102 -9.21268
 3.88 2.75 -0.100 -0.096 -0.090 -0.078 -0.058 13.40983 14.70781 -8.95592
 3.88 3.00 -0.042 -0.038 -0.032 -0.019  0.001 13.54121 14.96303 -8.70071
 3.88 3.20  0.009  0.012  0.019  0.032  0.053 13.64526 15.16626 -8.49748
 3.88 3.40  0.064  0.067  0.074  0.087  0.109 13.74876 15.36888 -8.29485
 3.88 3.60  0.123  0.126  0.133  0.147  0.169 13.85176 15.57095 -8.09277
 3.88 3.80  0.185  0.189  0.196  0.210  0.232 13.95447 15.77264 -7.89107
 3.88 4.00  0.250  0.254  0.262  0.276  0.299 14.05690 15.97396 -7.68973
 3.88 4.20  0.320  0.323  0.331  0.346  0.369 14.15901 16.17495 -7.48873
 3.88 4.40  0.391  0.395  0.403  0.418  0.442 14.26112 16.37576 -7.28790
 3.88 4.60  0.466  0.470  0.477  0.493  0.517 14.36331 16.57644 -7.08721
 3.88 4.80  0.544  0.548  0.556  0.571  0.595 14.46572 16.77703 -6.88661
 3.88 5.00  0.625  0.628  0.635  0.651  0.676 14.56832 16.97750 -6.68613
 3.88 5.20  0.709  0.712  0.719  0.734  0.759 14.67124 17.17777 -6.48583
 3.88 5.40  0.795  0.798  0.805  0.820  0.844 14.77458 17.37802 -6.28559
 3.88 5.60  0.885  0.887  0.894  0.908  0.932 14.87842 17.57825 -6.08541
 3.88 5.80  0.977  0.980  0.987  1.000  1.023 14.98306 17.77847 -5.88524
 3.88 6.00  1.073  1.076  1.081  1.093  1.115 15.08849 17.97868 -5.68508
 3.88 6.25  1.191  1.194  1.198  1.211  1.232 15.22188 18.22891 -5.43486
 3.88 6.50  1.312  1.314  1.319  1.331  1.352 15.35717 18.47915 -5.18462
 3.88 6.75  1.434  1.437  1.441  1.453  1.474 15.49485 18.72947 -4.93429
 3.88 7.00  1.559  1.561  1.566  1.577  1.598 15.63488 18.97991 -4.68382
 3.88 7.25  1.686  1.688  1.694  1.705  1.725 15.77773 19.23071 -4.43301
 3.88 7.50  1.816  1.818  1.823  1.835  1.855 15.92247 19.48202 -4.18171
 3.88 7.75  1.944  1.947  1.951  1.962  1.983 16.06855 19.73462 -3.92912
 3.88 8.00  2.072  2.073  2.079  2.089  2.109 16.21617 19.98825 -3.67551
 3.91-2.00 -0.526 -0.525 -0.521 -0.515 -0.502  9.62818  9.66801-13.99568
 3.91-1.50 -0.511 -0.509 -0.505 -0.495 -0.479 10.12775 10.16820-13.49539
 3.91-1.00 -0.482 -0.479 -0.474 -0.462 -0.443 10.62685 10.66922-12.99439
 3.91-0.50 -0.428 -0.425 -0.419 -0.406 -0.386 11.12353 11.17202-12.49174
 3.91 0.00 -0.338 -0.335 -0.330 -0.317 -0.297 11.61426 11.68025-11.98338
 3.91 0.50 -0.209 -0.207 -0.201 -0.190 -0.172 12.08778 12.20167-11.46206
 3.91 1.00 -0.062 -0.060 -0.056 -0.045 -0.029 12.52569 12.74406-10.91973
 3.91 1.25  0.004  0.007  0.012  0.021  0.037 12.72493 13.02244-10.64132
 3.91 1.50  0.067  0.069  0.074  0.083  0.099 12.91148 13.30081-10.36291
 3.91 1.75  0.122  0.124  0.129  0.139  0.155 13.08474 13.57781-10.08586
 3.91 2.00  0.173  0.175  0.181  0.190  0.206 13.24773 13.85309 -9.81051
 3.91 2.25  0.220  0.222  0.227  0.238  0.253 13.40163 14.12377 -9.53993
 3.91 2.50  0.267  0.270  0.275  0.285  0.301 13.54888 14.39093 -9.27287
 3.91 2.75  0.315  0.317  0.322  0.333  0.350 13.69071 14.65440 -9.00932
 3.91 3.00  0.365  0.368  0.373  0.384  0.401 13.82860 14.91503 -8.74860
 3.91 3.20  0.407  0.410  0.415  0.427  0.445 13.93651 15.12167 -8.54193
 3.91 3.40  0.452  0.456  0.461  0.473  0.491 14.04309 15.32714 -8.33646
 3.91 3.60  0.501  0.503  0.510  0.521  0.540 14.14842 15.53150 -8.13216
 3.91 3.80  0.552  0.554  0.561  0.574  0.592 14.25297 15.73510 -7.92865
 3.91 4.00  0.606  0.609  0.615  0.628  0.648 14.35679 15.93797 -7.72584
 3.91 4.20  0.664  0.666  0.673  0.686  0.707 14.45998 16.14022 -7.52356
 3.91 4.40  0.724  0.727  0.734  0.747  0.768 14.56285 16.34204 -7.32169
 3.91 4.60  0.788  0.791  0.798  0.811  0.833 14.66535 16.54347 -7.12020
 3.91 4.80  0.854  0.857  0.864  0.878  0.900 14.76773 16.74464 -6.91900
 3.91 5.00  0.924  0.927  0.933  0.947  0.970 14.87011 16.94557 -6.71806
 3.91 5.20  0.997  1.000  1.007  1.020  1.043 14.97250 17.14631 -6.51739
 3.91 5.40  1.072  1.076  1.082  1.095  1.118 15.07492 17.34691 -6.31684
 3.91 5.60  1.152  1.155  1.161  1.174  1.197 15.17747 17.54737 -6.11635
 3.91 5.80  1.235  1.237  1.243  1.256  1.277 15.28039 17.74773 -5.91592
 3.91 6.00  1.320  1.322  1.328  1.339  1.360 15.38364 17.94802 -5.71557
 3.91 6.25  1.428  1.429  1.434  1.446  1.467 15.51355 18.19829 -5.46532
 3.91 6.50  1.539  1.540  1.545  1.556  1.576 15.64444 18.44855 -5.21510
 3.91 6.75  1.648  1.651  1.655  1.666  1.686 15.77655 18.69882 -4.96488
 3.91 7.00  1.762  1.763  1.769  1.780  1.799 15.90998 18.94910 -4.71467
 3.91 7.25  1.878  1.880  1.885  1.896  1.916 16.04510 19.19946 -4.46430
 3.91 7.50  1.997  2.000  2.004  2.016  2.035 16.18156 19.44994 -4.21375
 3.91 7.75  2.118  2.121  2.125  2.136  2.155 16.31918 19.70092 -3.96280
 3.91 8.00  2.240  2.243  2.247  2.258  2.276 16.45803 19.95226 -3.71153
 3.94-2.00 -0.531 -0.530 -0.527 -0.521 -0.513  9.59846  9.63759-14.02604
 3.94-1.50 -0.520 -0.518 -0.515 -0.507 -0.493 10.09830 10.13767-13.52593
 3.94-1.00 -0.497 -0.494 -0.489 -0.479 -0.461 10.59791 10.63809-13.02558
 3.94-0.50 -0.448 -0.445 -0.438 -0.425 -0.404 11.09726 11.13862-12.52491
 3.94 0.00 -0.354 -0.350 -0.344 -0.329 -0.306 11.59494 11.64088-12.02283
 3.94 0.50 -0.199 -0.196 -0.189 -0.175 -0.153 12.08778 12.14706-11.51670
 3.94 1.00  0.019  0.022  0.028  0.041  0.060 12.56785 12.66380-11.00000
 3.94 1.25  0.143  0.146  0.152  0.163  0.182 12.79733 12.92955-10.73415
 3.94 1.50  0.267  0.269  0.275  0.285  0.303 13.01745 13.20003-10.46357
 3.94 1.75  0.380  0.382  0.387  0.397  0.414 13.22433 13.47725-10.18643
 3.94 2.00  0.479  0.482  0.487  0.497  0.513 13.41863 13.75465 -9.90904
 3.94 2.25  0.563  0.565  0.569  0.580  0.595 13.59865 14.03214 -9.63151
 3.94 2.50  0.635  0.637  0.641  0.651  0.666 13.76745 14.30963 -9.35399
 3.94 2.75  0.696  0.697  0.702  0.712  0.728 13.92603 14.58246 -9.08124
 3.94 3.00  0.752  0.753  0.758  0.768  0.785 14.07701 14.85187 -8.81192
 3.94 3.20  0.794  0.796  0.801  0.812  0.827 14.19307 15.06433 -8.59940
 3.94 3.40  0.836  0.838  0.843  0.854  0.870 14.30624 15.27481 -8.38886
 3.94 3.60  0.878  0.880  0.886  0.896  0.913 14.41663 15.48334 -8.18029
 3.94 3.80  0.921  0.924  0.929  0.940  0.957 14.52520 15.69041 -7.97322
 3.94 4.00  0.966  0.969  0.975  0.985  1.003 14.63215 15.89614 -7.76751
 3.94 4.20  1.014  1.016  1.022  1.033  1.052 14.73782 16.10073 -7.56299
 3.94 4.40  1.064  1.066  1.072  1.084  1.102 14.84262 16.30448 -7.35929
 3.94 4.60  1.116  1.119  1.125  1.137  1.156 14.94660 16.50740 -7.15635
 3.94 4.80  1.171  1.174  1.180  1.192  1.212 15.05010 16.70977 -6.95394
 3.94 5.00  1.230  1.233  1.238  1.251  1.271 15.15321 16.91164 -6.75203
 3.94 5.20  1.292  1.294  1.300  1.313  1.333 15.25595 17.11310 -6.55057
 3.94 5.40  1.357  1.359  1.365  1.378  1.398 15.35862 17.31430 -6.34938
 3.94 5.60  1.425  1.428  1.434  1.445  1.465 15.46123 17.51527 -6.14839
 3.94 5.80  1.497  1.500  1.505  1.516  1.537 15.56383 17.71607 -5.94756
 3.94 6.00  1.572  1.574  1.579  1.590  1.609 15.66643 17.91672 -5.74691
 3.94 6.25  1.668  1.671  1.675  1.685  1.705 15.79515 18.16734 -5.49639
 3.94 6.50  1.769  1.770  1.774  1.785  1.803 15.92433 18.41780 -5.24596
 3.94 6.75  1.868  1.870  1.875  1.885  1.903 16.05414 18.66811 -4.99555
 3.94 7.00  1.971  1.973  1.977  1.988  2.007 16.18469 18.91840 -4.74521
 3.94 7.25  2.078  2.081  2.084  2.095  2.114 16.31627 19.16868 -4.49501
 3.94 7.50  2.189  2.191  2.195  2.206  2.224 16.44871 19.41896 -4.24481
 3.94 7.75  2.303  2.305  2.309  2.319  2.336 16.58191 19.66929 -3.99446
 3.94 8.00  2.419  2.421  2.425  2.434  2.452 16.71592 19.91965 -3.74400
 3.97-2.00 -0.529 -0.528 -0.526 -0.521 -0.514  9.57019  9.60606-14.05769
 3.97-1.50 -0.525 -0.523 -0.520 -0.513 -0.503 10.06893 10.10721-13.55658
 3.97-1.00 -0.508 -0.507 -0.502 -0.493 -0.479 10.56832 10.60778-13.05591
 3.97-0.50 -0.471 -0.469 -0.463 -0.451 -0.431 11.06781 11.10823-12.55549
 3.97 0.00 -0.391 -0.388 -0.381 -0.366 -0.343 11.56714 11.60885-12.05488
 3.97 0.50 -0.242 -0.238 -0.231 -0.214 -0.189 12.06521 12.11059-11.55315
 3.97 1.00 -0.009 -0.006  0.002  0.016  0.042 12.55955 12.61563-11.04808
 3.97 1.25  0.136  0.139  0.146  0.162  0.185 12.80318 12.87103-10.79261
 3.97 1.50  0.298  0.300  0.307  0.322  0.344 13.04297 13.12937-10.53417
 3.97 1.75  0.462  0.465  0.472  0.485  0.506 13.27593 13.39302-10.27058
 3.97 2.00  0.623  0.625  0.631  0.643  0.663 13.50065 13.66143-10.00226
 3.97 2.25  0.765  0.767  0.773  0.785  0.803 13.71271 13.93643 -9.72732
 3.97 2.50  0.888  0.891  0.896  0.907  0.924 13.91249 14.21325 -9.45051
 3.97 2.75  0.988  0.992  0.996  1.007  1.023 14.09781 14.49139 -9.17233
 3.97 3.00  1.072  1.075  1.080  1.091  1.107 14.27138 14.76952 -8.89415
 3.97 3.20  1.129  1.132  1.136  1.147  1.163 14.40199 14.98905 -8.67463
 3.97 3.40  1.180  1.182  1.187  1.197  1.214 14.52728 15.20653 -8.45717
 3.97 3.60  1.226  1.228  1.233  1.243  1.260 14.64739 15.42160 -8.24214
 3.97 3.80  1.270  1.272  1.276  1.287  1.303 14.76387 15.63423 -8.02954
 3.97 4.00  1.312  1.315  1.319  1.330  1.347 14.87714 15.84479 -7.81902
 3.97 4.20  1.355  1.357  1.362  1.372  1.390 14.98784 16.05335 -7.61043
 3.97 4.40  1.398  1.400  1.405  1.415  1.433 15.09671 16.26044 -7.40333
 3.97 4.60  1.443  1.445  1.449  1.461  1.478 15.20381 16.46608 -7.19770
 3.97 4.80  1.489  1.492  1.497  1.507  1.526 15.30980 16.67069 -6.99310
 3.97 5.00  1.538  1.540  1.545  1.556  1.575 15.41481 16.87437 -6.78941
 3.97 5.20  1.590  1.592  1.597  1.608  1.626 15.51899 17.07724 -6.58643
 3.97 5.40  1.645  1.647  1.651  1.663  1.681 15.62276 17.27959 -6.38400
 3.97 5.60  1.702  1.704  1.710  1.720  1.738 15.72612 17.48149 -6.18211
 3.97 5.80  1.764  1.766  1.770  1.780  1.799 15.82931 17.68308 -5.98057
 3.97 6.00  1.829  1.830  1.835  1.844  1.862 15.93242 17.88434 -5.77937
 3.97 6.25  1.912  1.914  1.918  1.928  1.945 16.06124 18.13546 -5.52825
 3.97 6.50  2.001  2.003  2.007  2.016  2.032 16.19005 18.38632 -5.27737
 3.97 6.75  2.089  2.091  2.095  2.104  2.122 16.31940 18.63702 -5.02659
 3.97 7.00  2.182  2.184  2.188  2.197  2.214 16.44917 18.88756 -4.77599
 3.97 7.25  2.280  2.282  2.286  2.295  2.312 16.57950 19.13796 -4.52573
 3.97 7.50  2.382  2.384  2.387  2.397  2.413 16.71037 19.38828 -4.27548
 3.97 7.75  2.487  2.489  2.493  2.502  2.517 16.84185 19.63854 -4.02522
 3.97 8.00  2.596  2.598  2.601  2.609  2.626 16.97391 19.88874 -3.77495
 4.00-2.00 -0.513 -0.513 -0.510 -0.507 -0.500  9.54962  9.56808-14.09566
 4.00-1.50 -0.518 -0.517 -0.514 -0.508 -0.500 10.04376 10.07335-13.59041
 4.00-1.00 -0.513 -0.511 -0.508 -0.500 -0.488 10.54045 10.57669-13.08703
 4.00-0.50 -0.488 -0.486 -0.481 -0.471 -0.454 11.03902 11.07809-12.58570
 4.00 0.00 -0.428 -0.425 -0.419 -0.405 -0.382 11.53807 11.57875-12.08492
 4.00 0.50 -0.301 -0.297 -0.290 -0.273 -0.247 12.03743 12.07954-11.58436
 4.00 1.00 -0.082 -0.078 -0.069 -0.052 -0.023 12.53567 12.58104-11.08271
 4.00 1.25  0.063  0.067  0.075  0.094  0.122 12.78375 12.83265-10.83099
 4.00 1.50  0.232  0.236  0.244  0.262  0.290 13.03060 13.08529-10.57823
 4.00 1.75  0.417  0.421  0.428  0.445  0.472 13.27510 13.34017-10.32341
 4.00 2.00  0.611  0.614  0.622  0.638  0.663 13.51627 13.59781-10.06591
 4.00 2.25  0.801  0.804  0.812  0.826  0.850 13.75110 13.85999 -9.80369
 4.00 2.50  0.982  0.984  0.991  1.004  1.026 13.97827 14.12678 -9.53685
 4.00 2.75  1.140  1.143  1.148  1.161  1.181 14.19363 14.40041 -9.26334
 4.00 3.00  1.276  1.279  1.284  1.296  1.316 14.39707 14.67660 -8.98716
 4.00 3.20  1.366  1.368  1.374  1.385  1.403 14.54912 14.89926 -8.76441
 4.00 3.40  1.443  1.445  1.451  1.461  1.480 14.69343 15.12192 -8.54165
 4.00 3.60  1.509  1.511  1.516  1.526  1.543 14.82971 15.34360 -8.31994
 4.00 3.80  1.565  1.567  1.572  1.582  1.599 14.95959 15.56289 -8.10071
 4.00 4.00  1.616  1.618  1.622  1.633  1.650 15.08386 15.78032 -7.88339
 4.00 4.20  1.661  1.664  1.668  1.678  1.695 15.20340 15.99476 -7.66897
 4.00 4.40  1.704  1.707  1.711  1.721  1.738 15.31947 16.20705 -7.45669
 4.00 4.60  1.747  1.749  1.753  1.763  1.780 15.43221 16.41714 -7.24660
 4.00 4.80  1.789  1.790  1.794  1.804  1.822 15.54274 16.62548 -7.03827
 4.00 5.00  1.831  1.833  1.837  1.847  1.864 15.65128 16.83225 -6.83150
 4.00 5.20  1.875  1.878  1.882  1.891  1.908 15.75820 17.03769 -6.62609
 4.00 5.40  1.922  1.924  1.928  1.938  1.954 15.86413 17.24214 -6.42163
 4.00 5.60  1.971  1.973  1.977  1.986  2.003 15.96913 17.44566 -6.21805
 4.00 5.80  2.023  2.024  2.029  2.037  2.054 16.07358 17.64854 -6.01510
 4.00 6.00  2.077  2.080  2.083  2.091  2.107 16.17754 17.85083 -5.81276
 4.00 6.25  2.150  2.151  2.155  2.163  2.178 16.30678 18.10301 -5.56065
 4.00 6.50  2.227  2.228  2.232  2.240  2.254 16.43600 18.35468 -5.30901
 4.00 6.75  2.306  2.306  2.310  2.318  2.333 16.56522 18.60599 -5.05764
 4.00 7.00  2.388  2.391  2.393  2.401  2.416 16.69443 18.85697 -4.80660
 4.00 7.25  2.477  2.478  2.482  2.490  2.505 16.82412 19.10761 -4.55598
 4.00 7.50  2.570  2.572  2.576  2.583  2.598 16.95429 19.35813 -4.30548
 4.00 7.75  2.669  2.671  2.674  2.681  2.695 17.08527 19.60858 -4.05503
 4.00 8.00  2.772  2.773  2.776  2.783  2.797 17.21696 19.85896 -3.80465
 4.05-2.00 -0.492 -0.491 -0.488 -0.484 -0.476  9.50853  9.50934-14.15435
 4.05-1.50 -0.490 -0.489 -0.487 -0.481 -0.472 10.00732 10.01030-13.65326
 4.05-1.00 -0.489 -0.488 -0.484 -0.478 -0.467 10.50433 10.51348-13.15027
 4.05-0.50 -0.484 -0.483 -0.479 -0.470 -0.456 10.99913 11.01828-12.64532
 4.05 0.00 -0.460 -0.458 -0.452 -0.442 -0.423 11.49360 11.52375-12.13996
 4.05 0.50 -0.387 -0.383 -0.377 -0.363 -0.337 11.99007 12.02694-11.63676
 4.05 1.00 -0.226 -0.222 -0.214 -0.196 -0.166 12.48841 12.52853-11.13513
 4.05 1.25 -0.104 -0.100 -0.091 -0.071 -0.039 12.73775 12.77916-10.88454
 4.05 1.50  0.047  0.051  0.061  0.081  0.115 12.98709 13.02979-10.63395
 4.05 1.75  0.225  0.229  0.240  0.261  0.294 13.23612 13.28066-10.38308
 4.05 2.00  0.426  0.430  0.440  0.461  0.495 13.48473 13.53186-10.13183
 4.05 2.25  0.640  0.644  0.653  0.674  0.707 13.73215 13.78415 -9.87958
 4.05 2.50  0.860  0.864  0.873  0.893  0.925 13.97795 14.03782 -9.62599
 4.05 2.75  1.079  1.082  1.090  1.109  1.138 14.22064 14.29407 -9.36967
 4.05 3.00  1.291  1.295  1.303  1.319  1.346 14.45909 14.55352 -9.11008
 4.05 3.20  1.450  1.453  1.460  1.475  1.500 14.64449 14.76511 -8.89853
 4.05 3.40  1.598  1.600  1.606  1.620  1.642 14.82422 14.97971 -8.68400
 4.05 3.60  1.728  1.730  1.736  1.748  1.770 14.99701 15.19852 -8.46525
 4.05 3.80  1.842  1.845  1.849  1.861  1.881 15.16118 15.41968 -8.24410
 4.05 4.00  1.941  1.944  1.947  1.959  1.977 15.31744 15.64138 -8.02237
 4.05 4.20  2.023  2.025  2.030  2.039  2.056 15.46436 15.86341 -7.80027
 4.05 4.40  2.094  2.095  2.099  2.109  2.125 15.60404 16.08544 -7.57817
 4.05 4.60  2.155  2.156  2.160  2.169  2.184 15.73636 16.30615 -7.35745
 4.05 4.80  2.207  2.209  2.213  2.221  2.237 15.86302 16.52395 -7.13971
 4.05 5.00  2.257  2.258  2.261  2.269  2.283 15.98471 16.73965 -6.92409
 4.05 5.20  2.301  2.303  2.306  2.313  2.327 16.10225 16.95254 -6.71117
 4.05 5.40  2.345  2.346  2.349  2.356  2.370 16.21683 17.16342 -6.50026
 4.05 5.60  2.388  2.389  2.392  2.399  2.412 16.32853 17.37231 -6.29137
 4.05 5.80  2.432  2.434  2.436  2.443  2.456 16.43839 17.57967 -6.08405
 4.05 6.00  2.477  2.478  2.481  2.487  2.499 16.54667 17.78562 -5.87811
 4.05 6.25  2.536  2.537  2.539  2.545  2.557 16.68031 18.04136 -5.62233
 4.05 6.50  2.599  2.599  2.602  2.608  2.618 16.81285 18.29579 -5.36785
 4.05 6.75  2.663  2.664  2.666  2.672  2.682 16.94453 18.54923 -5.11435
 4.05 7.00  2.732  2.733  2.735  2.741  2.752 17.07591 18.80188 -4.86170
 4.05 7.25  2.807  2.808  2.810  2.816  2.826 17.20709 19.05386 -4.60985
 4.05 7.50  2.888  2.888  2.891  2.896  2.906 17.33826 19.30535 -4.35843
 4.05 7.75  2.974  2.975  2.977  2.983  2.992 17.47006 19.55650 -4.10724
 4.05 8.00  3.066  3.068  3.069  3.075  3.083 17.60228 19.80726 -3.85636
 4.10-2.00 -0.481 -0.480 -0.477 -0.470 -0.458  9.45909  9.45879-14.20496
 4.10-1.50 -0.477 -0.477 -0.474 -0.466 -0.453  9.95899  9.95880-13.70487
 4.10-1.00 -0.474 -0.472 -0.469 -0.460 -0.447 10.45879 10.45909-13.20461
 4.10-0.50 -0.465 -0.464 -0.460 -0.451 -0.435 10.95813 10.95966-12.70399
 4.10 0.00 -0.448 -0.446 -0.442 -0.431 -0.412 11.45652 11.46135-12.20232
 4.10 0.50 -0.406 -0.405 -0.398 -0.386 -0.363 11.95265 11.96506-11.69854
 4.10 1.00 -0.311 -0.308 -0.301 -0.284 -0.255 12.44685 12.47071-11.19308
 4.10 1.25 -0.229 -0.226 -0.218 -0.199 -0.168 12.69417 12.72320-10.94054
 4.10 1.50 -0.121 -0.117 -0.108 -0.087 -0.054 12.94176 12.97539-10.68825
 4.10 1.75  0.019  0.023  0.032  0.054  0.089 13.19009 13.22699-10.43674
 4.10 2.00  0.187  0.192  0.201  0.223  0.261 13.43870 13.47828-10.18549
 4.10 2.25  0.384  0.387  0.398  0.421  0.458 13.68756 13.72925 -9.93444
 4.10 2.50  0.599  0.604  0.613  0.636  0.673 13.93641 13.98023 -9.68340
 4.10 2.75  0.829  0.832  0.842  0.863  0.900 14.18478 14.23173 -9.43192
 4.10 3.00  1.063  1.067  1.077  1.097  1.132 14.43249 14.48387 -9.17986
 4.10 3.20  1.250  1.253  1.262  1.281  1.313 14.62943 14.68657 -8.97719
 4.10 3.40  1.436  1.438  1.447  1.464  1.493 14.82483 14.89052 -8.77325
 4.10 3.60  1.615  1.618  1.625  1.641  1.668 15.01821 15.09618 -8.56757
 4.10 3.80  1.788  1.789  1.796  1.809  1.835 15.20789 15.30458 -8.35913
 4.10 4.00  1.949  1.951  1.957  1.970  1.992 15.39375 15.51561 -8.14807
 4.10 4.20  2.097  2.099  2.104  2.115  2.135 15.57293 15.73099 -7.93268
 4.10 4.40  2.230  2.232  2.235  2.246  2.263 15.74529 15.94890 -7.71476
 4.10 4.60  2.345  2.347  2.351  2.360  2.375 15.90973 16.17002 -7.49363
 4.10 4.80  2.445  2.446  2.450  2.457  2.471 16.06543 16.39246 -7.27120
 4.10 5.00  2.531  2.532  2.535  2.542  2.555 16.21325 16.61490 -7.04876
 4.10 5.20  2.603  2.604  2.606  2.613  2.625 16.35253 16.83618 -6.82752
 4.10 5.40  2.666  2.667  2.669  2.675  2.687 16.48556 17.05626 -6.60752
 4.10 5.60  2.722  2.723  2.726  2.731  2.741 16.61242 17.27426 -6.38958
 4.10 5.80  2.774  2.775  2.777  2.781  2.792 16.73484 17.48944 -6.17439
 4.10 6.00  2.823  2.824  2.826  2.831  2.839 16.85333 17.70243 -5.96138
 4.10 6.25  2.882  2.883  2.885  2.888  2.897 16.99703 17.96548 -5.69823
 4.10 6.50  2.941  2.942  2.944  2.947  2.955 17.13735 18.22583 -5.43783
 4.10 6.75  3.001  3.002  3.003  3.007  3.015 17.27501 18.48385 -5.17989
 4.10 7.00  3.063  3.064  3.066  3.069  3.077 17.41112 18.74005 -4.92373
 4.10 7.25  3.130  3.131  3.133  3.136  3.144 17.54580 18.99466 -4.66898
 4.10 7.50  3.202  3.202  3.204  3.207  3.215 17.68043 19.24822 -4.41533
 4.10 7.75  3.280  3.280  3.281  3.285  3.292 17.81504 19.50111 -4.16245
 4.10 8.00  3.363  3.363  3.365  3.367  3.374 17.94963 19.75320 -3.91045
 4.15-2.00 -0.481 -0.480 -0.478 -0.472 -0.463  9.40926  9.40875-14.25500
 4.15-1.50 -0.472 -0.470 -0.467 -0.460 -0.446  9.90913  9.90870-13.75498
 4.15-1.00 -0.462 -0.460 -0.456 -0.446 -0.429 10.40909 10.40875-13.25493
 4.15-0.50 -0.452 -0.450 -0.445 -0.433 -0.414 10.90902 10.90881-12.75498
 4.15 0.00 -0.438 -0.436 -0.430 -0.417 -0.396 11.40892 11.40892-12.25469
 4.15 0.50 -0.410 -0.407 -0.401 -0.386 -0.362 11.90838 11.90945-11.75424
 4.15 1.00 -0.343 -0.340 -0.333 -0.317 -0.288 12.40722 12.41061-11.25305
 4.15 1.25 -0.286 -0.283 -0.275 -0.257 -0.226 12.65598 12.66181-11.00180
 4.15 1.50 -0.207 -0.205 -0.196 -0.176 -0.143 12.90423 12.91350-10.75007
 4.15 1.75 -0.105 -0.101 -0.093 -0.072 -0.035 13.15174 13.16597-10.49766
 4.15 2.00  0.020  0.023  0.033  0.055  0.093 13.39898 13.41863-10.24504
 4.15 2.25  0.172  0.177  0.186  0.209  0.248 13.64601 13.67143 -9.99225
 4.15 2.50  0.349  0.354  0.363  0.386  0.425 13.89304 13.92423 -9.73945
 4.15 2.75  0.551  0.556  0.565  0.588  0.625 14.14073 14.17638 -9.48736
 4.15 3.00  0.771  0.775  0.784  0.805  0.842 14.38863 14.42830 -9.23545
 4.15 3.20  0.957  0.961  0.970  0.990  1.025 14.58712 14.62966 -9.03403
 4.15 3.40  1.150  1.154  1.161  1.181  1.213 14.78561 14.83103 -8.83260
 4.15 3.60  1.345  1.348  1.355  1.372  1.402 14.98384 15.03263 -8.63097
 4.15 3.80  1.539  1.543  1.549  1.565  1.592 15.18117 15.23499 -8.42860
 4.15 4.00  1.730  1.733  1.739  1.753  1.778 15.37767 15.43807 -8.22556
 4.15 4.20  1.917  1.919  1.924  1.937  1.960 15.57211 15.64285 -8.02079
 4.15 4.40  2.098  2.099  2.105  2.115  2.135 15.76395 15.84960 -7.81406
 4.15 4.60  2.270  2.271  2.275  2.285  2.303 15.95245 16.05903 -7.60467
 4.15 4.80  2.430  2.431  2.435  2.443  2.458 16.13546 16.27185 -7.39189
 4.15 5.00  2.577  2.578  2.581  2.589  2.601 16.31302 16.48756 -7.17620
 4.15 5.20  2.707  2.707  2.710  2.716  2.727 16.48208 16.70772 -6.95590
 4.15 5.40  2.820  2.821  2.824  2.828  2.839 16.64349 16.92866 -6.73491
 4.15 5.60  2.918  2.919  2.920  2.925  2.934 16.79645 17.15034 -6.51326
 4.15 5.80  3.002  3.003  3.004  3.008  3.016 16.94149 17.37220 -6.29146
 4.15 6.00  3.076  3.077  3.078  3.082  3.089 17.07955 17.59406 -6.06966
 4.15 6.25  3.155  3.156  3.157  3.160  3.167 17.24304 17.86715 -5.79658
 4.15 6.50  3.228  3.229  3.230  3.233  3.239 17.39915 18.13704 -5.52666
 4.15 6.75  3.296  3.296  3.297  3.299  3.306 17.54906 18.40301 -5.26070
 4.15 7.00  3.362  3.362  3.363  3.365  3.372 17.69487 18.66586 -4.99783
 4.15 7.25  3.429  3.430  3.431  3.433  3.438 17.83732 18.92577 -4.73785
 4.15 7.50  3.499  3.499  3.500  3.503  3.508 17.97809 19.18356 -4.48004
 4.15 7.75  3.572  3.573  3.574  3.576  3.581 18.11798 19.43985 -4.22383
 4.15 8.00  3.651  3.651  3.652  3.654  3.659 18.25672 19.69443 -3.96940
 4.20-2.00 -0.486 -0.486 -0.484 -0.481 -0.477  9.35908  9.35870-14.30504
 4.20-1.50 -0.479 -0.479 -0.477 -0.472 -0.465  9.85914  9.85866-13.80493
 4.20-1.00 -0.468 -0.467 -0.464 -0.457 -0.446 10.35908 10.35870-13.30496
 4.20-0.50 -0.451 -0.451 -0.446 -0.436 -0.420 10.85908 10.85872-12.80493
 4.20 0.00 -0.431 -0.428 -0.423 -0.410 -0.387 11.35908 11.35889-12.30487
 4.20 0.50 -0.403 -0.400 -0.394 -0.377 -0.349 11.85890 11.85884-11.80493
 4.20 1.00 -0.357 -0.354 -0.345 -0.326 -0.293 12.35870 12.35908-11.30461
 4.20 1.25 -0.318 -0.315 -0.306 -0.286 -0.250 12.60854 12.60925-11.05439
 4.20 1.50 -0.264 -0.260 -0.251 -0.229 -0.191 12.85830 12.85950-10.80410
 4.20 1.75 -0.189 -0.185 -0.175 -0.152 -0.112 13.10786 13.10993-10.55370
 4.20 2.00 -0.091 -0.087 -0.076 -0.053 -0.011 13.35717 13.36059-10.30312
 4.20 2.25  0.032  0.036  0.046  0.071  0.114 13.60609 13.61164-10.05206
 4.20 2.50  0.178  0.183  0.192  0.217  0.259 13.85455 13.86314 -9.80052
 4.20 2.75  0.350  0.354  0.363  0.387  0.428 14.10223 14.11543 -9.54820
 4.20 3.00  0.538  0.541  0.551  0.573  0.612 14.34947 14.36810 -9.29551
 4.20 3.20  0.704  0.707  0.716  0.737  0.773 14.54690 14.57054 -9.09307
 4.20 3.40  0.877  0.880  0.888  0.908  0.941 14.74433 14.77297 -8.89063
 4.20 3.60  1.059  1.062  1.069  1.088  1.118 14.94193 14.97525 -8.68838
 4.20 3.80  1.248  1.252  1.258  1.275  1.303 15.13969 15.17737 -8.48631
 4.20 4.00  1.442  1.444  1.451  1.465  1.491 15.33746 15.37949 -8.28425
 4.20 4.20  1.640  1.643  1.648  1.661  1.685 15.53500 15.58171 -8.08204
 4.20 4.40  1.839  1.840  1.845  1.858  1.878 15.73223 15.78410 -7.87962
 4.20 4.60  2.035  2.037  2.041  2.051  2.070 15.92874 15.98709 -7.67659
 4.20 4.80  2.228  2.230  2.234  2.242  2.258 16.12346 16.19163 -7.47204
 4.20 5.00  2.416  2.417  2.420  2.428  2.442 16.31639 16.39759 -7.26608
 4.20 5.20  2.596  2.597  2.599  2.605  2.618 16.50556 16.60644 -7.05727
 4.20 5.40  2.766  2.766  2.768  2.773  2.783 16.69035 16.81800 -6.84575
 4.20 5.60  2.921  2.921  2.923  2.928  2.936 16.86969 17.03318 -6.63054
 4.20 5.80  3.061  3.062  3.062  3.066  3.073 17.04162 17.25137 -6.41228
 4.20 6.00  3.185  3.186  3.187  3.189  3.195 17.20656 17.47144 -6.19219
 4.20 6.25  3.315  3.316  3.317  3.319  3.324 17.40028 17.74899 -5.91476
 4.20 6.50  3.428  3.428  3.428  3.431  3.434 17.58275 18.02654 -5.63733
 4.20 6.75  3.522  3.522  3.523  3.524  3.529 17.75416 18.30118 -5.36262
 4.20 7.00  3.607  3.608  3.608  3.610  3.614 17.91751 18.57322 -5.09044
 4.20 7.25  3.686  3.687  3.687  3.689  3.693 18.07388 18.84130 -4.82238
 4.20 7.50  3.764  3.764  3.765  3.766  3.770 18.22583 19.10619 -4.55752
 4.20 7.75  3.841  3.841  3.842  3.843  3.846 18.37501 19.36822 -4.29552
 4.20 8.00  3.921  3.921  3.921  3.923  3.925 18.52088 19.62726 -4.03650
 4.25-2.00 -0.481 -0.481 -0.480 -0.477 -0.473  9.30920  9.30856-14.35507
 4.25-1.50 -0.479 -0.479 -0.477 -0.474 -0.468  9.80916  9.80862-13.85511
 4.25-1.00 -0.472 -0.472 -0.470 -0.466 -0.458 10.30920 10.30878-13.35497
 4.25-0.50 -0.461 -0.461 -0.458 -0.452 -0.442 10.80909 10.80868-12.85511
 4.25 0.00 -0.442 -0.442 -0.438 -0.429 -0.415 11.30899 11.30878-12.35497
 4.25 0.50 -0.414 -0.412 -0.407 -0.395 -0.373 11.80902 11.80875-11.85480
 4.25 1.00 -0.369 -0.367 -0.359 -0.343 -0.312 12.30899 12.30878-11.35477
 4.25 1.25 -0.337 -0.334 -0.326 -0.307 -0.272 12.55892 12.55885-11.10479
 4.25 1.50 -0.292 -0.289 -0.280 -0.258 -0.218 12.80882 12.80895-10.85480
 4.25 1.75 -0.236 -0.233 -0.222 -0.198 -0.155 13.05871 13.05907-10.60461
 4.25 2.00 -0.162 -0.157 -0.146 -0.120 -0.073 13.30857 13.30920-10.35438
 4.25 2.25 -0.068 -0.064 -0.053 -0.025  0.023 13.55836 13.55940-10.10415
 4.25 2.50  0.046  0.050  0.061  0.089  0.139 13.80808 13.80969 -9.85387
 4.25 2.75  0.186  0.191  0.201  0.229  0.278 14.05759 14.06017 -9.60341
 4.25 3.00  0.349  0.354  0.364  0.390  0.435 14.30685 14.31091 -9.35271
 4.25 3.20  0.500  0.503  0.513  0.537  0.579 14.50593 14.51182 -9.15182
 4.25 3.40  0.660  0.664  0.673  0.694  0.733 14.70468 14.71305 -8.95059
 4.25 3.60  0.831  0.835  0.842  0.862  0.897 14.90300 14.91470 -8.74892
 4.25 3.80  1.010  1.013  1.020  1.038  1.069 15.10088 15.11676 -8.54684
 4.25 4.00  1.193  1.195  1.201  1.217  1.243 15.29842 15.31911 -8.34448
 4.25 4.20  1.382  1.385  1.390  1.403  1.428 15.49560 15.52174 -8.14186
 4.25 4.40  1.574  1.576  1.581  1.593  1.614 15.69265 15.72448 -7.93913
 4.25 4.60  1.770  1.773  1.776  1.787  1.806 15.88964 15.92726 -7.73636
 4.25 4.80  1.971  1.972  1.976  1.985  2.002 16.08655 16.13009 -7.53354
 4.25 5.00  2.171  2.173  2.175  2.183  2.197 16.28330 16.33304 -7.33059
 4.25 5.20  2.373  2.375  2.378  2.384  2.396 16.47904 16.53682 -7.12682
 4.25 5.40  2.571  2.571  2.574  2.579  2.589 16.67351 16.74160 -6.92206
 4.25 5.60  2.763  2.764  2.766  2.769  2.778 16.86612 16.94788 -6.71576
 4.25 5.80  2.948  2.948  2.951  2.954  2.961 17.05513 17.15671 -6.50691
 4.25 6.00  3.123  3.124  3.125  3.127  3.132 17.24055 17.36791 -6.29568
 4.25 6.25  3.320  3.320  3.322  3.323  3.328 17.46338 17.63737 -6.02636
 4.25 6.50  3.495  3.495  3.496  3.498  3.502 17.67633 17.91030 -5.75350
 4.25 6.75  3.642  3.642  3.643  3.644  3.647 17.87659 18.18702 -5.47670
 4.25 7.00  3.770  3.770  3.771  3.772  3.774 18.06595 18.46374 -5.19990
 4.25 7.25  3.879  3.879  3.879  3.881  3.882 18.24416 18.73879 -4.92477
 4.25 7.50  3.978  3.979  3.979  3.980  3.983 18.41431 19.01199 -4.65150
 4.25 7.75  4.070  4.070  4.071  4.071  4.073 18.57855 19.28140 -4.38218
 4.25 8.00  4.160  4.160  4.160  4.160  4.163 18.73616 19.54765 -4.11611
 4.30-2.00 -0.471 -0.471 -0.470 -0.467 -0.461  9.26055  9.25744-14.40638
 4.30-1.50 -0.470 -0.469 -0.468 -0.464 -0.457  9.75959  9.75815-13.90553
 4.30-1.00 -0.465 -0.465 -0.463 -0.459 -0.451 10.25935 10.25864-13.40517
 4.30-0.50 -0.458 -0.458 -0.456 -0.451 -0.442 10.75914 10.75861-12.90518
 4.30 0.00 -0.447 -0.446 -0.443 -0.437 -0.426 11.25912 11.25864-12.40494
 4.30 0.50 -0.424 -0.423 -0.420 -0.412 -0.397 11.75899 11.75876-11.90483
 4.30 1.00 -0.389 -0.387 -0.383 -0.373 -0.352 12.25912 12.25888-11.40483
 4.30 1.25 -0.363 -0.361 -0.356 -0.343 -0.319 12.50901 12.50886-11.15483
 4.30 1.50 -0.330 -0.327 -0.321 -0.305 -0.278 12.75891 12.75884-10.90483
 4.30 1.75 -0.284 -0.280 -0.273 -0.255 -0.222 13.00889 13.00898-10.65479
 4.30 2.00 -0.222 -0.220 -0.210 -0.188 -0.149 13.25888 13.25912-10.40473
 4.30 2.25 -0.145 -0.141 -0.131 -0.106 -0.062 13.50877 13.50913-10.15461
 4.30 2.50 -0.048 -0.043 -0.032 -0.005  0.044 13.75861 13.75914 -9.90448
 4.30 2.75  0.068  0.072  0.083  0.111  0.163 14.00841 14.00934 -9.65434
 4.30 3.00  0.205  0.209  0.221  0.250  0.302 14.25816 14.25959 -9.40417
 4.30 3.20  0.332  0.336  0.347  0.375  0.424 14.45795 14.45980 -9.20395
 4.30 3.40  0.473  0.477  0.486  0.513  0.559 14.65769 14.66005 -9.00363
 4.30 3.60  0.628  0.632  0.641  0.664  0.707 14.85735 14.86044 -8.80320
 4.30 3.80  0.797  0.801  0.808  0.829  0.867 15.05678 15.06110 -8.60258
 4.30 4.00  0.973  0.976  0.983  1.001  1.034 15.25600 15.26198 -8.40176
 4.30 4.20  1.161  1.163  1.170  1.185  1.214 15.45476 15.46313 -8.20063
 4.30 4.40  1.352  1.354  1.359  1.372  1.396 15.65311 15.66463 -7.99914
 4.30 4.60  1.546  1.548  1.553  1.564  1.583 15.85096 15.86664 -7.79714
 4.30 4.80  1.743  1.746  1.749  1.759  1.776 16.04833 16.06917 -7.59461
 4.30 5.00  1.941  1.942  1.945  1.952  1.967 16.24527 16.27207 -7.39169
 4.30 5.20  2.144  2.145  2.148  2.154  2.166 16.44196 16.47516 -7.18854
 4.30 5.40  2.346  2.347  2.349  2.355  2.365 16.63816 16.67865 -6.98499
 4.30 5.60  2.550  2.551  2.553  2.557  2.566 16.83389 16.88251 -6.78108
 4.30 5.80  2.755  2.755  2.757  2.760  2.767 17.02872 17.08707 -6.57654
 4.30 6.00  2.954  2.954  2.955  2.957  2.963 17.22246 17.29248 -6.37120
 4.30 6.25  3.195  3.196  3.197  3.198  3.203 17.46096 17.55204 -6.11170
 4.30 6.50  3.424  3.424  3.425  3.426  3.430 17.69461 17.81485 -5.84894
 4.30 6.75  3.632  3.632  3.632  3.633  3.635 17.91980 18.08292 -5.58079
 4.30 7.00  3.818  3.818  3.818  3.819  3.821 18.13609 18.35449 -5.30918
 4.30 7.25  3.976  3.977  3.977  3.977  3.979 18.34061 18.63017 -5.03357
 4.30 7.50  4.118  4.118  4.118  4.119  4.121 18.53504 18.90585 -4.75796
 4.30 7.75  4.238  4.239  4.240  4.240  4.241 18.72012 19.18030 -4.48349
 4.30 8.00  4.352  4.352  4.352  4.352  4.354 18.89559 19.45393 -4.20979
 4.35-2.00 -0.447 -0.447 -0.446 -0.443 -0.439  9.22272  9.19452-14.46903
 4.35-1.50 -0.450 -0.450 -0.448 -0.445 -0.438  9.71792  9.69967-13.96417
 4.35-1.00 -0.451 -0.451 -0.448 -0.444 -0.436 10.21352 10.20439-13.45930
 4.35-0.50 -0.447 -0.447 -0.444 -0.439 -0.428 10.71071 10.70706-12.95664
 4.35 0.00 -0.438 -0.437 -0.435 -0.428 -0.416 11.20978 11.20817-12.45556
 4.35 0.50 -0.421 -0.421 -0.417 -0.410 -0.396 11.70927 11.70851-11.95507
 4.35 1.00 -0.392 -0.391 -0.388 -0.378 -0.362 12.20898 12.20871-11.45494
 4.35 1.25 -0.372 -0.370 -0.366 -0.356 -0.338 12.45894 12.45878-11.20481
 4.35 1.50 -0.346 -0.345 -0.340 -0.329 -0.308 12.70893 12.70885-10.95468
 4.35 1.75 -0.312 -0.310 -0.305 -0.292 -0.269 12.95895 12.95891-10.70469
 4.35 2.00 -0.269 -0.266 -0.261 -0.245 -0.219 13.20898 13.20898-10.45469
 4.35 2.25 -0.209 -0.206 -0.200 -0.183 -0.151 13.45887 13.45900-10.20469
 4.35 2.50 -0.134 -0.130 -0.122 -0.102 -0.067 13.70876 13.70902 -9.95468
 4.35 2.75 -0.036 -0.033 -0.025 -0.002  0.038 13.95874 13.95912 -9.70456
 4.35 3.00  0.080  0.084  0.094  0.119  0.163 14.20871 14.20925 -9.45445
 4.35 3.20  0.193  0.197  0.206  0.231  0.277 14.40855 14.40935 -9.25438
 4.35 3.40  0.319  0.323  0.333  0.358  0.404 14.60836 14.60946 -9.05432
 4.35 3.60  0.461  0.465  0.474  0.498  0.543 14.80815 14.80960 -8.85419
 4.35 3.80  0.616  0.619  0.627  0.650  0.692 15.00791 15.00980 -8.65393
 4.35 4.00  0.782  0.785  0.793  0.813  0.851 15.20763 15.21005 -8.45358
 4.35 4.20  0.960  0.962  0.970  0.987  1.021 15.40728 15.41041 -8.25317
 4.35 4.40  1.145  1.147  1.153  1.168  1.197 15.60682 15.61092 -8.05264
 4.35 4.60  1.337  1.339  1.345  1.357  1.382 15.80622 15.81158 -7.85198
 4.35 4.80  1.536  1.537  1.542  1.552  1.572 16.00532 16.01253 -7.65107
 4.35 5.00  1.735  1.737  1.740  1.748  1.765 16.20412 16.21378 -7.44989
 4.35 5.20  1.941  1.942  1.945  1.951  1.965 16.40224 16.41556 -7.24817
 4.35 5.40  2.146  2.147  2.148  2.155  2.166 16.59979 16.61784 -7.04594
 4.35 5.60  2.352  2.352  2.353  2.358  2.366 16.79683 16.82065 -6.84313
 4.35 5.80  2.558  2.558  2.561  2.564  2.570 16.99324 17.02408 -6.63967
 4.35 6.00  2.763  2.764  2.765  2.767  2.773 17.18893 17.22814 -6.43557
 4.35 6.25  3.024  3.024  3.026  3.028  3.032 17.43234 17.48402 -6.17965
 4.35 6.50  3.278  3.278  3.278  3.280  3.282 17.67376 17.74139 -5.92227
 4.35 6.75  3.523  3.523  3.523  3.524  3.527 17.91187 18.00138 -5.66234
 4.35 7.00  3.755  3.755  3.755  3.757  3.759 18.14551 18.26435 -5.39946
 4.35 7.25  3.967  3.967  3.967  3.967  3.969 18.37134 18.53194 -5.13186
 4.35 7.50  4.159  4.159  4.160  4.160  4.161 18.58906 18.80271 -4.86107
 4.35 7.75  4.325  4.325  4.325  4.326  4.326 18.79651 19.07591 -4.58781
 4.35 8.00  4.476  4.476  4.476  4.476  4.477 18.99441 19.35180 -4.31185
 4.40-2.00 -0.440 -0.440 -0.438 -0.437 -0.433  9.17725  9.13988-14.52375
 4.40-1.50 -0.436 -0.436 -0.435 -0.433 -0.428  9.67660  9.64038-14.02333
 4.40-1.00 -0.432 -0.432 -0.431 -0.428 -0.421 10.17551 10.14176-13.52187
 4.40-0.50 -0.428 -0.428 -0.425 -0.421 -0.413 10.67228 10.64503-13.01868
 4.40 0.00 -0.423 -0.422 -0.419 -0.414 -0.402 11.16761 11.15014-12.51357
 4.40 0.50 -0.410 -0.410 -0.407 -0.399 -0.384 11.66295 11.65475-12.00895
 4.40 1.00 -0.386 -0.385 -0.381 -0.371 -0.353 12.16047 12.15715-11.50640
 4.40 1.25 -0.368 -0.366 -0.362 -0.352 -0.332 12.40986 12.40785-11.25579
 4.40 1.50 -0.344 -0.342 -0.338 -0.326 -0.306 12.65944 12.65830-11.00537
 4.40 1.75 -0.314 -0.312 -0.308 -0.296 -0.273 12.90915 12.90851-10.75507
 4.40 2.00 -0.278 -0.276 -0.271 -0.258 -0.234 13.15897 13.15866-10.50487
 4.40 2.25 -0.232 -0.230 -0.225 -0.210 -0.183 13.40892 13.40877-10.25482
 4.40 2.50 -0.175 -0.172 -0.167 -0.151 -0.122 13.65887 13.65887-10.00476
 4.40 2.75 -0.100 -0.097 -0.090 -0.073 -0.041 13.90877 13.90907 -9.75468
 4.40 3.00 -0.007 -0.004  0.002  0.021  0.055 14.15866 14.15927 -9.50459
 4.40 3.20  0.084  0.087  0.095  0.115  0.151 14.35859 14.35926 -9.30452
 4.40 3.40  0.192  0.194  0.203  0.222  0.260 14.55852 14.55925 -9.10445
 4.40 3.60  0.316  0.319  0.326  0.347  0.384 14.75840 14.75929 -8.90434
 4.40 3.80  0.458  0.461  0.468  0.488  0.525 14.95823 14.95941 -8.70420
 4.40 4.00  0.613  0.615  0.622  0.640  0.676 15.15806 15.15957 -8.50404
 4.40 4.20  0.784  0.786  0.792  0.809  0.842 15.35789 15.35975 -8.30387
 4.40 4.40  0.964  0.965  0.971  0.987  1.016 15.55772 15.55998 -8.10368
 4.40 4.60  1.151  1.153  1.158  1.172  1.198 15.75752 15.76025 -7.90345
 4.40 4.80  1.346  1.347  1.352  1.364  1.387 15.95723 15.96061 -7.70310
 4.40 5.00  1.544  1.546  1.549  1.559  1.578 16.15685 16.16107 -7.50266
 4.40 5.20  1.750  1.750  1.753  1.762  1.778 16.35616 16.36171 -7.30201
 4.40 5.40  1.956  1.957  1.959  1.965  1.977 16.55517 16.56260 -7.10111
 4.40 5.60  2.165  2.165  2.167  2.173  2.182 16.75387 16.76378 -6.89989
 4.40 5.80  2.375  2.376  2.378  2.382  2.389 16.95211 16.96545 -6.69817
 4.40 6.00  2.585  2.586  2.587  2.589  2.595 17.14983 17.16761 -6.49594
 4.40 6.25  2.852  2.853  2.853  2.855  2.860 17.39585 17.42144 -6.24216
 4.40 6.50  3.116  3.116  3.116  3.118  3.121 17.64048 17.67651 -5.98716
 4.40 6.75  3.382  3.382  3.382  3.383  3.385 17.88350 17.93294 -5.73075
 4.40 7.00  3.636  3.636  3.637  3.638  3.639 18.12418 18.19117 -5.47250
 4.40 7.25  3.882  3.882  3.882  3.882  3.884 18.36124 18.45191 -5.21172
 4.40 7.50  4.114  4.114  4.114  4.114  4.115 18.59373 18.71550 -4.94808
 4.40 7.75  4.323  4.323  4.324  4.324  4.325 18.81881 18.98291 -4.68068
 4.40 8.00  4.517  4.517  4.517  4.518  4.518 19.03743 19.25382 -4.40983
 4.45-2.00 -0.434 -0.434 -0.433 -0.431 -0.428  9.12743  9.08955-14.57398
 4.45-1.50 -0.431 -0.431 -0.430 -0.428 -0.424  9.62726  9.58961-14.07407
 4.45-1.00 -0.428 -0.428 -0.427 -0.424 -0.419 10.12711 10.08990-13.57398
 4.45-0.50 -0.423 -0.422 -0.420 -0.418 -0.411 10.62696 10.59006-13.07366
 4.45 0.00 -0.414 -0.414 -0.412 -0.408 -0.400 11.12646 11.09096-12.57284
 4.45 0.50 -0.401 -0.400 -0.398 -0.392 -0.382 11.62439 11.59273-12.07094
 4.45 1.00 -0.379 -0.378 -0.375 -0.368 -0.352 12.12057 12.09691-11.56671
 4.45 1.25 -0.363 -0.362 -0.358 -0.349 -0.331 12.36805 12.34954-11.31412
 4.45 1.50 -0.340 -0.338 -0.335 -0.324 -0.303 12.61553 12.60217-11.06153
 4.45 1.75 -0.312 -0.310 -0.306 -0.294 -0.271 12.86338 12.85438-10.80933
 4.45 2.00 -0.275 -0.273 -0.268 -0.255 -0.229 13.11160 13.10619-10.55752
 4.45 2.25 -0.232 -0.230 -0.225 -0.210 -0.182 13.36051 13.35717-10.30649
 4.45 2.50 -0.180 -0.178 -0.172 -0.155 -0.125 13.60981 13.60788-10.05576
 4.45 2.75 -0.117 -0.114 -0.108 -0.090 -0.058 13.85952 13.85849 -9.80522
 4.45 3.00 -0.041 -0.038 -0.031 -0.013  0.020 14.10924 14.10890 -9.55486
 4.45 3.20  0.034  0.037  0.044  0.062  0.097 14.30900 14.30897 -9.35475
 4.45 3.40  0.122  0.124  0.132  0.150  0.186 14.50875 14.50903 -9.15464
 4.45 3.60  0.226  0.229  0.236  0.254  0.289 14.70854 14.70916 -8.95451
 4.45 3.80  0.347  0.350  0.356  0.374  0.407 14.90837 14.90937 -8.75438
 4.45 4.00  0.483  0.485  0.491  0.507  0.539 15.10823 15.10958 -8.55424
 4.45 4.20  0.640  0.641  0.647  0.662  0.692 15.30813 15.30967 -8.35412
 4.45 4.40  0.807  0.808  0.814  0.827  0.854 15.50804 15.50976 -8.15400
 4.45 4.60  0.987  0.989  0.993  1.005  1.030 15.70793 15.70987 -7.95384
 4.45 4.80  1.178  1.179  1.184  1.194  1.215 15.90776 15.91004 -7.75359
 4.45 5.00  1.373  1.374  1.377  1.387  1.405 16.10755 16.11025 -7.55331
 4.45 5.20  1.577  1.578  1.581  1.589  1.605 16.30721 16.31055 -7.35301
 4.45 5.40  1.783  1.784  1.786  1.793  1.807 16.50676 16.51095 -7.15267
 4.45 5.60  1.992  1.993  1.994  2.000  2.011 16.70620 16.71149 -6.95220
 4.45 5.80  2.203  2.204  2.205  2.210  2.219 16.90545 16.91227 -6.75148
 4.45 6.00  2.414  2.414  2.416  2.418  2.426 17.10449 17.11327 -6.55052
 4.45 6.25  2.684  2.685  2.686  2.688  2.694 17.35274 17.36499 -6.29879
 4.45 6.50  2.954  2.954  2.954  2.956  2.959 17.60021 17.61742 -6.04629
 4.45 6.75  3.228  3.228  3.228  3.230  3.233 17.84639 17.87107 -5.79257
 4.45 7.00  3.498  3.499  3.499  3.500  3.501 18.09096 18.12613 -5.53745
 4.45 7.25  3.766  3.766  3.766  3.767  3.769 18.33325 18.38313 -5.28051
 4.45 7.50  4.021  4.021  4.021  4.022  4.023 18.57276 18.64227 -5.02145
 4.45 7.75  4.261  4.261  4.261  4.261  4.262 18.80813 18.90412 -4.75958
 4.45 8.00  4.488  4.488  4.488  4.489  4.489 19.03981 19.16850 -4.49512
 4.50-2.00 -0.433 -0.433 -0.432 -0.430 -0.427  9.07737  9.03981-14.62397
 4.50-1.50 -0.428 -0.428 -0.427 -0.425 -0.420  9.57738  9.53958-14.12407
 4.50-1.00 -0.423 -0.423 -0.421 -0.419 -0.414 10.07737 10.03981-13.62397
 4.50-0.50 -0.418 -0.417 -0.416 -0.413 -0.407 10.57726 10.53970-13.12401
 4.50 0.00 -0.411 -0.410 -0.409 -0.405 -0.398 11.07737 11.03981-12.62397
 4.50 0.50 -0.401 -0.400 -0.398 -0.395 -0.384 11.57703 11.53995-12.12378
 4.50 1.00 -0.384 -0.383 -0.381 -0.375 -0.363 12.07664 12.04060-11.62324
 4.50 1.25 -0.369 -0.368 -0.367 -0.359 -0.345 12.32607 12.29115-11.37266
 4.50 1.50 -0.350 -0.350 -0.346 -0.339 -0.322 12.57519 12.54195-11.12177
 4.50 1.75 -0.323 -0.322 -0.319 -0.310 -0.291 12.82394 12.79341-10.87028
 4.50 2.00 -0.287 -0.285 -0.282 -0.271 -0.250 13.07225 13.04532-10.61834
 4.50 2.25 -0.241 -0.239 -0.235 -0.223 -0.199 13.31976 13.29784-10.36581
 4.50 2.50 -0.185 -0.183 -0.178 -0.164 -0.137 13.56726 13.55035-10.11328
 4.50 2.75 -0.121 -0.119 -0.113 -0.097 -0.067 13.81485 13.80275 -9.86084
 4.50 3.00 -0.046 -0.043 -0.037 -0.019  0.015 14.06258 14.05500 -9.60854
 4.50 3.20  0.021  0.024  0.031  0.050  0.087 14.26143 14.25625 -9.40733
 4.50 3.40  0.100  0.102  0.110  0.130  0.168 14.46052 14.45724 -9.20639
 4.50 3.60  0.190  0.193  0.201  0.220  0.259 14.65980 14.65793 -9.00572
 4.50 3.80  0.294  0.298  0.304  0.324  0.361 14.85922 14.85843 -8.80522
 4.50 4.00  0.413  0.415  0.421  0.440  0.475 15.05881 15.05881 -8.60485
 4.50 4.20  0.551  0.553  0.559  0.576  0.609 15.25859 15.25908 -8.40458
 4.50 4.40  0.701  0.703  0.709  0.723  0.752 15.45842 15.45932 -8.20435
 4.50 4.60  0.868  0.868  0.873  0.885  0.911 15.65829 15.65953 -8.00416
 4.50 4.80  1.046  1.047  1.052  1.062  1.083 15.85817 15.85974 -7.80398
 4.50 5.00  1.230  1.232  1.235  1.243  1.261 16.05805 16.05994 -7.60380
 4.50 5.20  1.429  1.430  1.433  1.440  1.456 16.25778 16.26016 -7.40357
 4.50 5.40  1.630  1.631  1.633  1.639  1.652 16.45745 16.46039 -7.20330
 4.50 5.60  1.836  1.836  1.839  1.844  1.855 16.65708 16.66065 -7.00297
 4.50 5.80  2.046  2.047  2.049  2.053  2.062 16.85665 16.86100 -6.80256
 4.50 6.00  2.257  2.258  2.259  2.263  2.270 17.05614 17.06145 -6.60206
 4.50 6.25  2.526  2.527  2.528  2.530  2.536 17.30530 17.31234 -6.35125
 4.50 6.50  2.793  2.793  2.794  2.796  2.800 17.55413 17.56360 -6.10013
 4.50 6.75  3.070  3.070  3.071  3.072  3.076 17.80229 17.81534 -5.84832
 4.50 7.00  3.346  3.346  3.347  3.348  3.350 18.04961 18.06782 -5.59568
 4.50 7.25  3.625  3.625  3.626  3.626  3.628 18.29554 18.32174 -5.34180
 4.50 7.50  3.898  3.898  3.898  3.899  3.900 18.53970 18.57726 -5.08640
 4.50 7.75  4.162  4.162  4.163  4.163  4.164 18.78090 18.83503 -4.82864
 4.50 8.00  4.411  4.411  4.411  4.411  4.411 19.01953 19.09482 -4.56880
 4.55-2.00 -0.434 -0.433 -0.433 -0.431 -0.428  9.02735  8.98963-14.67407
 4.55-1.50 -0.431 -0.431 -0.430 -0.428 -0.424  9.52737  9.48954-14.17406
 4.55-1.00 -0.426 -0.425 -0.425 -0.423 -0.419 10.02735  9.98967-13.67407
 4.55-0.50 -0.419 -0.419 -0.419 -0.415 -0.410 10.52737 10.48968-13.17406
 4.55 0.00 -0.411 -0.410 -0.409 -0.406 -0.399 11.02735 10.98967-12.67407
 4.55 0.50 -0.400 -0.400 -0.398 -0.394 -0.385 11.52724 11.48968-12.17399
 4.55 1.00 -0.385 -0.385 -0.383 -0.377 -0.366 12.02735 11.98981-11.67387
 4.55 1.25 -0.375 -0.374 -0.373 -0.367 -0.354 12.27719 12.23988-11.42380
 4.55 1.50 -0.362 -0.362 -0.359 -0.352 -0.338 12.52699 12.48996-11.17373
 4.55 1.75 -0.343 -0.342 -0.339 -0.332 -0.316 12.77678 12.74015-10.92355
 4.55 2.00 -0.317 -0.315 -0.312 -0.304 -0.286 13.02653 12.99047-10.67325
 4.55 2.25 -0.278 -0.278 -0.274 -0.264 -0.244 13.27610 13.24099-10.42273
 4.55 2.50 -0.228 -0.226 -0.222 -0.211 -0.190 13.52543 13.49178-10.17192
 4.55 2.75 -0.160 -0.159 -0.155 -0.142 -0.116 13.77416 13.74306 -9.92057
 4.55 3.00 -0.078 -0.076 -0.072 -0.058 -0.030 14.02243 13.99480 -9.66878
 4.55 3.20 -0.003 -0.001  0.004  0.020  0.049 14.22059 14.19681 -9.46685
 4.55 3.40  0.081  0.083  0.089  0.105  0.138 14.41869 14.39882 -9.26488
 4.55 3.60  0.173  0.174  0.181  0.199  0.233 14.61675 14.60083 -9.06285
 4.55 3.80  0.273  0.275  0.281  0.301  0.336 14.81479 14.80280 -8.86080
 4.55 4.00  0.384  0.387  0.393  0.412  0.449 15.01284 15.00475 -8.65876
 4.55 4.20  0.508  0.511  0.517  0.535  0.571 15.21151 15.20612 -8.45741
 4.55 4.40  0.646  0.648  0.653  0.670  0.703 15.41044 15.40725 -8.25633
 4.55 4.60  0.796  0.799  0.804  0.819  0.848 15.60967 15.60816 -8.05553
 4.55 4.80  0.961  0.963  0.967  0.979  1.005 15.80907 15.80890 -7.85490
 4.55 5.00  1.134  1.135  1.138  1.148  1.168 16.00860 16.00945 -7.65443
 4.55 5.20  1.319  1.320  1.323  1.332  1.349 16.20824 16.20967 -7.45412
 4.55 5.40  1.509  1.510  1.512  1.518  1.532 16.40789 16.40990 -7.25382
 4.55 5.60  1.706  1.707  1.708  1.714  1.724 16.60756 16.61013 -7.05351
 4.55 5.80  1.910  1.911  1.913  1.916  1.925 16.80723 16.81041 -6.85319
 4.55 6.00  2.115  2.115  2.116  2.119  2.127 17.00690 17.01073 -6.65286
 4.55 6.25  2.380  2.380  2.382  2.384  2.389 17.25636 17.26127 -6.40233
 4.55 6.50  2.644  2.644  2.644  2.647  2.651 17.50569 17.51202 -6.15163
 4.55 6.75  2.915  2.915  2.916  2.918  2.921 17.75477 17.76307 -5.90060
 4.55 7.00  3.190  3.190  3.190  3.191  3.194 18.00346 18.01452 -5.64917
 4.55 7.25  3.470  3.470  3.470  3.471  3.472 18.25132 18.26650 -5.39721
 4.55 7.50  3.747  3.747  3.747  3.748  3.750 18.49817 18.51930 -5.14442
 4.55 7.75  4.023  4.023  4.023  4.023  4.024 18.74335 18.77383 -4.88990
 4.55 8.00  4.290  4.290  4.290  4.290  4.291 18.98709 19.02979 -4.63395
 4.60-2.00 -0.430 -0.429 -0.429 -0.428 -0.424  8.97740  8.93962-14.72400
 4.60-1.50 -0.428 -0.428 -0.428 -0.426 -0.421  9.47741  9.43965-14.22410
 4.60-1.00 -0.425 -0.425 -0.424 -0.423 -0.419  9.97736  9.93962-13.72400
 4.60-0.50 -0.421 -0.421 -0.420 -0.419 -0.414 10.47727 10.43965-13.22410
 4.60 0.00 -0.416 -0.416 -0.415 -0.412 -0.406 10.97736 10.93967-12.72400
 4.60 0.50 -0.407 -0.407 -0.406 -0.403 -0.395 11.47727 11.43965-12.22403
 4.60 1.00 -0.394 -0.393 -0.392 -0.387 -0.378 11.97731 11.93972-11.72400
 4.60 1.25 -0.384 -0.384 -0.382 -0.377 -0.367 12.22730 12.18976-11.47398
 4.60 1.50 -0.373 -0.372 -0.371 -0.364 -0.352 12.47727 12.43981-11.22395
 4.60 1.75 -0.358 -0.357 -0.355 -0.349 -0.335 12.72723 12.68984-10.97386
 4.60 2.00 -0.338 -0.336 -0.335 -0.327 -0.311 12.97717 12.93987-10.72377
 4.60 2.25 -0.310 -0.310 -0.306 -0.298 -0.280 13.22710 13.18997-10.47372
 4.60 2.50 -0.273 -0.271 -0.269 -0.259 -0.238 13.47698 13.44012-10.22366
 4.60 2.75 -0.221 -0.220 -0.216 -0.205 -0.182 13.72677 13.69034 -9.97345
 4.60 3.00 -0.152 -0.151 -0.147 -0.135 -0.109 13.97644 13.94067 -9.72308
 4.60 3.20 -0.082 -0.080 -0.076 -0.063 -0.036 14.17603 14.14107 -9.52264
 4.60 3.40  0.000  0.002  0.007  0.020  0.049 14.37545 14.34165 -9.32202
 4.60 3.60  0.097  0.098  0.104  0.117  0.148 14.57464 14.54252 -9.12111
 4.60 3.80  0.207  0.208  0.213  0.229  0.259 14.77352 14.74376 -8.91984
 4.60 4.00  0.327  0.330  0.335  0.350  0.380 14.97211 14.94532 -8.71828
 4.60 4.20  0.460  0.462  0.467  0.482  0.512 15.17013 15.14742 -8.51624
 4.60 4.40  0.600  0.602  0.607  0.622  0.651 15.36815 15.34951 -8.31420
 4.60 4.60  0.749  0.751  0.755  0.769  0.798 15.56618 15.55158 -8.11216
 4.60 4.80  0.906  0.907  0.911  0.924  0.949 15.76424 15.75356 -7.91016
 4.60 5.00  1.069  1.071  1.074  1.085  1.108 15.96232 15.95545 -7.70819
 4.60 5.20  1.241  1.243  1.246  1.255  1.275 16.16096 16.15678 -7.50686
 4.60 5.40  1.419  1.420  1.422  1.430  1.447 16.35985 16.35788 -7.30576
 4.60 5.60  1.605  1.605  1.607  1.613  1.626 16.55903 16.55874 -7.10488
 4.60 5.80  1.796  1.796  1.799  1.803  1.814 16.75838 16.75945 -6.90415
 4.60 6.00  1.990  1.992  1.993  1.996  2.004 16.95780 16.96004 -6.70355
 4.60 6.25  2.246  2.247  2.247  2.250  2.256 17.20716 17.21062 -6.45304
 4.60 6.50  2.501  2.502  2.502  2.503  2.509 17.45652 17.46120 -6.20253
 4.60 6.75  2.762  2.762  2.762  2.765  2.768 17.70583 17.71190 -5.95182
 4.60 7.00  3.029  3.029  3.029  3.030  3.033 17.95506 17.96275 -5.70093
 4.60 7.25  3.303  3.303  3.303  3.303  3.306 18.20383 18.21392 -5.44977
 4.60 7.50  3.576  3.576  3.576  3.577  3.578 18.45209 18.46553 -5.19818
 4.60 7.75  3.851  3.851  3.852  3.852  3.853 18.69944 18.71811 -4.94563
 4.60 8.00  4.122  4.122  4.122  4.122  4.122 18.94601 18.97146 -4.69229
 4.65-2.00 -0.427 -0.427 -0.427 -0.424 -0.420  8.92742  8.88964-14.77417
 4.65-1.50 -0.425 -0.424 -0.424 -0.423 -0.418  9.42732  9.38952-14.27409
 4.65-1.00 -0.423 -0.423 -0.421 -0.420 -0.415  9.92737  9.88964-13.77392
 4.65-0.50 -0.420 -0.420 -0.419 -0.418 -0.412 10.42732 10.38970-13.27409
 4.65 0.00 -0.417 -0.417 -0.416 -0.413 -0.408 10.92737 10.88969-12.77392
 4.65 0.50 -0.411 -0.411 -0.410 -0.407 -0.400 11.42732 11.38970-12.27401
 4.65 1.00 -0.403 -0.401 -0.400 -0.398 -0.389 11.92732 11.88969-11.77392
 4.65 1.25 -0.396 -0.396 -0.394 -0.390 -0.382 12.17732 12.13970-11.52396
 4.65 1.50 -0.388 -0.387 -0.386 -0.382 -0.372 12.42732 12.38970-11.27401
 4.65 1.75 -0.377 -0.376 -0.374 -0.369 -0.359 12.67730 12.63975-11.02396
 4.65 2.00 -0.363 -0.362 -0.360 -0.354 -0.341 12.92727 12.88981-10.77392
 4.65 2.25 -0.342 -0.341 -0.339 -0.333 -0.318 13.17721 13.13984-10.52388
 4.65 2.50 -0.315 -0.313 -0.311 -0.303 -0.286 13.42716 13.38987-10.27384
 4.65 2.75 -0.275 -0.275 -0.271 -0.263 -0.243 13.67711 13.63995-10.02376
 4.65 3.00 -0.222 -0.221 -0.218 -0.208 -0.185 13.92706 13.89003 -9.77366
 4.65 3.20 -0.167 -0.165 -0.162 -0.150 -0.127 14.12694 14.09010 -9.57356
 4.65 3.40 -0.097 -0.097 -0.093 -0.080 -0.054 14.32677 14.29018 -9.37343
 4.65 3.60 -0.014 -0.013 -0.009  0.004  0.032 14.52658 14.49034 -9.17326
 4.65 3.80  0.083  0.085  0.090  0.103  0.133 14.72636 14.69065 -8.97299
 4.65 4.00  0.197  0.199  0.204  0.218  0.248 14.92608 14.89109 -8.77263
 4.65 4.20  0.328  0.330  0.334  0.348  0.378 15.12558 15.09165 -8.57208
 4.65 4.40  0.472  0.474  0.478  0.492  0.520 15.32484 15.29241 -8.37131
 4.65 4.60  0.630  0.631  0.635  0.648  0.675 15.52380 15.49351 -8.17022
 4.65 4.80  0.798  0.799  0.803  0.814  0.839 15.72242 15.69501 -7.96876
 4.65 5.00  0.971  0.972  0.976  0.986  1.007 15.92075 15.89680 -7.76700
 4.65 5.20  1.149  1.151  1.154  1.163  1.182 16.11864 16.09899 -7.56479
 4.65 5.40  1.329  1.330  1.332  1.340  1.357 16.31653 16.30117 -7.36257
 4.65 5.60  1.510  1.510  1.512  1.519  1.533 16.51448 16.50328 -7.16042
 4.65 5.80  1.692  1.692  1.694  1.700  1.713 16.71261 16.70519 -6.95847
 4.65 6.00  1.877  1.877  1.879  1.883  1.893 16.91089 16.90693 -6.75671
 4.65 6.25  2.116  2.117  2.118  2.122  2.129 17.15932 17.15851 -6.50521
 4.65 6.50  2.359  2.359  2.360  2.362  2.367 17.40807 17.40977 -6.25399
 4.65 6.75  2.607  2.608  2.608  2.610  2.615 17.65718 17.66068 -6.00300
 4.65 7.00  2.859  2.859  2.859  2.860  2.864 17.90628 17.91158 -5.75203
 4.65 7.25  3.121  3.122  3.122  3.122  3.124 18.15528 18.16256 -5.50107
 4.65 7.50  3.384  3.384  3.384  3.385  3.386 18.40415 18.41364 -5.25011
 4.65 7.75  3.650  3.650  3.650  3.651  3.652 18.65251 18.66525 -4.99849
 4.65 8.00  3.914  3.914  3.914  3.914  3.915 18.90048 18.91724 -4.74642
 4.70-2.00 -0.427 -0.427 -0.427 -0.424 -0.419  8.87737  8.83960-14.82420
 4.70-1.50 -0.424 -0.424 -0.423 -0.420 -0.416  9.37731  9.33965-14.32413
 4.70-1.00 -0.420 -0.419 -0.419 -0.417 -0.412  9.87737  9.83960-13.82391
 4.70-0.50 -0.418 -0.417 -0.417 -0.414 -0.408 10.37731 10.33965-13.32404
 4.70 0.00 -0.414 -0.414 -0.413 -0.411 -0.405 10.87737 10.83967-12.82391
 4.70 0.50 -0.410 -0.410 -0.409 -0.407 -0.400 11.37731 11.33965-12.32404
 4.70 1.00 -0.405 -0.405 -0.403 -0.400 -0.394 11.87731 11.83967-11.82391
 4.70 1.25 -0.400 -0.400 -0.399 -0.396 -0.388 12.12731 12.08966-11.57397
 4.70 1.50 -0.395 -0.395 -0.394 -0.390 -0.382 12.37731 12.33965-11.32404
 4.70 1.75 -0.388 -0.387 -0.386 -0.382 -0.373 12.62729 12.58972-11.07397
 4.70 2.00 -0.378 -0.378 -0.377 -0.373 -0.362 12.87726 12.83979-10.82391
 4.70 2.25 -0.365 -0.365 -0.363 -0.358 -0.347 13.12719 13.08982-10.57393
 4.70 2.50 -0.348 -0.347 -0.345 -0.340 -0.326 13.37712 13.33985-10.32395
 4.70 2.75 -0.322 -0.321 -0.319 -0.312 -0.298 13.62713 13.58988-10.07394
 4.70 3.00 -0.286 -0.285 -0.282 -0.275 -0.257 13.87714 13.83992 -9.82391
 4.70 3.20 -0.245 -0.244 -0.241 -0.233 -0.214 14.07706 14.03996 -9.62383
 4.70 3.40 -0.194 -0.193 -0.190 -0.181 -0.158 14.27698 14.24002 -9.42373
 4.70 3.60 -0.128 -0.126 -0.123 -0.113 -0.089 14.47691 14.44008 -9.22360
 4.70 3.80 -0.046 -0.045 -0.042 -0.030 -0.005 14.67685 14.64015 -9.02347
 4.70 4.00  0.050  0.052  0.056  0.068  0.096 14.87679 14.84023 -8.82333
 4.70 4.20  0.166  0.167  0.171  0.184  0.213 15.07668 15.04035 -8.62321
 4.70 4.40  0.296  0.299  0.303  0.316  0.345 15.27651 15.24053 -8.42309
 4.70 4.60  0.443  0.446  0.449  0.462  0.491 15.47625 15.44081 -8.22289
 4.70 4.80  0.604  0.605  0.609  0.622  0.650 15.67585 15.64128 -8.02248
 4.70 5.00  0.775  0.776  0.780  0.791  0.817 15.87529 15.84192 -7.82189
 4.70 5.20  0.958  0.959  0.962  0.972  0.995 16.07447 16.04279 -7.62104
 4.70 5.40  1.146  1.147  1.150  1.158  1.178 16.27337 16.24392 -7.41990
 4.70 5.60  1.338  1.339  1.341  1.348  1.365 16.47194 16.44546 -7.21826
 4.70 5.80  1.530  1.532  1.533  1.539  1.554 16.67020 16.64732 -7.01627
 4.70 6.00  1.722  1.723  1.724  1.730  1.742 16.86823 16.84936 -6.81417
 4.70 6.25  1.962  1.962  1.964  1.967  1.977 17.11545 17.10212 -6.56146
 4.70 6.50  2.201  2.201  2.201  2.205  2.213 17.36267 17.35488 -6.30874
 4.70 6.75  2.441  2.441  2.442  2.444  2.450 17.61053 17.60718 -6.05654
 4.70 7.00  2.670  2.670  2.672  2.673  2.677 17.85872 17.85914 -5.80465
 4.70 7.25  2.918  2.918  2.918  2.919  2.923 18.10726 18.11053 -5.55323
 4.70 7.50  3.166  3.166  3.166  3.167  3.169 18.35583 18.36192 -5.30181
 4.70 7.75  3.418  3.418  3.419  3.419  3.421 18.60442 18.61333 -5.05036
 4.70 8.00  3.671  3.671  3.671  3.671  3.673 18.85303 18.86475 -4.79888
 4.75-2.00 -0.428 -0.428 -0.428 -0.425 -0.421  8.82737  8.78965-14.87419
 4.75-1.50 -0.425 -0.425 -0.425 -0.424 -0.419  9.32736  9.28959-14.37407
 4.75-1.00 -0.423 -0.423 -0.421 -0.419 -0.414  9.82737  9.78965-13.87419
 4.75-0.50 -0.418 -0.418 -0.417 -0.415 -0.410 10.32736 10.28959-13.37407
 4.75 0.00 -0.413 -0.412 -0.412 -0.409 -0.403 10.82737 10.78965-12.87419
 4.75 0.50 -0.407 -0.407 -0.406 -0.403 -0.396 11.32736 11.28959-12.37407
 4.75 1.00 -0.403 -0.402 -0.401 -0.398 -0.391 11.82737 11.78972-11.87387
 4.75 1.25 -0.400 -0.398 -0.398 -0.395 -0.387 12.07737 12.03966-11.62392
 4.75 1.50 -0.396 -0.396 -0.395 -0.391 -0.383 12.32736 12.28959-11.37397
 4.75 1.75 -0.391 -0.391 -0.390 -0.387 -0.377 12.57734 12.53966-11.12392
 4.75 2.00 -0.385 -0.385 -0.384 -0.381 -0.372 12.82730 12.78972-10.87387
 4.75 2.25 -0.377 -0.377 -0.376 -0.372 -0.362 13.07723 13.03977-10.62392
 4.75 2.50 -0.365 -0.365 -0.364 -0.360 -0.349 13.32715 13.28981-10.37397
 4.75 2.75 -0.349 -0.349 -0.347 -0.343 -0.330 13.57716 13.53984-10.12392
 4.75 3.00 -0.326 -0.326 -0.324 -0.319 -0.304 13.82718 13.78986 -9.87387
 4.75 3.20 -0.300 -0.299 -0.298 -0.292 -0.276 14.02718 13.98984 -9.67383
 4.75 3.40 -0.266 -0.266 -0.263 -0.256 -0.239 14.22717 14.18982 -9.47379
 4.75 3.60 -0.221 -0.220 -0.218 -0.209 -0.190 14.42713 14.38986 -9.27372
 4.75 3.80 -0.162 -0.160 -0.158 -0.149 -0.128 14.62706 14.58997 -9.07363
 4.75 4.00 -0.088 -0.087 -0.084 -0.075 -0.051 14.82698 14.79007 -8.87354
 4.75 4.20  0.004  0.005  0.008  0.019  0.044 15.02689 14.99015 -8.67351
 4.75 4.40  0.113  0.115  0.118  0.130  0.156 15.22680 15.19022 -8.47347
 4.75 4.60  0.241  0.242  0.246  0.258  0.286 15.42670 15.39033 -8.27336
 4.75 4.80  0.386  0.387  0.391  0.403  0.432 15.62659 15.59050 -8.07314
 4.75 5.00  0.546  0.546  0.550  0.562  0.590 15.82646 15.79071 -7.87290
 4.75 5.20  0.717  0.719  0.722  0.733  0.760 16.02625 15.99093 -7.67265
 4.75 5.40  0.898  0.900  0.903  0.913  0.938 16.22592 16.19121 -7.47238
 4.75 5.60  1.086  1.087  1.090  1.099  1.122 16.42546 16.39166 -7.27197
 4.75 5.80  1.279  1.280  1.282  1.290  1.310 16.62477 16.59242 -7.07127
 4.75 6.00  1.474  1.474  1.477  1.484  1.502 16.82387 16.79344 -6.87031
 4.75 6.25  1.722  1.722  1.724  1.730  1.744 17.07224 17.04515 -6.61851
 4.75 6.50  1.970  1.971  1.972  1.977  1.988 17.32015 17.29732 -6.36623
 4.75 6.75  2.217  2.217  2.219  2.221  2.231 17.56736 17.55025 -6.11333
 4.75 7.00  2.453  2.453  2.454  2.457  2.464 17.81458 17.80318 -5.86044
 4.75 7.25  2.694  2.694  2.694  2.697  2.701 18.06192 18.05588 -5.60775
 4.75 7.50  2.933  2.933  2.934  2.936  2.939 18.30942 18.30835 -5.35527
 4.75 7.75  3.173  3.174  3.174  3.175  3.178 18.55730 18.56048 -5.10317
 4.75 8.00  3.413  3.413  3.413  3.414  3.417 18.80550 18.81231 -4.85140
 4.80-2.00 -0.427 -0.427 -0.427 -0.424 -0.420  8.77743  8.73965-14.92409
 4.80-1.50 -0.425 -0.425 -0.425 -0.424 -0.419  9.27738  9.23955-14.42412
 4.80-1.00 -0.424 -0.424 -0.424 -0.421 -0.416  9.77736  9.73965-13.92409
 4.80-0.50 -0.420 -0.420 -0.420 -0.418 -0.413 10.27738 10.23955-13.42412
 4.80 0.00 -0.417 -0.417 -0.416 -0.414 -0.408 10.77735 10.73965-12.92409
 4.80 0.50 -0.411 -0.411 -0.410 -0.408 -0.401 11.27738 11.23955-12.42412
 4.80 1.00 -0.403 -0.403 -0.403 -0.400 -0.392 11.77735 11.73965-11.92409
 4.80 1.25 -0.399 -0.398 -0.398 -0.395 -0.387 12.02737 11.98960-11.67405
 4.80 1.50 -0.394 -0.394 -0.392 -0.389 -0.381 12.27738 12.23955-11.42400
 4.80 1.75 -0.389 -0.389 -0.388 -0.384 -0.375 12.52734 12.48964-11.17405
 4.80 2.00 -0.383 -0.383 -0.382 -0.378 -0.368 12.77728 12.73973-10.92409
 4.80 2.25 -0.377 -0.377 -0.376 -0.372 -0.362 13.02722 12.98978-10.67407
 4.80 2.50 -0.370 -0.369 -0.368 -0.364 -0.353 13.27715 13.23980-10.42400
 4.80 2.75 -0.359 -0.359 -0.358 -0.354 -0.342 13.52718 13.48981-10.17386
 4.80 3.00 -0.346 -0.345 -0.344 -0.340 -0.327 13.77721 13.73981 -9.92372
 4.80 3.20 -0.329 -0.329 -0.327 -0.322 -0.310 13.97719 13.93981 -9.72374
 4.80 3.40 -0.308 -0.308 -0.306 -0.301 -0.287 14.17717 14.13980 -9.52376
 4.80 3.60 -0.279 -0.279 -0.277 -0.271 -0.256 14.37714 14.33983 -9.32377
 4.80 3.80 -0.240 -0.240 -0.237 -0.231 -0.214 14.57710 14.53990 -9.12376
 4.80 4.00 -0.190 -0.188 -0.187 -0.179 -0.161 14.77706 14.73997 -8.92372
 4.80 4.20 -0.123 -0.122 -0.119 -0.112 -0.091 14.97701 14.94000 -8.72365
 4.80 4.40 -0.042 -0.041 -0.038 -0.028 -0.006 15.17696 15.14003 -8.52358
 4.80 4.60  0.058  0.059  0.062  0.072  0.096 15.37689 15.34010 -8.32351
 4.80 4.80  0.178  0.179  0.182  0.192  0.218 15.57680 15.54022 -8.12343
 4.80 5.00  0.313  0.315  0.317  0.328  0.355 15.77670 15.74036 -7.92336
 4.80 5.20  0.469  0.470  0.473  0.484  0.511 15.97653 15.94052 -7.72323
 4.80 5.40  0.637  0.637  0.641  0.651  0.678 16.17633 16.14070 -7.52307
 4.80 5.60  0.815  0.816  0.819  0.829  0.854 16.37613 16.34090 -7.32287
 4.80 5.80  1.002  1.003  1.005  1.015  1.038 16.57592 16.54116 -7.12260
 4.80 6.00  1.194  1.194  1.197  1.206  1.227 16.77568 16.74147 -6.92227
 4.80 6.25  1.436  1.437  1.439  1.446  1.465 17.02507 16.99210 -6.67162
 4.80 6.50  1.682  1.683  1.684  1.691  1.707 17.27416 17.24304 -6.42067
 4.80 6.75  1.928  1.929  1.931  1.935  1.949 17.52285 17.49452 -6.16919
 4.80 7.00  2.177  2.178  2.178  2.183  2.194 17.77107 17.74648 -5.91722
 4.80 7.25  2.420  2.420  2.421  2.424  2.432 18.01854 17.99905 -5.66460
 4.80 7.50  2.666  2.666  2.667  2.669  2.675 18.26576 18.25188 -5.41173
 4.80 7.75  2.905  2.905  2.905  2.906  2.911 18.51287 18.50485 -5.15872
 4.80 8.00  3.142  3.142  3.142  3.144  3.147 18.75982 18.75800 -4.90553
 4.85-2.00 -0.427 -0.426 -0.425 -0.424 -0.419  8.72738  8.68958-14.97388
 4.85-1.50 -0.424 -0.424 -0.424 -0.421 -0.417  9.22737  9.18949-14.47405
 4.85-1.00 -0.421 -0.421 -0.421 -0.419 -0.414  9.72738  9.68966-13.97388
 4.85-0.50 -0.420 -0.419 -0.419 -0.418 -0.411 10.22737 10.18949-13.47405
 4.85 0.00 -0.418 -0.418 -0.417 -0.415 -0.409 10.72738 10.68966-12.97388
 4.85 0.50 -0.414 -0.414 -0.414 -0.411 -0.405 11.22737 11.18949-12.47405
 4.85 1.00 -0.409 -0.409 -0.408 -0.405 -0.398 11.72738 11.68966-11.97388
 4.85 1.25 -0.405 -0.405 -0.405 -0.401 -0.395 11.97738 11.93973-11.72396
 4.85 1.50 -0.401 -0.400 -0.400 -0.398 -0.389 12.22737 12.18977-11.47405
 4.85 1.75 -0.396 -0.396 -0.395 -0.391 -0.383 12.47735 12.43976-11.22396
 4.85 2.00 -0.389 -0.389 -0.388 -0.385 -0.376 12.72730 12.68975-10.97388
 4.85 2.25 -0.381 -0.381 -0.380 -0.377 -0.367 12.97721 12.93976-10.72390
 4.85 2.50 -0.372 -0.372 -0.371 -0.367 -0.356 13.22712 13.18977-10.47392
 4.85 2.75 -0.362 -0.361 -0.360 -0.356 -0.345 13.47717 13.43981-10.22390
 4.85 3.00 -0.349 -0.348 -0.347 -0.343 -0.331 13.72722 13.68984 -9.97388
 4.85 3.20 -0.337 -0.337 -0.336 -0.331 -0.318 13.92718 13.88981 -9.77389
 4.85 3.40 -0.323 -0.322 -0.321 -0.316 -0.302 14.12714 14.08979 -9.57391
 4.85 3.60 -0.304 -0.303 -0.302 -0.297 -0.282 14.32710 14.28980 -9.37392
 4.85 3.80 -0.280 -0.279 -0.277 -0.272 -0.257 14.52708 14.48987 -9.17391
 4.85 4.00 -0.248 -0.247 -0.245 -0.240 -0.224 14.72705 14.68993 -8.97388
 4.85 4.20 -0.203 -0.203 -0.201 -0.194 -0.178 14.92698 14.88998 -8.77379
 4.85 4.40 -0.146 -0.146 -0.144 -0.137 -0.120 15.12690 15.09003 -8.57370
 4.85 4.60 -0.075 -0.074 -0.072 -0.064 -0.045 15.32685 15.29010 -8.37362
 4.85 4.80  0.014  0.015  0.018  0.026  0.047 15.52683 15.49019 -8.17354
 4.85 5.00  0.121  0.122  0.124  0.133  0.155 15.72681 15.69028 -7.97347
 4.85 5.20  0.249  0.250  0.253  0.262  0.285 15.92674 15.89030 -7.77339
 4.85 5.40  0.393  0.394  0.396  0.406  0.430 16.12666 16.09032 -7.57331
 4.85 5.60  0.553  0.554  0.557  0.566  0.589 16.32654 16.29045 -7.37315
 4.85 5.80  0.728  0.728  0.730  0.739  0.762 16.52641 16.49068 -7.17290
 4.85 6.00  0.910  0.911  0.913  0.921  0.943 16.72624 16.69090 -6.97265
 4.85 6.25  1.147  1.148  1.150  1.158  1.178 16.97595 16.94118 -6.72238
 4.85 6.50  1.389  1.389  1.391  1.398  1.417 17.22557 17.19145 -6.47211
 4.85 6.75  1.631  1.631  1.633  1.639  1.655 17.47503 17.44208 -6.22151
 4.85 7.00  1.878  1.878  1.880  1.885  1.899 17.72428 17.69302 -5.97062
 4.85 7.25  2.119  2.119  2.120  2.124  2.136 17.97308 17.94437 -5.71936
 4.85 7.50  2.365  2.365  2.365  2.369  2.378 18.22141 18.19618 -5.46763
 4.85 7.75  2.605  2.605  2.605  2.609  2.616 18.46909 18.44856 -5.21521
 4.85 8.00  2.847  2.847  2.849  2.851  2.856 18.71617 18.70148 -4.96218
 4.90-2.00 -0.429 -0.429 -0.428 -0.427 -0.424  8.67743  8.63959-15.02406
 4.90-1.50 -0.426 -0.426 -0.425 -0.424 -0.419  9.17725  9.13956-14.52404
 4.90-1.00 -0.423 -0.423 -0.423 -0.420 -0.415  9.67742  9.63959-14.02406
 4.90-0.50 -0.419 -0.419 -0.419 -0.417 -0.411 10.17725 10.13956-13.52404
 4.90 0.00 -0.415 -0.415 -0.414 -0.413 -0.406 10.67742 10.63969-13.02406
 4.90 0.50 -0.412 -0.412 -0.411 -0.409 -0.402 11.17725 11.13956-12.52404
 4.90 1.00 -0.408 -0.408 -0.407 -0.405 -0.398 11.67733 11.63969-12.02402
 4.90 1.25 -0.406 -0.406 -0.405 -0.403 -0.396 11.92729 11.88963-11.77403
 4.90 1.50 -0.403 -0.403 -0.403 -0.400 -0.392 12.17725 12.13956-11.52404
 4.90 1.75 -0.400 -0.400 -0.400 -0.396 -0.388 12.42729 12.38963-11.27400
 4.90 2.00 -0.396 -0.396 -0.395 -0.392 -0.384 12.67733 12.63969-11.02397
 4.90 2.25 -0.390 -0.390 -0.389 -0.386 -0.377 12.92729 12.88963-10.77400
 4.90 2.50 -0.383 -0.383 -0.382 -0.378 -0.369 13.17725 13.13956-10.52404
 4.90 2.75 -0.373 -0.373 -0.372 -0.368 -0.358 13.42724 13.38968-10.27398
 4.90 3.00 -0.362 -0.361 -0.360 -0.356 -0.345 13.67724 13.63979-10.02392
 4.90 3.20 -0.349 -0.348 -0.347 -0.343 -0.331 13.87724 13.83984 -9.82391
 4.90 3.40 -0.334 -0.333 -0.333 -0.328 -0.316 14.07725 14.03987 -9.62390
 4.90 3.60 -0.317 -0.317 -0.315 -0.310 -0.297 14.27724 14.23988 -9.42387
 4.90 3.80 -0.296 -0.295 -0.294 -0.289 -0.275 14.47720 14.43989 -9.22383
 4.90 4.00 -0.271 -0.270 -0.269 -0.263 -0.248 14.67715 14.63988 -9.02379
 4.90 4.20 -0.240 -0.238 -0.237 -0.231 -0.215 14.87707 14.83988 -8.82377
 4.90 4.40 -0.200 -0.199 -0.198 -0.192 -0.175 15.07700 15.03988 -8.62376
 4.90 4.60 -0.150 -0.150 -0.148 -0.141 -0.123 15.27694 15.23994 -8.42370
 4.90 4.80 -0.086 -0.086 -0.084 -0.078 -0.059 15.47691 15.44006 -8.22361
 4.90 5.00 -0.010 -0.009 -0.007 -0.001  0.018 15.67688 15.64018 -8.02351
 4.90 5.20  0.088  0.089  0.090  0.098  0.118 15.87679 15.84019 -7.82343
 4.90 5.40  0.203  0.203  0.206  0.213  0.233 16.07671 16.04019 -7.62335
 4.90 5.60  0.336  0.336  0.339  0.346  0.366 16.27664 16.24029 -7.42327
 4.90 5.80  0.488  0.489  0.491  0.498  0.518 16.47657 16.44049 -7.22317
 4.90 6.00  0.652  0.653  0.655  0.662  0.682 16.67651 16.64068 -7.02306
 4.90 6.25  0.877  0.878  0.880  0.886  0.905 16.92633 16.89091 -6.77285
 4.90 6.50  1.112  1.113  1.115  1.121  1.138 17.17609 17.14114 -6.52259
 4.90 6.75  1.346  1.347  1.349  1.355  1.370 17.42580 17.39142 -6.27228
 4.90 7.00  1.593  1.593  1.595  1.599  1.614 17.67541 17.64177 -6.02187
 4.90 7.25  1.833  1.834  1.834  1.839  1.852 17.92485 17.89241 -5.77127
 4.90 7.50  2.077  2.077  2.078  2.082  2.093 18.17406 18.14333 -5.52043
 4.90 7.75  2.316  2.316  2.316  2.319  2.328 18.42281 18.39464 -5.26910
 4.90 8.00  2.557  2.557  2.558  2.561  2.568 18.67117 18.64631 -5.01737
 4.95-2.00 -0.432 -0.432 -0.432 -0.431 -0.428  8.62737  8.58961-15.07407
 4.95-1.50 -0.431 -0.431 -0.431 -0.429 -0.426  9.12743  9.08955-14.57414
 4.95-1.00 -0.428 -0.428 -0.428 -0.427 -0.423  9.62737  9.58961-14.07407
 4.95-0.50 -0.424 -0.424 -0.424 -0.423 -0.419 10.12743 10.08955-13.57414
 4.95 0.00 -0.419 -0.419 -0.419 -0.417 -0.412 10.62737 10.58961-13.07407
 4.95 0.50 -0.414 -0.413 -0.413 -0.411 -0.405 11.12743 11.08955-12.57414
 4.95 1.00 -0.407 -0.407 -0.406 -0.403 -0.396 11.62737 11.58961-12.07402
 4.95 1.25 -0.404 -0.403 -0.403 -0.400 -0.392 11.87740 11.83958-11.82399
 4.95 1.50 -0.400 -0.400 -0.400 -0.396 -0.389 12.12743 12.08955-11.57398
 4.95 1.75 -0.398 -0.398 -0.396 -0.394 -0.385 12.37742 12.33964-11.32397
 4.95 2.00 -0.394 -0.394 -0.392 -0.389 -0.380 12.62737 12.58973-11.07397
 4.95 2.25 -0.390 -0.389 -0.389 -0.385 -0.376 12.87724 12.83964-10.82397
 4.95 2.50 -0.385 -0.385 -0.384 -0.381 -0.371 13.12711 13.08955-10.57398
 4.95 2.75 -0.379 -0.378 -0.377 -0.374 -0.364 13.37718 13.33964-10.32395
 4.95 3.00 -0.372 -0.372 -0.370 -0.367 -0.356 13.62726 13.58973-10.07392
 4.95 3.20 -0.363 -0.362 -0.361 -0.357 -0.347 13.82720 13.78980 -9.87394
 4.95 3.40 -0.352 -0.351 -0.350 -0.346 -0.335 14.02714 13.98987 -9.67397
 4.95 3.60 -0.338 -0.338 -0.336 -0.331 -0.320 14.22712 14.18989 -9.47394
 4.95 3.80 -0.319 -0.319 -0.317 -0.313 -0.301 14.42714 14.38987 -9.27388
 4.95 4.00 -0.298 -0.297 -0.296 -0.291 -0.279 14.62716 14.58984 -9.07381
 4.95 4.20 -0.270 -0.269 -0.267 -0.262 -0.249 14.82715 14.78985 -8.87381
 4.95 4.40 -0.236 -0.235 -0.233 -0.228 -0.213 15.02713 14.98989 -8.67381
 4.95 4.60 -0.194 -0.194 -0.192 -0.187 -0.171 15.22708 15.18993 -8.47377
 4.95 4.80 -0.144 -0.143 -0.141 -0.135 -0.119 15.42702 15.38999 -8.27369
 4.95 5.00 -0.083 -0.083 -0.080 -0.074 -0.056 15.62696 15.59006 -8.07361
 4.95 5.20 -0.009 -0.008 -0.007  0.000  0.018 15.82689 15.79013 -7.87356
 4.95 5.40  0.079  0.079  0.080  0.088  0.106 16.02682 15.99021 -7.67351
 4.95 5.60  0.183  0.185  0.186  0.192  0.212 16.22674 16.19031 -7.47344
 4.95 5.80  0.307  0.308  0.310  0.317  0.335 16.42665 16.39041 -7.27332
 4.95 6.00  0.446  0.446  0.447  0.454  0.472 16.62654 16.59051 -7.07320
 4.95 6.25  0.647  0.647  0.649  0.655  0.672 16.87634 16.84056 -6.82303
 4.95 6.50  0.864  0.864  0.867  0.872  0.887 17.12613 17.09061 -6.57284
 4.95 6.75  1.087  1.087  1.089  1.094  1.108 17.37598 17.34094 -6.32263
 4.95 7.00  1.327  1.327  1.329  1.333  1.346 17.62583 17.59129 -6.07237
 4.95 7.25  1.567  1.567  1.569  1.573  1.585 17.87556 17.84164 -5.82202
 4.95 7.50  1.811  1.811  1.812  1.816  1.827 18.12516 18.09202 -5.57154
 4.95 7.75  2.049  2.050  2.050  2.054  2.063 18.37447 18.34275 -5.32083
 4.95 8.00  2.292  2.292  2.293  2.295  2.303 18.62356 18.59373 -5.06992
 5.00-2.00 -0.433 -0.433 -0.433 -0.432 -0.430  8.57738  8.53958-15.12407
 5.00-1.50 -0.433 -0.432 -0.432 -0.432 -0.429  9.07737  9.03941-14.62415
 5.00-1.00 -0.432 -0.431 -0.431 -0.430 -0.428  9.57738  9.53958-14.12407
 5.00-0.50 -0.430 -0.430 -0.429 -0.429 -0.426 10.07737 10.03941-13.62415
 5.00 0.00 -0.427 -0.427 -0.427 -0.425 -0.422 10.57738 10.53958-13.12407
 5.00 0.50 -0.423 -0.423 -0.423 -0.420 -0.417 11.07737 11.03941-12.62415
 5.00 1.00 -0.416 -0.416 -0.415 -0.414 -0.408 11.57738 11.53970-12.12401
 5.00 1.25 -0.412 -0.412 -0.411 -0.409 -0.403 11.82737 11.78978-11.87398
 5.00 1.50 -0.407 -0.407 -0.406 -0.404 -0.398 12.07737 12.03981-11.62397
 5.00 1.75 -0.401 -0.401 -0.400 -0.398 -0.391 12.32737 12.28976-11.37399
 5.00 2.00 -0.396 -0.396 -0.395 -0.392 -0.384 12.57738 12.53970-11.12401
 5.00 2.25 -0.390 -0.390 -0.389 -0.386 -0.377 12.82738 12.78976-10.87399
 5.00 2.50 -0.384 -0.383 -0.382 -0.379 -0.369 13.07737 13.03981-10.62397
 5.00 2.75 -0.377 -0.377 -0.376 -0.373 -0.362 13.32732 13.28976-10.37396
 5.00 3.00 -0.371 -0.369 -0.368 -0.365 -0.354 13.57726 13.53970-10.12396
 5.00 3.20 -0.363 -0.363 -0.362 -0.358 -0.347 13.77730 13.73975 -9.92396
 5.00 3.40 -0.356 -0.355 -0.354 -0.350 -0.338 13.97735 13.93979 -9.72397
 5.00 3.60 -0.346 -0.345 -0.345 -0.340 -0.328 14.17732 14.13982 -9.52394
 5.00 3.80 -0.333 -0.333 -0.331 -0.327 -0.315 14.37724 14.33983 -9.32389
 5.00 4.00 -0.319 -0.317 -0.317 -0.312 -0.299 14.57715 14.53983 -9.12384
 5.00 4.20 -0.297 -0.296 -0.295 -0.290 -0.278 14.77708 14.73982 -8.92382
 5.00 4.40 -0.271 -0.270 -0.269 -0.265 -0.251 14.97702 14.93981 -8.72380
 5.00 4.60 -0.237 -0.236 -0.235 -0.230 -0.216 15.17701 15.13986 -8.52376
 5.00 4.80 -0.194 -0.194 -0.192 -0.188 -0.174 15.37702 15.33997 -8.32372
 5.00 5.00 -0.144 -0.143 -0.141 -0.136 -0.122 15.57703 15.54008 -8.12367
 5.00 5.20 -0.080 -0.079 -0.079 -0.072 -0.057 15.77703 15.74013 -7.92364
 5.00 5.40 -0.007 -0.005 -0.004  0.002  0.018 15.97702 15.94018 -7.72362
 5.00 5.60  0.082  0.082  0.084  0.090  0.107 16.17695 16.14026 -7.52355
 5.00 5.80  0.185  0.185  0.186  0.192  0.211 16.37683 16.34036 -7.32343
 5.00 6.00  0.302  0.303  0.304  0.310  0.327 16.57669 16.54045 -7.12332
 5.00 6.25  0.474  0.475  0.476  0.481  0.498 16.82648 16.79053 -6.87319
 5.00 6.50  0.665  0.666  0.668  0.673  0.688 17.07628 17.04060 -6.62306
 5.00 6.75  0.877  0.878  0.879  0.884  0.897 17.32619 17.29081 -6.37285
 5.00 7.00  1.095  1.096  1.097  1.101  1.112 17.57611 17.54108 -6.12263
 5.00 7.25  1.331  1.332  1.332  1.336  1.347 17.82588 17.79142 -5.87240
 5.00 7.50  1.572  1.572  1.572  1.576  1.585 18.07555 18.04179 -5.62215
 5.00 7.75  1.810  1.811  1.811  1.814  1.822 18.32512 18.29217 -5.37169
 5.00 8.00  2.053  2.053  2.053  2.056  2.062 18.57461 18.54258 -5.12108
 5.05-2.00 -0.431 -0.431 -0.431 -0.430 -0.428  8.52737  8.48968-15.17406
 5.05-1.50 -0.431 -0.431 -0.431 -0.430 -0.428  9.02735  8.98958-14.67407
 5.05-1.00 -0.431 -0.431 -0.430 -0.430 -0.428  9.52737  9.48968-14.17406
 5.05-0.50 -0.430 -0.430 -0.430 -0.429 -0.427 10.02735  9.98958-13.67407
 5.05 0.00 -0.429 -0.429 -0.429 -0.428 -0.426 10.52737 10.48968-13.17406
 5.05 0.50 -0.427 -0.427 -0.427 -0.426 -0.423 11.02735 10.98958-12.67407
 5.05 1.00 -0.424 -0.424 -0.424 -0.423 -0.419 11.52737 11.48968-12.17406
 5.05 1.25 -0.421 -0.421 -0.421 -0.419 -0.417 11.77736 11.73965-11.92406
 5.05 1.50 -0.419 -0.419 -0.419 -0.417 -0.413 12.02735 11.98963-11.67407
 5.05 1.75 -0.414 -0.414 -0.414 -0.413 -0.408 12.27736 12.23965-11.42403
 5.05 2.00 -0.410 -0.410 -0.409 -0.408 -0.402 12.52737 12.48968-11.17399
 5.05 2.25 -0.404 -0.404 -0.403 -0.401 -0.395 12.77737 12.73968-10.92403
 5.05 2.50 -0.396 -0.396 -0.396 -0.394 -0.387 13.02735 12.98967-10.67407
 5.05 2.75 -0.388 -0.388 -0.387 -0.385 -0.377 13.27730 13.23967-10.42400
 5.05 3.00 -0.378 -0.378 -0.377 -0.374 -0.365 13.52724 13.48968-10.17393
 5.05 3.20 -0.370 -0.369 -0.369 -0.365 -0.356 13.72729 13.68969 -9.97390
 5.05 3.40 -0.361 -0.360 -0.359 -0.356 -0.345 13.92733 13.88970 -9.77388
 5.05 3.60 -0.350 -0.350 -0.349 -0.345 -0.333 14.12735 14.08974 -9.57387
 5.05 3.80 -0.338 -0.338 -0.337 -0.333 -0.321 14.32731 14.28978 -9.37386
 5.05 4.00 -0.325 -0.324 -0.323 -0.319 -0.306 14.52724 14.48982 -9.17386
 5.05 4.20 -0.309 -0.308 -0.307 -0.303 -0.289 14.72712 14.68983 -8.97386
 5.05 4.40 -0.289 -0.288 -0.286 -0.281 -0.268 14.92700 14.88984 -8.77387
 5.05 4.60 -0.262 -0.262 -0.261 -0.256 -0.241 15.12698 15.08987 -8.57383
 5.05 4.80 -0.230 -0.230 -0.228 -0.223 -0.209 15.32705 15.28991 -8.37375
 5.05 5.00 -0.190 -0.190 -0.188 -0.183 -0.169 15.52711 15.48996 -8.17367
 5.05 5.20 -0.139 -0.138 -0.137 -0.132 -0.118 15.72705 15.69000 -7.97367
 5.05 5.40 -0.078 -0.078 -0.075 -0.071 -0.056 15.92698 15.89005 -7.77366
 5.05 5.60 -0.003 -0.003 -0.001  0.003  0.017 16.12690 16.09010 -7.57361
 5.05 5.80  0.084  0.085  0.087  0.091  0.106 16.32681 16.29016 -7.37351
 5.05 6.00  0.187  0.188  0.189  0.193  0.208 16.52673 16.49024 -7.17341
 5.05 6.25  0.340  0.340  0.341  0.346  0.361 16.77663 16.74038 -6.92333
 5.05 6.50  0.513  0.514  0.516  0.521  0.534 17.02653 16.99052 -6.67325
 5.05 6.75  0.710  0.711  0.711  0.716  0.729 17.27639 17.24066 -6.42304
 5.05 7.00  0.910  0.910  0.911  0.915  0.927 17.52621 17.49080 -6.17282
 5.05 7.25  1.135  1.135  1.135  1.138  1.149 17.77597 17.74103 -5.92263
 5.05 7.50  1.366  1.366  1.367  1.370  1.378 18.02572 17.99132 -5.67244
 5.05 7.75  1.601  1.602  1.602  1.605  1.612 18.27545 18.24166 -5.42210
 5.05 8.00  1.839  1.840  1.840  1.842  1.848 18.52518 18.49206 -5.17166
 5.10-2.00 -0.425 -0.425 -0.425 -0.425 -0.423  8.47741  8.43965-15.22410
 5.10-1.50 -0.426 -0.425 -0.425 -0.425 -0.423  8.97736  8.93957-14.72400
 5.10-1.00 -0.425 -0.425 -0.425 -0.425 -0.423  9.47741  9.43965-14.22410
 5.10-0.50 -0.425 -0.425 -0.425 -0.425 -0.423  9.97736  9.93957-13.72400
 5.10 0.00 -0.425 -0.425 -0.425 -0.424 -0.423 10.47741 10.43965-13.22403
 5.10 0.50 -0.424 -0.424 -0.424 -0.424 -0.421 10.97736 10.93962-12.72400
 5.10 1.00 -0.423 -0.423 -0.423 -0.422 -0.420 11.47741 11.43965-12.22403
 5.10 1.25 -0.422 -0.422 -0.422 -0.421 -0.419 11.72736 11.68963-11.97401
 5.10 1.50 -0.420 -0.420 -0.420 -0.419 -0.418 11.97731 11.93962-11.72400
 5.10 1.75 -0.419 -0.419 -0.419 -0.418 -0.414 12.22736 12.18963-11.47401
 5.10 2.00 -0.417 -0.417 -0.417 -0.415 -0.413 12.47741 12.43965-11.22403
 5.10 2.25 -0.414 -0.414 -0.414 -0.412 -0.409 12.72736 12.68966-10.97402
 5.10 2.50 -0.410 -0.410 -0.409 -0.408 -0.404 12.97731 12.93967-10.72400
 5.10 2.75 -0.405 -0.404 -0.404 -0.402 -0.398 13.22729 13.18966-10.47398
 5.10 3.00 -0.398 -0.398 -0.398 -0.396 -0.389 13.47727 13.43965-10.22395
 5.10 3.20 -0.391 -0.391 -0.390 -0.388 -0.382 13.67725 13.63967-10.02397
 5.10 3.40 -0.382 -0.382 -0.382 -0.379 -0.373 13.87723 13.83970 -9.82399
 5.10 3.60 -0.373 -0.373 -0.372 -0.368 -0.361 14.07723 14.03974 -9.62397
 5.10 3.80 -0.360 -0.360 -0.359 -0.356 -0.347 14.27725 14.23977 -9.42393
 5.10 4.00 -0.345 -0.345 -0.345 -0.340 -0.331 14.47727 14.43981 -9.22388
 5.10 4.20 -0.329 -0.328 -0.327 -0.323 -0.312 14.67721 14.63981 -9.02384
 5.10 4.40 -0.308 -0.308 -0.307 -0.303 -0.290 14.87716 14.83982 -8.82379
 5.10 4.60 -0.285 -0.284 -0.283 -0.278 -0.265 15.07713 15.03985 -8.62376
 5.10 4.80 -0.255 -0.255 -0.255 -0.250 -0.236 15.27713 15.23991 -8.42374
 5.10 5.00 -0.221 -0.220 -0.219 -0.214 -0.199 15.47712 15.43996 -8.22373
 5.10 5.20 -0.178 -0.178 -0.176 -0.171 -0.157 15.67705 15.63999 -8.02375
 5.10 5.40 -0.127 -0.127 -0.125 -0.120 -0.105 15.87698 15.84001 -7.82376
 5.10 5.60 -0.065 -0.065 -0.064 -0.058 -0.044 16.07692 16.04007 -7.62370
 5.10 5.80  0.008  0.009  0.009  0.014  0.028 16.27688 16.24018 -7.42357
 5.10 6.00  0.094  0.094  0.095  0.100  0.113 16.47683 16.44028 -7.22344
 5.10 6.25  0.226  0.227  0.227  0.232  0.245 16.72673 16.69035 -6.97338
 5.10 6.50  0.380  0.380  0.382  0.385  0.397 16.97663 16.94042 -6.72331
 5.10 6.75  0.562  0.562  0.563  0.567  0.578 17.22652 17.19059 -6.47312
 5.10 7.00  0.756  0.757  0.757  0.761  0.771 17.47640 17.44075 -6.22294
 5.10 7.25  0.970  0.970  0.970  0.974  0.983 17.72620 17.69091 -5.97278
 5.10 7.50  1.197  1.197  1.197  1.200  1.208 17.97598 17.94106 -5.72262
 5.10 7.75  1.425  1.425  1.427  1.428  1.435 18.22576 18.19134 -5.47235
 5.10 8.00  1.659  1.659  1.660  1.661  1.668 18.47553 18.44170 -5.22199
 5.15-2.00 -0.417 -0.417 -0.417 -0.416 -0.414  8.42749  8.38970-15.27409
 5.15-1.50 -0.417 -0.417 -0.417 -0.416 -0.414  8.92737  8.88958-14.77417
 5.15-1.00 -0.417 -0.417 -0.417 -0.416 -0.414  9.42732  9.38970-14.27409
 5.15-0.50 -0.417 -0.417 -0.417 -0.416 -0.414  9.92737  9.88958-13.77417
 5.15 0.00 -0.417 -0.417 -0.417 -0.416 -0.414 10.42732 10.38970-13.27409
 5.15 0.50 -0.417 -0.417 -0.417 -0.416 -0.414 10.92737 10.88958-12.77417
 5.15 1.00 -0.416 -0.416 -0.416 -0.415 -0.414 11.42732 11.38970-12.27409
 5.15 1.25 -0.415 -0.415 -0.415 -0.415 -0.414 11.67732 11.63967-12.02413
 5.15 1.50 -0.415 -0.415 -0.415 -0.414 -0.413 11.92732 11.88964-11.77417
 5.15 1.75 -0.414 -0.414 -0.414 -0.414 -0.411 12.17732 12.13967-11.52409
 5.15 2.00 -0.414 -0.414 -0.414 -0.413 -0.410 12.42732 12.38970-11.27401
 5.15 2.25 -0.413 -0.411 -0.411 -0.411 -0.409 12.67732 12.63967-11.02395
 5.15 2.50 -0.410 -0.410 -0.410 -0.410 -0.407 12.92732 12.88964-10.77392
 5.15 2.75 -0.408 -0.407 -0.407 -0.406 -0.404 13.17732 13.13967-10.52396
 5.15 3.00 -0.405 -0.405 -0.404 -0.403 -0.400 13.42732 13.38970-10.27401
 5.15 3.20 -0.401 -0.401 -0.400 -0.399 -0.396 13.62730 13.58970-10.07397
 5.15 3.40 -0.396 -0.396 -0.396 -0.395 -0.391 13.82728 13.78969 -9.87393
 5.15 3.60 -0.391 -0.391 -0.390 -0.389 -0.384 14.02728 13.98969 -9.67392
 5.15 3.80 -0.383 -0.383 -0.382 -0.381 -0.376 14.22730 14.18970 -9.47392
 5.15 4.00 -0.374 -0.374 -0.373 -0.372 -0.365 14.42733 14.38970 -9.27393
 5.15 4.20 -0.362 -0.362 -0.360 -0.358 -0.352 14.62726 14.58974 -9.07393
 5.15 4.40 -0.346 -0.345 -0.345 -0.343 -0.335 14.82720 14.78979 -8.87392
 5.15 4.60 -0.326 -0.326 -0.325 -0.322 -0.313 15.02716 14.98982 -8.67389
 5.15 4.80 -0.300 -0.300 -0.299 -0.296 -0.286 15.22716 15.18985 -8.47382
 5.15 5.00 -0.269 -0.269 -0.267 -0.264 -0.252 15.42716 15.38988 -8.27376
 5.15 5.20 -0.230 -0.229 -0.229 -0.225 -0.212 15.62711 15.58991 -8.07372
 5.15 5.40 -0.182 -0.181 -0.181 -0.176 -0.162 15.82705 15.78995 -7.87368
 5.15 5.60 -0.125 -0.124 -0.124 -0.119 -0.105 16.02698 15.99002 -7.67363
 5.15 5.80 -0.059 -0.058 -0.057 -0.052 -0.038 16.22691 16.19013 -7.47357
 5.15 6.00  0.019  0.019  0.021  0.025  0.039 16.42684 16.39023 -7.27352
 5.15 6.25  0.133  0.134  0.135  0.139  0.153 16.67677 16.64027 -7.02346
 5.15 6.50  0.269  0.269  0.270  0.275  0.287 16.92670 16.89031 -6.77340
 5.15 6.75  0.431  0.431  0.432  0.436  0.447 17.17662 17.14044 -6.52326
 5.15 7.00  0.612  0.613  0.613  0.617  0.626 17.42651 17.39058 -6.27311
 5.15 7.25  0.809  0.809  0.810  0.812  0.821 17.67634 17.64072 -6.02300
 5.15 7.50  1.027  1.027  1.028  1.030  1.037 17.92614 17.89087 -5.77289
 5.15 7.75  1.254  1.254  1.254  1.257  1.263 18.17593 18.14113 -5.52264
 5.15 8.00  1.486  1.486  1.487  1.488  1.493 18.42570 18.39146 -5.27230
 5.20-2.00 -0.404 -0.404 -0.404 -0.403 -0.401  8.37749  8.33965-15.32404
 5.20-1.50 -0.404 -0.404 -0.404 -0.403 -0.401  8.87737  8.83960-14.82420
 5.20-1.00 -0.404 -0.404 -0.404 -0.403 -0.401  9.37749  9.33965-14.32404
 5.20-0.50 -0.404 -0.404 -0.404 -0.403 -0.401  9.87737  9.83960-13.82420
 5.20 0.00 -0.404 -0.404 -0.404 -0.403 -0.401 10.37731 10.33965-13.32404
 5.20 0.50 -0.404 -0.404 -0.404 -0.403 -0.401 10.87737 10.83960-12.82420
 5.20 1.00 -0.404 -0.404 -0.404 -0.403 -0.401 11.37731 11.33965-12.32404
 5.20 1.25 -0.404 -0.404 -0.404 -0.403 -0.401 11.62731 11.58963-12.07412
 5.20 1.50 -0.404 -0.404 -0.403 -0.403 -0.401 11.87731 11.83960-11.82420
 5.20 1.75 -0.403 -0.403 -0.403 -0.403 -0.400 12.12731 12.08963-11.57412
 5.20 2.00 -0.403 -0.403 -0.403 -0.402 -0.400 12.37731 12.33965-11.32404
 5.20 2.25 -0.402 -0.402 -0.402 -0.401 -0.400 12.62731 12.58966-11.07397
 5.20 2.50 -0.401 -0.401 -0.401 -0.400 -0.399 12.87731 12.83967-10.82391
 5.20 2.75 -0.400 -0.400 -0.400 -0.400 -0.397 13.12731 13.08966-10.57393
 5.20 3.00 -0.399 -0.399 -0.399 -0.398 -0.396 13.37731 13.33965-10.32395
 5.20 3.20 -0.397 -0.397 -0.397 -0.396 -0.394 13.57729 13.53965-10.12393
 5.20 3.40 -0.395 -0.395 -0.395 -0.394 -0.391 13.77727 13.73966 -9.92392
 5.20 3.60 -0.392 -0.392 -0.391 -0.391 -0.388 13.97727 13.93970 -9.72392
 5.20 3.80 -0.388 -0.388 -0.387 -0.387 -0.384 14.17729 14.13978 -9.52393
 5.20 4.00 -0.384 -0.384 -0.382 -0.382 -0.378 14.37731 14.33985 -9.32395
 5.20 4.20 -0.376 -0.376 -0.376 -0.375 -0.371 14.57726 14.53983 -9.12394
 5.20 4.40 -0.368 -0.368 -0.367 -0.365 -0.360 14.77722 14.73980 -8.92392
 5.20 4.60 -0.355 -0.355 -0.355 -0.353 -0.348 14.97718 14.93980 -8.72388
 5.20 4.80 -0.340 -0.339 -0.338 -0.336 -0.331 15.17715 15.13982 -8.52382
 5.20 5.00 -0.319 -0.319 -0.318 -0.316 -0.308 15.37712 15.33985 -8.32376
 5.20 5.20 -0.289 -0.289 -0.289 -0.286 -0.279 15.57708 15.53988 -8.12371
 5.20 5.40 -0.253 -0.252 -0.252 -0.249 -0.240 15.77705 15.73990 -7.92365
 5.20 5.60 -0.206 -0.206 -0.204 -0.201 -0.192 15.97701 15.93994 -7.72361
 5.20 5.80 -0.147 -0.147 -0.146 -0.142 -0.132 16.17698 16.13999 -7.52360
 5.20 6.00 -0.075 -0.075 -0.074 -0.071 -0.059 16.37694 16.34005 -7.32358
 5.20 6.25  0.030  0.031  0.032  0.036  0.047 16.62688 16.59014 -7.07346
 5.20 6.50  0.159  0.160  0.161  0.164  0.176 16.87679 16.84023 -6.82333
 5.20 6.75  0.307  0.308  0.309  0.312  0.324 17.12670 17.09033 -6.57327
 5.20 7.00  0.477  0.477  0.478  0.482  0.493 17.37658 17.34044 -6.32322
 5.20 7.25  0.658  0.658  0.659  0.662  0.672 17.62643 17.59058 -6.07314
 5.20 7.50  0.864  0.864  0.865  0.867  0.875 17.87628 17.84073 -5.82304
 5.20 7.75  1.082  1.082  1.082  1.085  1.090 18.12615 18.09096 -5.57281
 5.20 8.00  1.307  1.307  1.308  1.309  1.313 18.37603 18.34124 -5.32248
 5.25-2.00 -0.384 -0.384 -0.384 -0.383 -0.382  8.32736  8.28959-15.37407
 5.25-1.50 -0.384 -0.384 -0.384 -0.383 -0.382  8.82737  8.78958-14.87419
 5.25-1.00 -0.384 -0.384 -0.384 -0.383 -0.382  9.32736  9.28959-14.37407
 5.25-0.50 -0.384 -0.384 -0.384 -0.383 -0.382  9.82737  9.78958-13.87419
 5.25 0.00 -0.384 -0.384 -0.384 -0.383 -0.382 10.32736 10.28959-13.37407
 5.25 0.50 -0.384 -0.384 -0.384 -0.383 -0.382 10.82737 10.78958-12.87419
 5.25 1.00 -0.384 -0.384 -0.384 -0.383 -0.382 11.32736 11.28959-12.37407
 5.25 1.25 -0.384 -0.384 -0.384 -0.383 -0.382 11.57736 11.53959-12.12413
 5.25 1.50 -0.384 -0.384 -0.384 -0.383 -0.382 11.82737 11.78958-11.87419
 5.25 1.75 -0.384 -0.384 -0.384 -0.383 -0.382 12.07737 12.03958-11.62413
 5.25 2.00 -0.384 -0.384 -0.383 -0.383 -0.382 12.32736 12.28959-11.37407
 5.25 2.25 -0.384 -0.383 -0.383 -0.383 -0.382 12.57733 12.53962-11.12413
 5.25 2.50 -0.383 -0.383 -0.383 -0.383 -0.381 12.82730 12.78965-10.87419
 5.25 2.75 -0.383 -0.383 -0.383 -0.382 -0.381 13.07733 13.03962-10.62408
 5.25 3.00 -0.382 -0.382 -0.382 -0.382 -0.380 13.32736 13.28959-10.37397
 5.25 3.20 -0.382 -0.382 -0.381 -0.381 -0.379 13.52734 13.48960-10.17391
 5.25 3.40 -0.381 -0.380 -0.380 -0.380 -0.378 13.72732 13.68963 -9.97388
 5.25 3.60 -0.379 -0.379 -0.379 -0.378 -0.377 13.92732 13.88968 -9.77389
 5.25 3.80 -0.377 -0.377 -0.377 -0.377 -0.375 14.12734 14.08975 -9.57393
 5.25 4.00 -0.375 -0.375 -0.375 -0.373 -0.372 14.32736 14.28981 -9.37397
 5.25 4.20 -0.370 -0.370 -0.370 -0.370 -0.368 14.52729 14.48978 -9.17393
 5.25 4.40 -0.366 -0.366 -0.366 -0.365 -0.362 14.72721 14.68974 -8.97389
 5.25 4.60 -0.359 -0.359 -0.359 -0.358 -0.355 14.92717 14.88974 -8.77387
 5.25 4.80 -0.350 -0.350 -0.350 -0.349 -0.345 15.12716 15.08977 -8.57386
 5.25 5.00 -0.337 -0.337 -0.337 -0.336 -0.332 15.32715 15.28981 -8.37387
 5.25 5.20 -0.319 -0.319 -0.319 -0.317 -0.313 15.52711 15.48986 -8.17387
 5.25 5.40 -0.296 -0.296 -0.295 -0.294 -0.289 15.72707 15.68991 -7.97387
 5.25 5.60 -0.264 -0.264 -0.263 -0.262 -0.256 15.92703 15.88995 -7.77383
 5.25 5.80 -0.222 -0.222 -0.222 -0.220 -0.213 16.12699 16.08999 -7.57374
 5.25 6.00 -0.169 -0.169 -0.168 -0.166 -0.158 16.32695 16.29004 -7.37366
 5.25 6.25 -0.082 -0.081 -0.080 -0.078 -0.069 16.57690 16.54009 -7.12360
 5.25 6.50  0.029  0.029  0.030  0.033  0.042 16.82685 16.79014 -6.87354
 5.25 6.75  0.166  0.166  0.167  0.170  0.179 17.07680 17.04031 -6.62340
 5.25 7.00  0.326  0.327  0.327  0.331  0.340 17.32675 17.29048 -6.37325
 5.25 7.25  0.506  0.506  0.507  0.510  0.518 17.57657 17.54056 -6.12324
 5.25 7.50  0.700  0.701  0.701  0.704  0.711 17.82640 17.79064 -5.87322
 5.25 7.75  0.909  0.909  0.909  0.911  0.919 18.07626 18.04077 -5.62300
 5.25 8.00  1.128  1.128  1.128  1.130  1.135 18.32613 18.29092 -5.37263
 5.30-2.00 -0.358 -0.358 -0.358 -0.357 -0.355  8.27738  8.23955-15.42412
 5.30-1.50 -0.358 -0.358 -0.358 -0.357 -0.356  8.77735  8.73957-14.92409
 5.30-1.00 -0.358 -0.358 -0.358 -0.357 -0.355  9.27738  9.23955-14.42412
 5.30-0.50 -0.358 -0.358 -0.358 -0.357 -0.356  9.77736  9.73957-13.92409
 5.30 0.00 -0.358 -0.358 -0.358 -0.357 -0.355 10.27738 10.23955-13.42412
 5.30 0.50 -0.358 -0.358 -0.358 -0.357 -0.356 10.77735 10.73957-12.92409
 5.30 1.00 -0.358 -0.358 -0.358 -0.357 -0.356 11.27738 11.23955-12.42400
 5.30 1.25 -0.358 -0.358 -0.358 -0.357 -0.356 11.52737 11.48956-12.17405
 5.30 1.50 -0.358 -0.358 -0.358 -0.357 -0.356 11.77735 11.73957-11.92409
 5.30 1.75 -0.358 -0.358 -0.358 -0.357 -0.356 12.02737 11.98956-11.67405
 5.30 2.00 -0.358 -0.358 -0.358 -0.357 -0.356 12.27738 12.23955-11.42400
 5.30 2.25 -0.358 -0.358 -0.358 -0.357 -0.355 12.52737 12.48959-11.17405
 5.30 2.50 -0.358 -0.358 -0.358 -0.357 -0.355 12.77736 12.73965-10.92409
 5.30 2.75 -0.358 -0.358 -0.357 -0.356 -0.355 13.02737 12.98973-10.67405
 5.30 3.00 -0.357 -0.357 -0.357 -0.356 -0.355 13.27738 13.23980-10.42400
 5.30 3.20 -0.356 -0.356 -0.356 -0.356 -0.354 13.47734 13.43974-10.22404
 5.30 3.40 -0.356 -0.356 -0.356 -0.355 -0.354 13.67730 13.63968-10.02407
 5.30 3.60 -0.355 -0.355 -0.355 -0.355 -0.354 13.87730 13.83968 -9.82407
 5.30 3.80 -0.354 -0.354 -0.354 -0.354 -0.352 14.07734 14.03974 -9.62404
 5.30 4.00 -0.354 -0.354 -0.354 -0.352 -0.352 14.27738 14.23980 -9.42400
 5.30 4.20 -0.352 -0.351 -0.351 -0.350 -0.349 14.47731 14.43977 -9.22404
 5.30 4.40 -0.349 -0.349 -0.349 -0.348 -0.346 14.67724 14.63974 -9.02407
 5.30 4.60 -0.344 -0.344 -0.344 -0.344 -0.342 14.87719 14.83974 -8.82405
 5.30 4.80 -0.339 -0.339 -0.339 -0.338 -0.336 15.07717 15.03977 -8.62397
 5.30 5.00 -0.331 -0.331 -0.331 -0.331 -0.328 15.27715 15.23980 -8.42389
 5.30 5.20 -0.320 -0.320 -0.320 -0.319 -0.316 15.47714 15.43983 -8.22382
 5.30 5.40 -0.305 -0.305 -0.304 -0.303 -0.301 15.67714 15.63987 -8.02375
 5.30 5.60 -0.285 -0.285 -0.284 -0.283 -0.280 15.87714 15.83992 -7.82370
 5.30 5.80 -0.257 -0.257 -0.257 -0.255 -0.251 16.07715 16.03999 -7.62367
 5.30 6.00 -0.220 -0.220 -0.220 -0.218 -0.215 16.27715 16.24005 -7.42366
 5.30 6.25 -0.158 -0.158 -0.157 -0.157 -0.151 16.52703 16.49009 -7.17369
 5.30 6.50 -0.075 -0.075 -0.074 -0.073 -0.067 16.77692 16.74013 -6.92372
 5.30 6.75  0.034  0.034  0.034  0.036  0.043 17.02680 16.99021 -6.67358
 5.30 7.00  0.170  0.170  0.171  0.173  0.179 17.27669 17.24030 -6.42343
 5.30 7.25  0.334  0.335  0.335  0.337  0.344 17.52659 17.49041 -6.17339
 5.30 7.50  0.515  0.516  0.516  0.518  0.525 17.77648 17.74052 -5.92336
 5.30 7.75  0.717  0.718  0.719  0.720  0.727 18.02636 17.99065 -5.67316
 5.30 8.00  0.933  0.934  0.934  0.936  0.941 18.27623 18.24080 -5.42285
