
 ROSSELAND MASS ABSORPTION COEFFICENTS
 logT logP  0km/s  1km/s  2km/s  4km/s  8km/s  log Ne   log Na  log rho IPloCM-1
 3.32-2.00 -5.194 -5.182 -5.163 -5.133 -5.098  5.37894 10.53983-13.12378
 3.32-1.50 -5.228 -5.213 -5.193 -5.161 -5.124  5.79435 11.04060-12.62288
 3.32-1.00 -5.271 -5.257 -5.235 -5.202 -5.165  6.19756 11.54357-12.12004
 3.32-0.50 -5.314 -5.299 -5.278 -5.245 -5.208  6.60282 12.05192-11.61172
 3.32 0.00 -5.340 -5.325 -5.303 -5.270 -5.233  7.02694 12.57322-11.09044
 3.32 0.50 -5.342 -5.327 -5.305 -5.272 -5.235  7.46374 13.11428-10.54929
 3.32 1.00 -5.335 -5.319 -5.297 -5.264 -5.226  7.87593 13.66792 -9.99568
 3.32 1.25 -5.328 -5.313 -5.292 -5.258 -5.221  8.06441 13.94301 -9.72065
 3.32 1.50 -5.321 -5.305 -5.284 -5.252 -5.214  8.24378 14.21617 -9.44758
 3.32 1.75 -5.309 -5.294 -5.274 -5.242 -5.207  8.41410 14.48506 -9.17861
 3.32 2.00 -5.294 -5.279 -5.259 -5.229 -5.194  8.58070 14.75066 -8.91293
 3.32 2.25 -5.272 -5.259 -5.239 -5.210 -5.177  8.74427 15.01289 -8.65074
 3.32 2.50 -5.246 -5.231 -5.213 -5.186 -5.154  8.90784 15.27254 -8.39115
 3.32 2.75 -5.210 -5.198 -5.180 -5.155 -5.124  9.07294 15.52995 -8.13381
 3.32 3.00 -5.169 -5.156 -5.140 -5.115 -5.086  9.23880 15.78569 -7.87811
 3.32 3.20 -5.127 -5.116 -5.100 -5.078 -5.050  9.37220 15.98926 -7.67455
 3.32 3.40 -5.081 -5.071 -5.057 -5.036 -5.009  9.50559 16.19216 -7.47161
 3.32 3.60 -5.029 -5.019 -5.006 -4.987 -4.962  9.63787 16.39442 -7.26926
 3.32 3.80 -4.972 -4.963 -4.952 -4.934 -4.910  9.76723 16.59624 -7.06733
 3.32 4.00 -4.908 -4.901 -4.891 -4.874 -4.852  9.89421 16.79768 -6.86582
 3.32 4.20 -4.848 -4.842 -4.832 -4.816 -4.794 10.01693 16.99883 -6.66475
 3.32 4.40 -4.782 -4.776 -4.766 -4.750 -4.729 10.13649 17.19977 -6.46388
 3.32 4.60 -4.712 -4.706 -4.696 -4.681 -4.660 10.25272 17.40052 -6.26315
 3.32 4.80 -4.637 -4.631 -4.621 -4.606 -4.584 10.36617 17.60113 -6.06252
 3.32 5.00 -4.554 -4.548 -4.538 -4.523 -4.502 10.47712 17.80161 -5.86201
 3.32 5.20 -4.462 -4.456 -4.447 -4.432 -4.410 10.58583 18.00194 -5.66170
 3.32 5.40 -4.359 -4.353 -4.345 -4.331 -4.310 10.69296 18.20222 -5.46143
 3.32 5.60 -4.243 -4.238 -4.230 -4.216 -4.196 10.79862 18.40246 -5.26118
 3.32 5.80 -4.111 -4.107 -4.100 -4.087 -4.068 10.90326 18.60267 -5.06095
 3.32 6.00 -3.960 -3.956 -3.950 -3.938 -3.920 11.00690 18.80284 -4.86075
 3.32 6.25 -3.739 -3.736 -3.731 -3.720 -3.705 11.13523 19.05291 -4.61068
 3.32 6.50 -3.471 -3.468 -3.464 -3.456 -3.443 11.26269 19.30298 -4.36061
 3.32 6.75 -3.146 -3.144 -3.141 -3.134 -3.125 11.38959 19.55312 -4.11053
 3.32 7.00 -2.941 -2.939 -2.936 -2.931 -2.923 11.51587 19.80325 -3.86044
 3.32 7.25 -2.832 -2.831 -2.828 -2.823 -2.816 11.64160 20.05322 -3.61042
 3.32 7.50 -2.728 -2.726 -2.724 -2.719 -2.713 11.76671 20.30320 -3.36041
 3.32 7.75 -2.627 -2.626 -2.623 -2.619 -2.614 11.89115 20.55326 -3.11042
 3.32 8.00 -2.530 -2.528 -2.526 -2.522 -2.517 12.01494 20.80339 -2.86044
 3.34-2.00 -5.126 -5.116 -5.099 -5.071 -5.036  5.45117 10.51943-13.14424
 3.34-1.50 -5.139 -5.127 -5.108 -5.077 -5.039  5.89092 11.01953-12.64397
 3.34-1.00 -5.159 -5.145 -5.124 -5.090 -5.051  6.31302 11.52061-12.14303
 3.34-0.50 -5.187 -5.170 -5.147 -5.112 -5.071  6.72008 12.02325-11.64035
 3.34 0.00 -5.207 -5.190 -5.166 -5.129 -5.088  7.12353 12.53148-11.13224
 3.34 0.50 -5.199 -5.182 -5.157 -5.120 -5.079  7.54020 13.05231-10.61154
 3.34 1.00 -5.153 -5.136 -5.112 -5.074 -5.033  7.97350 13.59284-10.07084
 3.34 1.25 -5.121 -5.104 -5.080 -5.044 -5.002  8.18499 13.86949 -9.79420
 3.34 1.50 -5.089 -5.072 -5.048 -5.013 -4.973  8.39058 14.14613 -9.51756
 3.34 1.75 -5.058 -5.041 -5.018 -4.983 -4.944  8.58216 14.42132 -9.24240
 3.34 2.00 -5.028 -5.012 -4.989 -4.956 -4.918  8.76410 14.69478 -8.96900
 3.34 2.25 -4.998 -4.982 -4.960 -4.929 -4.892  8.93614 14.96388 -8.69980
 3.34 2.50 -4.968 -4.953 -4.932 -4.901 -4.865  9.10312 15.22968 -8.43392
 3.34 2.75 -4.935 -4.919 -4.899 -4.870 -4.836  9.26547 15.49214 -8.17160
 3.34 3.00 -4.896 -4.882 -4.863 -4.836 -4.804  9.42781 15.75197 -7.91186
 3.34 3.20 -4.861 -4.848 -4.829 -4.803 -4.773  9.55781 15.95812 -7.70563
 3.34 3.40 -4.820 -4.808 -4.792 -4.768 -4.738  9.68793 16.16318 -7.50052
 3.34 3.60 -4.775 -4.764 -4.749 -4.726 -4.698  9.81842 16.36718 -7.29653
 3.34 3.80 -4.723 -4.713 -4.700 -4.680 -4.654  9.94916 16.57046 -7.09332
 3.34 4.00 -4.666 -4.658 -4.646 -4.628 -4.604 10.07990 16.77306 -6.89076
 3.34 4.20 -4.613 -4.606 -4.595 -4.577 -4.553 10.20830 16.97506 -6.68867
 3.34 4.40 -4.557 -4.550 -4.540 -4.522 -4.498 10.33466 17.17669 -6.48697
 3.34 4.60 -4.499 -4.492 -4.482 -4.464 -4.442 10.45822 17.37802 -6.28565
 3.34 4.80 -4.440 -4.433 -4.424 -4.406 -4.383 10.57835 17.57914 -6.08457
 3.34 5.00 -4.378 -4.372 -4.362 -4.346 -4.323 10.69557 17.78003 -5.88373
 3.34 5.20 -4.315 -4.309 -4.299 -4.283 -4.261 10.80968 17.98072 -5.68305
 3.34 5.40 -4.249 -4.244 -4.234 -4.219 -4.197 10.92144 18.18127 -5.48250
 3.34 5.60 -4.183 -4.177 -4.169 -4.153 -4.131 11.03088 18.38168 -5.28205
 3.34 5.80 -4.114 -4.109 -4.101 -4.086 -4.064 11.13860 18.58201 -5.08169
 3.34 6.00 -4.044 -4.039 -4.031 -4.017 -3.996 11.24477 18.78226 -4.88141
 3.34 6.25 -3.956 -3.951 -3.944 -3.930 -3.910 11.37577 19.03244 -4.63118
 3.34 6.50 -3.866 -3.861 -3.854 -3.841 -3.822 11.50529 19.28262 -4.38101
 3.34 6.75 -3.775 -3.770 -3.764 -3.751 -3.733 11.63363 19.53280 -4.13086
 3.34 7.00 -3.684 -3.680 -3.674 -3.662 -3.645 11.76103 19.78298 -3.88074
 3.34 7.25 -3.593 -3.590 -3.583 -3.572 -3.556 11.88773 20.03303 -3.63067
 3.34 7.50 -3.502 -3.499 -3.493 -3.482 -3.467 12.01368 20.28308 -3.38059
 3.34 7.75 -3.412 -3.408 -3.403 -3.393 -3.379 12.13891 20.53313 -3.13051
 3.34 8.00 -3.323 -3.319 -3.313 -3.303 -3.291 12.26340 20.78319 -2.88041
 3.36-2.00 -5.039 -5.030 -5.014 -4.987 -4.953  5.54494 10.49941-13.16431
 3.36-1.50 -5.071 -5.061 -5.043 -5.014 -4.977  5.96431 10.99944-12.66414
 3.36-1.00 -5.082 -5.069 -5.050 -5.017 -4.977  6.39933 11.49982-12.16393
 3.36-0.50 -5.086 -5.072 -5.049 -5.014 -4.971  6.82497 12.00087-11.66294
 3.36 0.00 -5.086 -5.069 -5.044 -5.007 -4.962  7.23578 12.50352-11.16015
 3.36 0.50 -5.064 -5.046 -5.019 -4.980 -4.935  7.63988 13.01157-10.65189
 3.36 1.00 -5.000 -4.981 -4.955 -4.915 -4.870  8.05231 13.53288-10.13077
 3.36 1.25 -4.951 -4.932 -4.906 -4.867 -4.823  8.26666 13.80159 -9.86216
 3.36 1.50 -4.894 -4.876 -4.849 -4.811 -4.767  8.48101 14.07408 -9.58973
 3.36 1.75 -4.834 -4.815 -4.790 -4.752 -4.710  8.69221 14.35078 -9.31299
 3.36 2.00 -4.775 -4.756 -4.732 -4.696 -4.655  8.89922 14.62747 -9.03626
 3.36 2.25 -4.720 -4.702 -4.678 -4.643 -4.604  9.09237 14.90256 -8.76119
 3.36 2.50 -4.670 -4.653 -4.630 -4.597 -4.559  9.27577 15.17580 -8.48798
 3.36 2.75 -4.624 -4.607 -4.586 -4.554 -4.517  9.44866 15.44474 -8.21889
 3.36 3.00 -4.580 -4.564 -4.543 -4.513 -4.478  9.61574 15.71037 -7.95312
 3.36 3.20 -4.542 -4.528 -4.509 -4.481 -4.447  9.74539 15.92034 -7.74314
 3.36 3.40 -4.504 -4.491 -4.473 -4.447 -4.415  9.87440 16.12868 -7.53485
 3.36 3.60 -4.462 -4.450 -4.434 -4.409 -4.379 10.00281 16.33545 -7.32820
 3.36 3.80 -4.415 -4.405 -4.391 -4.369 -4.341 10.13108 16.54104 -7.12272
 3.36 4.00 -4.364 -4.356 -4.344 -4.324 -4.298 10.25935 16.74554 -6.91829
 3.36 4.20 -4.316 -4.309 -4.298 -4.279 -4.253 10.38766 16.94904 -6.71467
 3.36 4.40 -4.265 -4.258 -4.247 -4.228 -4.204 10.51597 17.15190 -6.51172
 3.36 4.60 -4.210 -4.203 -4.193 -4.176 -4.152 10.64342 17.35420 -6.30946
 3.36 4.80 -4.154 -4.148 -4.137 -4.120 -4.097 10.76861 17.55611 -6.10767
 3.36 5.00 -4.095 -4.089 -4.079 -4.062 -4.039 10.89193 17.75762 -5.90623
 3.36 5.20 -4.033 -4.027 -4.018 -4.002 -3.980 11.01191 17.95877 -5.70503
 3.36 5.40 -3.968 -3.963 -3.954 -3.939 -3.917 11.12927 18.15969 -5.50404
 3.36 5.60 -3.903 -3.898 -3.890 -3.875 -3.853 11.24381 18.36042 -5.30323
 3.36 5.80 -3.835 -3.830 -3.823 -3.809 -3.788 11.35591 18.56101 -5.10256
 3.36 6.00 -3.766 -3.761 -3.754 -3.740 -3.721 11.46583 18.76148 -4.90205
 3.36 6.25 -3.678 -3.674 -3.667 -3.655 -3.636 11.60057 19.01188 -4.65170
 3.36 6.50 -3.589 -3.585 -3.579 -3.567 -3.549 11.73304 19.26221 -4.40143
 3.36 6.75 -3.499 -3.496 -3.489 -3.478 -3.461 11.86366 19.51252 -4.15120
 3.36 7.00 -3.409 -3.405 -3.400 -3.389 -3.374 11.99282 19.76275 -3.90101
 3.36 7.25 -3.318 -3.315 -3.310 -3.300 -3.286 12.12078 20.01284 -3.65087
 3.36 7.50 -3.228 -3.225 -3.220 -3.211 -3.198 12.24773 20.26293 -3.40077
 3.36 7.75 -3.139 -3.136 -3.131 -3.123 -3.111 12.37387 20.51302 -3.15070
 3.36 8.00 -3.051 -3.048 -3.044 -3.035 -3.024 12.49914 20.76313 -2.90067
 3.38-2.00 -4.884 -4.876 -4.861 -4.836 -4.803  5.73576 10.47929-13.18436
 3.38-1.50 -4.961 -4.952 -4.935 -4.908 -4.872  6.09272 10.97937-12.68424
 3.38-1.00 -5.005 -4.994 -4.976 -4.944 -4.905  6.48671 11.47943-12.18422
 3.38-0.50 -5.012 -5.000 -4.979 -4.945 -4.902  6.90870 11.97978-11.68382
 3.38 0.00 -4.995 -4.980 -4.957 -4.919 -4.872  7.33304 12.48073-11.18290
 3.38 0.50 -4.952 -4.935 -4.909 -4.869 -4.820  7.74609 12.98376-10.67985
 3.38 1.00 -4.866 -4.847 -4.819 -4.778 -4.728  8.15168 13.49262-10.17108
 3.38 1.25 -4.804 -4.785 -4.757 -4.716 -4.667  8.35606 13.75177 -9.91195
 3.38 1.50 -4.731 -4.711 -4.683 -4.641 -4.594  8.56229 14.01494 -9.64878
 3.38 1.75 -4.648 -4.628 -4.601 -4.561 -4.515  8.77464 14.28425 -9.37949
 3.38 2.00 -4.560 -4.541 -4.515 -4.476 -4.432  8.98700 14.55715 -9.10657
 3.38 2.25 -4.473 -4.455 -4.430 -4.393 -4.351  9.19705 14.83387 -8.82978
 3.38 2.50 -4.392 -4.375 -4.351 -4.316 -4.276  9.40381 15.11059 -8.55300
 3.38 2.75 -4.319 -4.303 -4.281 -4.248 -4.209  9.59723 15.38546 -8.27813
 3.38 3.00 -4.255 -4.240 -4.219 -4.189 -4.152  9.78104 15.65830 -8.00533
 3.38 3.20 -4.207 -4.193 -4.175 -4.146 -4.111  9.91998 15.87335 -7.79026
 3.38 3.40 -4.163 -4.151 -4.133 -4.107 -4.073 10.05493 16.08632 -7.57729
 3.38 3.60 -4.120 -4.109 -4.092 -4.068 -4.037 10.18571 16.29711 -7.36655
 3.38 3.80 -4.074 -4.065 -4.051 -4.030 -4.000 10.31444 16.50607 -7.15767
 3.38 4.00 -4.029 -4.021 -4.010 -3.990 -3.963 10.44201 16.71341 -6.95039
 3.38 4.20 -3.986 -3.980 -3.969 -3.950 -3.924 10.56892 16.91925 -6.74450
 3.38 4.40 -3.942 -3.936 -3.926 -3.908 -3.883 10.69547 17.12407 -6.53964
 3.38 4.60 -3.895 -3.889 -3.880 -3.863 -3.840 10.82184 17.32791 -6.33572
 3.38 4.80 -3.846 -3.840 -3.831 -3.815 -3.792 10.94798 17.53108 -6.13250
 3.38 5.00 -3.793 -3.788 -3.779 -3.763 -3.741 11.07372 17.73360 -5.92996
 3.38 5.20 -3.736 -3.731 -3.723 -3.708 -3.686 11.19752 17.93556 -5.72812
 3.38 5.40 -3.676 -3.672 -3.664 -3.650 -3.629 11.31953 18.13714 -5.52661
 3.38 5.60 -3.614 -3.610 -3.603 -3.589 -3.569 11.43923 18.33838 -5.32534
 3.38 5.80 -3.549 -3.545 -3.539 -3.526 -3.506 11.55621 18.53940 -5.12424
 3.38 6.00 -3.483 -3.479 -3.472 -3.460 -3.441 11.67080 18.74021 -4.92336
 3.38 6.25 -3.398 -3.394 -3.388 -3.377 -3.359 11.81052 18.99097 -4.67272
 3.38 6.50 -3.310 -3.307 -3.301 -3.291 -3.274 11.94714 19.24155 -4.42216
 3.38 6.75 -3.222 -3.219 -3.214 -3.204 -3.188 12.08099 19.49199 -4.17163
 3.38 7.00 -3.133 -3.130 -3.126 -3.116 -3.103 12.21272 19.74233 -3.92118
 3.38 7.25 -3.044 -3.041 -3.037 -3.028 -3.016 12.34274 19.99259 -3.67100
 3.38 7.50 -2.954 -2.952 -2.948 -2.940 -2.929 12.47129 20.24279 -3.42090
 3.38 7.75 -2.866 -2.864 -2.860 -2.853 -2.843 12.59867 20.49294 -3.17084
 3.38 8.00 -2.780 -2.777 -2.774 -2.767 -2.758 12.72477 20.74304 -2.92082
 3.40-2.00 -4.690 -4.683 -4.669 -4.646 -4.616  5.97978 10.45939-13.20433
 3.40-1.50 -4.792 -4.784 -4.769 -4.743 -4.709  6.30728 10.95933-12.70443
 3.40-1.00 -4.873 -4.864 -4.846 -4.817 -4.780  6.64768 11.45939-12.20426
 3.40-0.50 -4.919 -4.908 -4.889 -4.856 -4.813  7.01787 11.95947-11.70421
 3.40 0.00 -4.916 -4.904 -4.882 -4.845 -4.799  7.42160 12.45984-11.20384
 3.40 0.50 -4.865 -4.850 -4.826 -4.785 -4.735  7.83935 12.96095-10.70268
 3.40 1.00 -4.760 -4.743 -4.715 -4.673 -4.622  8.25212 13.46434-10.19935
 3.40 1.25 -4.685 -4.666 -4.639 -4.596 -4.545  8.45559 13.71811 -9.94555
 3.40 1.50 -4.593 -4.574 -4.547 -4.504 -4.454  8.65906 13.97410 -9.68952
 3.40 1.75 -4.492 -4.473 -4.446 -4.404 -4.355  8.86354 14.23410 -9.42954
 3.40 2.00 -4.382 -4.363 -4.336 -4.296 -4.248  9.06930 14.49831 -9.16539
 3.40 2.25 -4.271 -4.253 -4.227 -4.189 -4.143  9.28012 14.76885 -8.89494
 3.40 2.50 -4.160 -4.143 -4.120 -4.083 -4.040  9.49094 15.04258 -8.62124
 3.40 2.75 -4.056 -4.041 -4.019 -3.986 -3.946  9.69937 15.31937 -8.34436
 3.40 3.00 -3.962 -3.949 -3.929 -3.898 -3.861  9.90445 15.59616 -8.06748
 3.40 3.20 -3.895 -3.883 -3.865 -3.836 -3.801 10.05912 15.81580 -7.84783
 3.40 3.40 -3.835 -3.824 -3.808 -3.781 -3.749 10.20780 16.03391 -7.62975
 3.40 3.60 -3.780 -3.771 -3.756 -3.732 -3.702 10.34967 16.24992 -7.41377
 3.40 3.80 -3.728 -3.720 -3.708 -3.687 -3.659 10.48613 16.46343 -7.20027
 3.40 4.00 -3.681 -3.674 -3.664 -3.646 -3.620 10.61847 16.67486 -6.98885
 3.40 4.20 -3.640 -3.634 -3.624 -3.607 -3.583 10.74708 16.88412 -6.77959
 3.40 4.40 -3.599 -3.593 -3.585 -3.568 -3.544 10.87423 17.09181 -6.57191
 3.40 4.60 -3.557 -3.552 -3.544 -3.529 -3.506 11.00020 17.29799 -6.36575
 3.40 4.80 -3.515 -3.510 -3.503 -3.488 -3.466 11.12553 17.50307 -6.16070
 3.40 5.00 -3.470 -3.466 -3.458 -3.444 -3.423 11.25018 17.70714 -5.95664
 3.40 5.20 -3.423 -3.418 -3.411 -3.397 -3.377 11.37457 17.91034 -5.75342
 3.40 5.40 -3.370 -3.366 -3.360 -3.347 -3.327 11.49816 18.11296 -5.55077
 3.40 5.60 -3.314 -3.311 -3.304 -3.292 -3.273 11.62066 18.31506 -5.34860
 3.40 5.80 -3.255 -3.251 -3.245 -3.234 -3.216 11.74134 18.51679 -5.14680
 3.40 6.00 -3.194 -3.190 -3.185 -3.173 -3.156 11.86028 18.71817 -4.94539
 3.40 6.25 -3.113 -3.110 -3.105 -3.094 -3.079 12.00523 18.96943 -4.69423
 3.40 6.50 -3.029 -3.026 -3.022 -3.012 -2.998 12.14675 19.22037 -4.44334
 3.40 6.75 -2.944 -2.942 -2.938 -2.929 -2.915 12.28476 19.47109 -4.19256
 3.40 7.00 -2.858 -2.855 -2.851 -2.843 -2.831 12.41996 19.72165 -3.94195
 3.40 7.25 -2.770 -2.768 -2.764 -2.757 -2.746 12.55270 19.97211 -3.69159
 3.40 7.50 -2.683 -2.681 -2.677 -2.671 -2.661 12.68341 20.22246 -3.44129
 3.40 7.75 -2.597 -2.595 -2.591 -2.585 -2.576 12.81251 20.47269 -3.19103
 3.40 8.00 -2.511 -2.510 -2.507 -2.501 -2.493 12.93987 20.72280 -2.94082
 3.42-2.00 -4.503 -4.496 -4.484 -4.463 -4.436  6.20385 10.43933-13.22432
 3.42-1.50 -4.601 -4.594 -4.580 -4.556 -4.524  6.54444 10.93937-12.72423
 3.42-1.00 -4.697 -4.688 -4.673 -4.646 -4.609  6.87186 11.43949-12.22424
 3.42-0.50 -4.770 -4.760 -4.742 -4.711 -4.671  7.20249 11.93942-11.72423
 3.42 0.00 -4.802 -4.791 -4.770 -4.735 -4.688  7.55461 12.43965-11.22410
 3.42 0.50 -4.773 -4.759 -4.736 -4.697 -4.646  7.93882 12.94002-10.72377
 3.42 1.00 -4.670 -4.654 -4.629 -4.587 -4.532  8.34537 13.44138-10.22236
 3.42 1.25 -4.587 -4.572 -4.546 -4.504 -4.449  8.55021 13.69286 -9.97089
 3.42 1.50 -4.487 -4.471 -4.445 -4.402 -4.348  8.75504 13.94527 -9.71851
 3.42 1.75 -4.370 -4.354 -4.328 -4.286 -4.233  8.95865 14.19964 -9.46408
 3.42 2.00 -4.241 -4.224 -4.198 -4.157 -4.107  9.16227 14.45652 -9.20712
 3.42 2.25 -4.106 -4.090 -4.065 -4.026 -3.979  9.36710 14.71784 -8.94587
 3.42 2.50 -3.970 -3.954 -3.931 -3.895 -3.851  9.57322 14.98354 -8.68027
 3.42 2.75 -3.840 -3.826 -3.805 -3.773 -3.732  9.78282 15.25553 -8.40816
 3.42 3.00 -3.718 -3.706 -3.687 -3.658 -3.621  9.99242 15.53007 -8.13354
 3.42 3.20 -3.628 -3.618 -3.601 -3.575 -3.540 10.15785 15.75144 -7.91214
 3.42 3.40 -3.547 -3.537 -3.523 -3.499 -3.467 10.32065 15.97282 -7.69074
 3.42 3.60 -3.473 -3.465 -3.452 -3.431 -3.402 10.47827 16.19329 -7.47027
 3.42 3.80 -3.406 -3.400 -3.389 -3.370 -3.344 10.62832 16.41156 -7.25205
 3.42 4.00 -3.347 -3.342 -3.333 -3.316 -3.293 10.77254 16.62808 -7.03560
 3.42 4.20 -3.298 -3.294 -3.285 -3.270 -3.248 10.90985 16.84171 -6.82197
 3.42 4.40 -3.253 -3.249 -3.242 -3.228 -3.207 11.04311 17.05332 -6.61034
 3.42 4.60 -3.212 -3.208 -3.201 -3.188 -3.168 11.17231 17.26290 -6.40075
 3.42 4.80 -3.173 -3.169 -3.162 -3.150 -3.131 11.29920 17.47087 -6.19279
 3.42 5.00 -3.133 -3.129 -3.123 -3.111 -3.093 11.42439 17.67733 -5.98632
 3.42 5.20 -3.091 -3.088 -3.082 -3.070 -3.053 11.54860 17.88243 -5.78119
 3.42 5.40 -3.047 -3.044 -3.038 -3.027 -3.010 11.67194 18.08661 -5.57698
 3.42 5.60 -2.999 -2.996 -2.991 -2.980 -2.964 11.79467 18.28996 -5.37360
 3.42 5.80 -2.949 -2.946 -2.941 -2.930 -2.914 11.91673 18.49274 -5.17080
 3.42 6.00 -2.894 -2.891 -2.886 -2.877 -2.862 12.03783 18.69496 -4.96859
 3.42 6.25 -2.821 -2.818 -2.814 -2.805 -2.791 12.18654 18.94707 -4.71660
 3.42 6.50 -2.743 -2.741 -2.737 -2.729 -2.716 12.33244 19.19866 -4.46509
 3.42 6.75 -2.664 -2.662 -2.658 -2.650 -2.638 12.47480 19.44982 -4.21389
 3.42 7.00 -2.581 -2.579 -2.576 -2.569 -2.558 12.61405 19.70070 -3.96297
 3.42 7.25 -2.497 -2.496 -2.492 -2.486 -2.476 12.75018 19.95141 -3.71232
 3.42 7.50 -2.413 -2.411 -2.408 -2.403 -2.394 12.88372 20.20194 -3.46180
 3.42 7.75 -2.329 -2.327 -2.325 -2.319 -2.311 13.01513 20.45231 -3.21135
 3.42 8.00 -2.246 -2.245 -2.242 -2.237 -2.230 13.14426 20.70252 -2.96098
 3.44-2.00 -4.355 -4.349 -4.337 -4.317 -4.291  6.36903 10.41929-13.24435
 3.44-1.50 -4.428 -4.421 -4.408 -4.386 -4.357  6.74788 10.91934-12.74425
 3.44-1.00 -4.512 -4.504 -4.489 -4.464 -4.430  7.09761 11.41946-12.24428
 3.44-0.50 -4.589 -4.581 -4.563 -4.534 -4.496  7.42797 11.91939-11.74425
 3.44 0.00 -4.639 -4.628 -4.608 -4.575 -4.530  7.75397 12.41946-11.24420
 3.44 0.50 -4.636 -4.623 -4.600 -4.561 -4.510  8.09307 12.91960-10.74401
 3.44 1.00 -4.557 -4.543 -4.519 -4.476 -4.419  8.45969 13.42012-10.24352
 3.44 1.25 -4.484 -4.469 -4.443 -4.400 -4.342  8.65429 13.67073 -9.99299
 3.44 1.50 -4.386 -4.371 -4.346 -4.303 -4.245  8.85266 13.92174 -9.74208
 3.44 1.75 -4.266 -4.251 -4.227 -4.184 -4.127  9.05390 14.17355 -9.49021
 3.44 2.00 -4.128 -4.114 -4.090 -4.049 -3.995  9.25624 14.42651 -9.23710
 3.44 2.25 -3.978 -3.963 -3.941 -3.903 -3.853  9.45894 14.68178 -8.98184
 3.44 2.50 -3.821 -3.808 -3.787 -3.752 -3.706  9.66257 14.93992 -8.72377
 3.44 2.75 -3.667 -3.655 -3.636 -3.605 -3.563  9.86786 15.20302 -8.46069
 3.44 3.00 -3.519 -3.508 -3.491 -3.463 -3.426 10.07445 15.47056 -8.19314
 3.44 3.20 -3.409 -3.400 -3.385 -3.360 -3.326 10.24116 15.68936 -7.97421
 3.44 3.40 -3.307 -3.299 -3.286 -3.263 -3.233 10.40787 15.90921 -7.75430
 3.44 3.60 -3.213 -3.206 -3.194 -3.175 -3.147 10.57338 16.13013 -7.53341
 3.44 3.80 -3.127 -3.121 -3.112 -3.095 -3.071 10.73524 16.35133 -7.31227
 3.44 4.00 -3.050 -3.046 -3.038 -3.023 -3.001 10.89382 16.57252 -7.09114
 3.44 4.20 -2.985 -2.982 -2.974 -2.961 -2.941 11.04438 16.79084 -6.87294
 3.44 4.40 -2.928 -2.925 -2.918 -2.906 -2.888 11.18927 17.00718 -6.65668
 3.44 4.60 -2.878 -2.876 -2.869 -2.858 -2.841 11.32787 17.22117 -6.44269
 3.44 4.80 -2.834 -2.831 -2.826 -2.815 -2.799 11.46152 17.43284 -6.23094
 3.44 5.00 -2.793 -2.790 -2.785 -2.775 -2.759 11.59129 17.64256 -6.02113
 3.44 5.20 -2.754 -2.751 -2.746 -2.736 -2.721 11.71777 17.85052 -5.81319
 3.44 5.40 -2.714 -2.712 -2.707 -2.697 -2.683 11.84248 18.05710 -5.60665
 3.44 5.60 -2.673 -2.670 -2.666 -2.657 -2.643 11.96575 18.26229 -5.40150
 3.44 5.80 -2.629 -2.626 -2.622 -2.614 -2.600 12.08806 18.46650 -5.19732
 3.44 6.00 -2.582 -2.580 -2.576 -2.567 -2.555 12.20925 18.66988 -4.99396
 3.44 6.25 -2.519 -2.517 -2.513 -2.505 -2.493 12.35958 18.92324 -4.74058
 3.44 6.50 -2.450 -2.448 -2.445 -2.438 -2.427 12.50799 19.17580 -4.48798
 3.44 6.75 -2.379 -2.377 -2.374 -2.367 -2.357 12.65383 19.42766 -4.23607
 3.44 7.00 -2.302 -2.301 -2.298 -2.292 -2.282 12.79692 19.67907 -3.98464
 3.44 7.25 -2.224 -2.222 -2.219 -2.214 -2.205 12.93659 19.93016 -3.73360
 3.44 7.50 -2.144 -2.142 -2.140 -2.134 -2.127 13.07335 20.18099 -3.48280
 3.44 7.75 -2.063 -2.062 -2.059 -2.054 -2.047 13.20747 20.43163 -3.23217
 3.44 8.00 -1.984 -1.982 -1.980 -1.976 -1.969 13.33885 20.68206 -2.98172
 3.46-2.00 -4.251 -4.246 -4.235 -4.217 -4.192  6.46864 10.39933-13.26440
 3.46-1.50 -4.296 -4.289 -4.277 -4.256 -4.228  6.88913 10.89927-12.76447
 3.46-1.00 -4.353 -4.345 -4.332 -4.308 -4.275  7.27944 11.39933-12.26432
 3.46-0.50 -4.412 -4.403 -4.387 -4.359 -4.322  7.63859 11.89933-11.76447
 3.46 0.00 -4.454 -4.444 -4.426 -4.393 -4.350  7.97382 12.39933-11.26432
 3.46 0.50 -4.457 -4.445 -4.424 -4.386 -4.335  8.29863 12.89944-10.76422
 3.46 1.00 -4.397 -4.383 -4.359 -4.317 -4.260  8.62941 13.39967-10.26400
 3.46 1.25 -4.336 -4.322 -4.297 -4.253 -4.194  8.80259 13.64991-10.01380
 3.46 1.50 -4.252 -4.238 -4.213 -4.167 -4.108  8.98173 13.90031 -9.76346
 3.46 1.75 -4.142 -4.128 -4.103 -4.059 -4.001  9.16869 14.15111 -9.51267
 3.46 2.00 -4.010 -3.997 -3.974 -3.932 -3.875  9.36078 14.40243 -9.26130
 3.46 2.25 -3.860 -3.847 -3.826 -3.786 -3.733  9.55722 14.65471 -9.00897
 3.46 2.50 -3.698 -3.686 -3.666 -3.631 -3.583  9.75648 14.90838 -8.75523
 3.46 2.75 -3.530 -3.519 -3.502 -3.470 -3.428  9.95762 15.16488 -8.49875
 3.46 3.00 -3.363 -3.354 -3.338 -3.311 -3.273 10.16077 15.42472 -8.23898
 3.46 3.20 -3.234 -3.226 -3.212 -3.188 -3.154 10.32511 15.63659 -8.02709
 3.46 3.40 -3.112 -3.104 -3.092 -3.071 -3.041 10.49000 15.85127 -7.81240
 3.46 3.60 -2.997 -2.991 -2.981 -2.962 -2.936 10.65545 16.06997 -7.59368
 3.46 3.80 -2.892 -2.887 -2.879 -2.863 -2.840 10.82107 16.29059 -7.37305
 3.46 4.00 -2.796 -2.792 -2.785 -2.772 -2.752 10.98668 16.51122 -7.15243
 3.46 4.20 -2.714 -2.710 -2.704 -2.692 -2.674 11.14773 16.73181 -6.93183
 3.46 4.40 -2.639 -2.637 -2.631 -2.620 -2.604 11.30480 16.95234 -6.71128
 3.46 4.60 -2.575 -2.573 -2.567 -2.558 -2.543 11.45629 17.17141 -6.49220
 3.46 4.80 -2.519 -2.517 -2.512 -2.503 -2.489 11.60112 17.38751 -6.27613
 3.46 5.00 -2.469 -2.467 -2.463 -2.454 -2.441 11.74052 17.60152 -6.06213
 3.46 5.20 -2.425 -2.423 -2.419 -2.411 -2.398 11.87404 17.81298 -5.85058
 3.46 5.40 -2.383 -2.381 -2.377 -2.369 -2.357 12.00389 18.02263 -5.64087
 3.46 5.60 -2.343 -2.341 -2.337 -2.330 -2.318 12.13015 18.23052 -5.43300
 3.46 5.80 -2.303 -2.301 -2.297 -2.290 -2.279 12.25420 18.43707 -5.22654
 3.46 6.00 -2.262 -2.260 -2.257 -2.250 -2.239 12.37640 18.64237 -5.02132
 3.46 6.25 -2.207 -2.206 -2.202 -2.196 -2.186 12.52762 18.89747 -4.76621
 3.46 6.50 -2.150 -2.148 -2.145 -2.139 -2.129 12.67688 19.15137 -4.51230
 3.46 6.75 -2.087 -2.085 -2.082 -2.076 -2.067 12.82453 19.40433 -4.25934
 3.46 7.00 -2.019 -2.017 -2.015 -2.009 -2.001 12.97002 19.65658 -4.00709
 3.46 7.25 -1.948 -1.946 -1.944 -1.939 -1.931 13.11271 19.90828 -3.75544
 3.46 7.50 -1.874 -1.873 -1.870 -1.865 -1.858 13.25261 20.15957 -3.50418
 3.46 7.75 -1.799 -1.797 -1.795 -1.791 -1.784 13.38946 20.41057 -3.25318
 3.46 8.00 -1.723 -1.722 -1.720 -1.716 -1.710 13.52336 20.66124 -3.00248
 3.48-2.00 -4.190 -4.185 -4.175 -4.158 -4.136  6.51402 10.37894-13.28475
 3.48-1.50 -4.207 -4.200 -4.189 -4.169 -4.142  6.97137 10.87892-12.78463
 3.48-1.00 -4.235 -4.227 -4.214 -4.191 -4.160  7.40157 11.37894-12.28467
 3.48-0.50 -4.265 -4.256 -4.241 -4.214 -4.178  7.80223 11.87898-11.78463
 3.48 0.00 -4.283 -4.273 -4.254 -4.222 -4.180  8.17085 12.37912-11.28467
 3.48 0.50 -4.268 -4.257 -4.236 -4.199 -4.149  8.51188 12.87904-10.78463
 3.48 1.00 -4.205 -4.192 -4.169 -4.128 -4.072  8.83740 13.37912-10.28450
 3.48 1.25 -4.149 -4.136 -4.111 -4.068 -4.010  9.00013 13.62924-10.03443
 3.48 1.50 -4.074 -4.060 -4.035 -3.992 -3.932  9.16286 13.87944 -9.78436
 3.48 1.75 -3.976 -3.962 -3.938 -3.894 -3.835  9.33112 14.12980 -9.53399
 3.48 2.00 -3.858 -3.844 -3.820 -3.778 -3.721  9.50420 14.38039 -9.28333
 3.48 2.25 -3.719 -3.706 -3.685 -3.645 -3.591  9.68433 14.63135 -9.03231
 3.48 2.50 -3.566 -3.554 -3.534 -3.499 -3.449  9.87011 14.88292 -8.78068
 3.48 2.75 -3.400 -3.390 -3.373 -3.341 -3.296 10.06144 15.13592 -8.52771
 3.48 3.00 -3.230 -3.221 -3.205 -3.177 -3.138 10.25696 15.39076 -8.27295
 3.48 3.20 -3.091 -3.083 -3.070 -3.045 -3.011 10.41585 15.59696 -8.06679
 3.48 3.40 -2.955 -2.949 -2.937 -2.916 -2.886 10.57668 15.80557 -7.85821
 3.48 3.60 -2.825 -2.819 -2.809 -2.791 -2.765 10.74012 16.01745 -7.64628
 3.48 3.80 -2.701 -2.696 -2.688 -2.672 -2.650 10.90471 16.23272 -7.43093
 3.48 4.00 -2.585 -2.581 -2.574 -2.562 -2.543 11.06930 16.45056 -7.21304
 3.48 4.20 -2.484 -2.481 -2.474 -2.463 -2.447 11.23363 16.67189 -6.99180
 3.48 4.40 -2.391 -2.389 -2.384 -2.374 -2.359 11.39751 16.89322 -6.77057
 3.48 4.60 -2.310 -2.308 -2.303 -2.294 -2.281 11.55890 17.11422 -6.54964
 3.48 4.80 -2.238 -2.236 -2.232 -2.224 -2.212 11.71474 17.33409 -6.32973
 3.48 5.00 -2.175 -2.173 -2.169 -2.162 -2.150 11.86605 17.55291 -6.11081
 3.48 5.20 -2.120 -2.118 -2.114 -2.108 -2.097 12.01020 17.76873 -5.89501
 3.48 5.40 -2.070 -2.068 -2.065 -2.058 -2.048 12.14916 17.98243 -5.68133
 3.48 5.60 -2.025 -2.023 -2.020 -2.014 -2.004 12.28264 18.19387 -5.46989
 3.48 5.80 -1.983 -1.982 -1.979 -1.972 -1.963 12.41200 18.40334 -5.26040
 3.48 6.00 -1.943 -1.941 -1.939 -1.933 -1.924 12.53794 18.61109 -5.05262
 3.48 6.25 -1.894 -1.893 -1.890 -1.884 -1.876 12.69172 18.86864 -4.79500
 3.48 6.50 -1.843 -1.841 -1.839 -1.833 -1.825 12.84255 19.12450 -4.53910
 3.48 6.75 -1.788 -1.787 -1.784 -1.779 -1.771 12.99137 19.37907 -4.28456
 3.48 7.00 -1.730 -1.729 -1.726 -1.721 -1.714 13.13799 19.63256 -4.03110
 3.48 7.25 -1.668 -1.666 -1.664 -1.659 -1.652 13.28265 19.88510 -3.77858
 3.48 7.50 -1.602 -1.601 -1.598 -1.594 -1.587 13.42488 20.13704 -3.52666
 3.48 7.75 -1.534 -1.533 -1.530 -1.526 -1.520 13.56411 20.38859 -3.27510
 3.48 8.00 -1.464 -1.463 -1.461 -1.457 -1.451 13.70053 20.63969 -3.02397
 3.50-2.00 -4.163 -4.159 -4.151 -4.138 -4.121  6.51812 10.35927-13.30452
 3.50-1.50 -4.157 -4.152 -4.141 -4.124 -4.101  7.00217 10.85920-12.80438
 3.50-1.00 -4.157 -4.151 -4.138 -4.116 -4.088  7.46657 11.35927-12.30443
 3.50-0.50 -4.161 -4.153 -4.138 -4.111 -4.076  7.90390 11.85926-11.80438
 3.50 0.00 -4.148 -4.138 -4.121 -4.090 -4.047  8.31197 12.35927-11.30434
 3.50 0.50 -4.102 -4.091 -4.070 -4.034 -3.986  8.68744 12.85932-10.80438
 3.50 1.00 -4.015 -4.003 -3.980 -3.939 -3.885  9.03342 13.35946-10.30426
 3.50 1.25 -3.953 -3.940 -3.916 -3.874 -3.817  9.19789 13.60948-10.05419
 3.50 1.50 -3.875 -3.862 -3.838 -3.796 -3.738  9.36059 13.85950 -9.80410
 3.50 1.75 -3.781 -3.767 -3.744 -3.702 -3.644  9.52200 14.10970 -9.55396
 3.50 2.00 -3.670 -3.658 -3.635 -3.594 -3.538  9.68341 14.36002 -9.30373
 3.50 2.25 -3.544 -3.532 -3.510 -3.471 -3.418  9.84857 14.61045 -9.05325
 3.50 2.50 -3.403 -3.392 -3.372 -3.337 -3.288 10.01745 14.86112 -8.80244
 3.50 2.75 -3.250 -3.240 -3.223 -3.191 -3.147 10.19265 15.11247 -8.55108
 3.50 3.00 -3.088 -3.080 -3.064 -3.036 -2.998 10.37346 15.36474 -8.29886
 3.50 3.20 -2.953 -2.946 -2.932 -2.908 -2.874 10.52253 15.56779 -8.09588
 3.50 3.40 -2.817 -2.810 -2.798 -2.777 -2.747 10.67496 15.77234 -7.89141
 3.50 3.60 -2.680 -2.674 -2.664 -2.645 -2.619 10.83093 15.97892 -7.68488
 3.50 3.80 -2.545 -2.540 -2.532 -2.516 -2.494 10.98967 16.18845 -7.47534
 3.50 4.00 -2.415 -2.411 -2.404 -2.391 -2.373 11.15076 16.40071 -7.26305
 3.50 4.20 -2.296 -2.293 -2.287 -2.276 -2.260 11.31480 16.61733 -7.04639
 3.50 4.40 -2.185 -2.183 -2.177 -2.168 -2.154 11.47884 16.83587 -6.82783
 3.50 4.60 -2.085 -2.083 -2.078 -2.070 -2.058 11.64242 17.05663 -6.60708
 3.50 4.80 -1.996 -1.995 -1.991 -1.983 -1.972 11.80426 17.27816 -6.38557
 3.50 5.00 -1.917 -1.915 -1.912 -1.905 -1.895 11.96440 17.49969 -6.16406
 3.50 5.20 -1.848 -1.847 -1.843 -1.837 -1.828 12.11852 17.71905 -5.94466
 3.50 5.40 -1.786 -1.785 -1.782 -1.776 -1.767 12.26770 17.93673 -5.72694
 3.50 5.60 -1.731 -1.730 -1.727 -1.721 -1.713 12.41106 18.15228 -5.51137
 3.50 5.80 -1.682 -1.681 -1.678 -1.673 -1.665 12.54866 18.36545 -5.29823
 3.50 6.00 -1.638 -1.637 -1.634 -1.629 -1.621 12.68142 18.57657 -5.08714
 3.50 6.25 -1.588 -1.586 -1.584 -1.579 -1.571 12.84105 18.83760 -4.82613
 3.50 6.50 -1.539 -1.537 -1.535 -1.530 -1.523 12.99585 19.09621 -4.56751
 3.50 6.75 -1.489 -1.488 -1.486 -1.481 -1.474 13.14698 19.35274 -4.31096
 3.50 7.00 -1.439 -1.437 -1.435 -1.430 -1.424 13.29513 19.60778 -4.05591
 3.50 7.25 -1.385 -1.383 -1.381 -1.377 -1.370 13.44109 19.86166 -3.80207
 3.50 7.50 -1.328 -1.326 -1.324 -1.320 -1.314 13.58456 20.11461 -3.54914
 3.50 7.75 -1.268 -1.266 -1.264 -1.260 -1.254 13.72550 20.36687 -3.29686
 3.50 8.00 -1.206 -1.204 -1.202 -1.198 -1.192 13.86392 20.61836 -3.04532
 3.52-2.00 -4.147 -4.144 -4.139 -4.130 -4.118  6.50745 10.33905-13.32450
 3.52-1.50 -4.137 -4.132 -4.125 -4.111 -4.095  7.00087 10.83916-12.82449
 3.52-1.00 -4.120 -4.114 -4.104 -4.085 -4.061  7.48770 11.33925-12.32450
 3.52-0.50 -4.097 -4.089 -4.075 -4.051 -4.020  7.95789 11.83923-11.82449
 3.52 0.00 -4.056 -4.046 -4.030 -4.000 -3.961  8.40192 12.33925-11.32440
 3.52 0.50 -3.978 -3.967 -3.947 -3.912 -3.865  8.81624 12.83929-10.82449
 3.52 1.00 -3.855 -3.842 -3.820 -3.780 -3.727  9.19838 13.33945-10.32431
 3.52 1.25 -3.778 -3.765 -3.741 -3.700 -3.644  9.37697 13.58943-10.07426
 3.52 1.50 -3.688 -3.675 -3.651 -3.609 -3.552  9.54913 13.83942 -9.82420
 3.52 1.75 -3.586 -3.573 -3.550 -3.509 -3.452  9.71507 14.08950 -9.57413
 3.52 2.00 -3.472 -3.460 -3.438 -3.399 -3.345  9.87812 14.33965 -9.32404
 3.52 2.25 -3.348 -3.336 -3.316 -3.279 -3.228 10.03866 14.58985 -9.07388
 3.52 2.50 -3.215 -3.205 -3.186 -3.152 -3.105 10.19921 14.84017 -8.82362
 3.52 2.75 -3.073 -3.064 -3.047 -3.016 -2.973 10.36219 15.09079 -8.57294
 3.52 3.00 -2.924 -2.916 -2.901 -2.873 -2.835 10.52789 15.34183 -8.32176
 3.52 3.20 -2.798 -2.790 -2.777 -2.753 -2.719 10.66446 15.54328 -8.12031
 3.52 3.40 -2.669 -2.663 -2.651 -2.630 -2.600 10.80447 15.74553 -7.91811
 3.52 3.60 -2.537 -2.531 -2.521 -2.503 -2.477 10.94830 15.94884 -7.71485
 3.52 3.80 -2.404 -2.399 -2.390 -2.375 -2.353 11.09624 16.15405 -7.50964
 3.52 4.00 -2.270 -2.266 -2.259 -2.246 -2.228 11.24797 16.36116 -7.30251
 3.52 4.20 -2.142 -2.139 -2.132 -2.121 -2.105 11.40427 16.57168 -7.09198
 3.52 4.40 -2.017 -2.014 -2.009 -2.000 -1.986 11.56304 16.78506 -6.87859
 3.52 4.60 -1.901 -1.899 -1.894 -1.886 -1.875 11.72476 17.00247 -6.66122
 3.52 4.80 -1.795 -1.794 -1.789 -1.782 -1.772 11.88757 17.22229 -6.44146
 3.52 5.00 -1.698 -1.696 -1.693 -1.687 -1.677 12.05038 17.44279 -6.22098
 3.52 5.20 -1.614 -1.612 -1.609 -1.603 -1.595 12.21038 17.66376 -6.00002
 3.52 5.40 -1.537 -1.536 -1.533 -1.528 -1.519 12.36759 17.88472 -5.77906
 3.52 5.60 -1.470 -1.468 -1.466 -1.461 -1.453 12.52055 18.10444 -5.55932
 3.52 5.80 -1.410 -1.409 -1.406 -1.401 -1.394 12.66757 18.32143 -5.34230
 3.52 6.00 -1.357 -1.356 -1.353 -1.349 -1.341 12.80949 18.53643 -5.12726
 3.52 6.25 -1.299 -1.298 -1.296 -1.291 -1.284 12.97845 18.80157 -4.86212
 3.52 6.50 -1.247 -1.246 -1.243 -1.239 -1.232 13.14051 19.06371 -4.59998
 3.52 6.75 -1.198 -1.197 -1.195 -1.190 -1.184 13.29646 19.32314 -4.34052
 3.52 7.00 -1.151 -1.149 -1.147 -1.143 -1.137 13.44793 19.58047 -4.08318
 3.52 7.25 -1.103 -1.101 -1.099 -1.095 -1.089 13.59599 19.83601 -3.82770
 3.52 7.50 -1.053 -1.052 -1.050 -1.045 -1.039 13.74092 20.09026 -3.57349
 3.52 7.75 -1.001 -1.000 -0.997 -0.993 -0.987 13.88326 20.34361 -3.32012
 3.52 8.00 -0.947 -0.945 -0.943 -0.939 -0.933 14.02284 20.59594 -3.06773
 3.54-2.00 -4.116 -4.113 -4.110 -4.103 -4.095  6.50840 10.31911-13.34457
 3.54-1.50 -4.118 -4.115 -4.110 -4.101 -4.090  6.99207 10.81908-12.84466
 3.54-1.00 -4.104 -4.100 -4.092 -4.079 -4.061  7.48345 11.31911-12.34448
 3.54-0.50 -4.071 -4.065 -4.054 -4.033 -4.008  7.97165 11.81915-11.84466
 3.54 0.00 -4.008 -4.000 -3.984 -3.957 -3.922  8.44592 12.31931-11.34448
 3.54 0.50 -3.901 -3.890 -3.871 -3.837 -3.793  8.89509 12.81928-10.84436
 3.54 1.00 -3.741 -3.729 -3.708 -3.668 -3.617  9.31450 13.31931-10.34438
 3.54 1.25 -3.644 -3.632 -3.609 -3.570 -3.515  9.51199 13.56933-10.09438
 3.54 1.50 -3.536 -3.523 -3.500 -3.460 -3.405  9.70140 13.81935 -9.84436
 3.54 1.75 -3.418 -3.405 -3.383 -3.343 -3.289  9.88221 14.06943 -9.59428
 3.54 2.00 -3.293 -3.281 -3.259 -3.220 -3.168 10.05614 14.31952 -9.34419
 3.54 2.25 -3.161 -3.149 -3.130 -3.093 -3.044 10.22331 14.56962 -9.09412
 3.54 2.50 -3.024 -3.014 -2.995 -2.962 -2.917 10.38686 14.81974 -8.84406
 3.54 2.75 -2.883 -2.874 -2.857 -2.828 -2.787 10.54704 15.07004 -8.59373
 3.54 3.00 -2.740 -2.731 -2.717 -2.691 -2.654 10.70723 15.32056 -8.34314
 3.54 3.20 -2.621 -2.614 -2.601 -2.577 -2.544 10.83625 15.52125 -8.14245
 3.54 3.40 -2.501 -2.494 -2.483 -2.462 -2.433 10.96635 15.72233 -7.94140
 3.54 3.60 -2.377 -2.372 -2.362 -2.343 -2.317 11.09857 15.92394 -7.73981
 3.54 3.80 -2.251 -2.246 -2.237 -2.221 -2.199 11.23455 16.12662 -7.53712
 3.54 4.00 -2.123 -2.119 -2.111 -2.098 -2.079 11.37383 16.33042 -7.33330
 3.54 4.20 -1.995 -1.992 -1.986 -1.975 -1.958 11.51772 16.53632 -7.12741
 3.54 4.40 -1.869 -1.866 -1.861 -1.851 -1.837 11.66566 16.74459 -6.91917
 3.54 4.60 -1.746 -1.744 -1.739 -1.731 -1.719 11.81865 16.95606 -6.70769
 3.54 4.80 -1.628 -1.627 -1.623 -1.616 -1.605 11.97522 17.17095 -6.49277
 3.54 5.00 -1.517 -1.516 -1.512 -1.506 -1.496 12.13386 17.38846 -6.27523
 3.54 5.20 -1.417 -1.415 -1.412 -1.406 -1.398 12.29443 17.60962 -6.05410
 3.54 5.40 -1.325 -1.323 -1.320 -1.315 -1.307 12.45501 17.83078 -5.83296
 3.54 5.60 -1.242 -1.241 -1.239 -1.234 -1.226 12.61388 18.05170 -5.61204
 3.54 5.80 -1.170 -1.169 -1.166 -1.162 -1.155 12.76831 18.27175 -5.39196
 3.54 6.00 -1.105 -1.104 -1.102 -1.097 -1.091 12.91908 18.49094 -5.17270
 3.54 6.25 -1.035 -1.034 -1.032 -1.028 -1.021 13.09869 18.76080 -4.90289
 3.54 6.50 -0.975 -0.974 -0.972 -0.968 -0.962 13.27045 19.02735 -4.63639
 3.54 6.75 -0.922 -0.920 -0.918 -0.914 -0.908 13.43402 19.29027 -4.37342
 3.54 7.00 -0.873 -0.872 -0.870 -0.866 -0.860 13.59129 19.55047 -4.11317
 3.54 7.25 -0.827 -0.825 -0.823 -0.819 -0.813 13.74309 19.80836 -3.85535
 3.54 7.50 -0.781 -0.780 -0.778 -0.774 -0.768 13.89059 20.06446 -3.59929
 3.54 7.75 -0.735 -0.734 -0.732 -0.728 -0.722 14.03485 20.31927 -3.34446
 3.54 8.00 -0.688 -0.687 -0.685 -0.681 -0.675 14.17551 20.57264 -3.09103
 3.56-2.00 -4.024 -4.022 -4.020 -4.015 -4.010  6.57345 10.29907-13.36462
 3.56-1.50 -4.070 -4.068 -4.064 -4.058 -4.050  7.01030 10.79900-12.86455
 3.56-1.00 -4.080 -4.077 -4.072 -4.063 -4.051  7.48058 11.29907-12.36462
 3.56-0.50 -4.058 -4.054 -4.046 -4.032 -4.013  7.96689 11.79906-11.86455
 3.56 0.00 -3.994 -3.988 -3.976 -3.955 -3.928  8.45485 12.29907-11.36462
 3.56 0.50 -3.870 -3.861 -3.845 -3.816 -3.777  8.93141 12.79913-10.86455
 3.56 1.00 -3.678 -3.666 -3.646 -3.611 -3.562  9.38453 13.29929-10.36452
 3.56 1.25 -3.561 -3.549 -3.528 -3.491 -3.440  9.60001 13.54925-10.11453
 3.56 1.50 -3.432 -3.420 -3.398 -3.359 -3.307  9.80767 13.79920 -9.86455
 3.56 1.75 -3.297 -3.284 -3.262 -3.224 -3.172 10.00699 14.04924 -9.61443
 3.56 2.00 -3.153 -3.141 -3.120 -3.083 -3.031 10.19811 14.29929 -9.36432
 3.56 2.25 -3.006 -2.994 -2.975 -2.940 -2.892 10.38049 14.54934 -9.11427
 3.56 2.50 -2.857 -2.846 -2.828 -2.796 -2.752 10.55570 14.79941 -8.86423
 3.56 2.75 -2.708 -2.699 -2.683 -2.653 -2.613 10.72381 15.04962 -8.61408
 3.56 3.00 -2.560 -2.552 -2.537 -2.511 -2.476 10.88779 15.29994 -8.36381
 3.56 3.20 -2.441 -2.433 -2.421 -2.397 -2.365 11.01573 15.50027 -8.16349
 3.56 3.40 -2.322 -2.315 -2.304 -2.283 -2.254 11.14367 15.70076 -7.96297
 3.56 3.60 -2.202 -2.197 -2.186 -2.168 -2.143 11.27174 15.90152 -7.76219
 3.56 3.80 -2.081 -2.077 -2.068 -2.052 -2.030 11.40040 16.10291 -7.56081
 3.56 4.00 -1.960 -1.956 -1.949 -1.935 -1.915 11.52969 16.30492 -7.35882
 3.56 4.20 -1.838 -1.834 -1.828 -1.817 -1.799 11.66252 16.50806 -7.15565
 3.56 4.40 -1.715 -1.712 -1.707 -1.697 -1.682 11.79855 16.71270 -6.95094
 3.56 4.60 -1.593 -1.590 -1.586 -1.578 -1.565 11.93859 16.91937 -6.74421
 3.56 4.80 -1.473 -1.471 -1.468 -1.460 -1.449 12.08335 17.12903 -6.53453
 3.56 5.00 -1.357 -1.355 -1.352 -1.345 -1.335 12.23223 17.34144 -6.32212
 3.56 5.20 -1.247 -1.245 -1.242 -1.236 -1.227 12.38739 17.55836 -6.10525
 3.56 5.40 -1.143 -1.141 -1.139 -1.133 -1.125 12.54349 17.77711 -5.88655
 3.56 5.60 -1.047 -1.046 -1.044 -1.039 -1.031 12.70051 17.99792 -5.66576
 3.56 5.80 -0.962 -0.960 -0.958 -0.953 -0.946 12.85773 18.21941 -5.44428
 3.56 6.00 -0.884 -0.883 -0.881 -0.876 -0.870 13.01494 18.44091 -5.22279
 3.56 6.25 -0.800 -0.799 -0.797 -0.793 -0.787 13.20335 18.71478 -4.94895
 3.56 6.50 -0.728 -0.727 -0.724 -0.721 -0.715 13.38507 18.98597 -4.67778
 3.56 6.75 -0.666 -0.665 -0.663 -0.659 -0.653 13.55778 19.25310 -4.41060
 3.56 7.00 -0.612 -0.611 -0.609 -0.605 -0.599 13.72296 19.51707 -4.14661
 3.56 7.25 -0.563 -0.562 -0.560 -0.556 -0.550 13.88072 19.77805 -3.88577
 3.56 7.50 -0.518 -0.517 -0.515 -0.511 -0.505 14.03262 20.03663 -3.62727
 3.56 7.75 -0.475 -0.474 -0.472 -0.468 -0.462 14.17993 20.29330 -3.37052
 3.56 8.00 -0.433 -0.432 -0.429 -0.425 -0.419 14.32222 20.54790 -3.11572
 3.58-2.00 -3.836 -3.834 -3.832 -3.829 -3.824  6.75709 10.27898-13.38468
 3.58-1.50 -3.943 -3.942 -3.939 -3.933 -3.927  7.11826 10.77902-12.88472
 3.58-1.00 -4.009 -4.006 -4.002 -3.996 -3.986  7.52505 11.27898-12.38458
 3.58-0.50 -4.026 -4.023 -4.016 -4.007 -3.994  7.97529 11.77902-11.88472
 3.58 0.00 -3.986 -3.981 -3.973 -3.957 -3.938  8.45255 12.27898-11.38458
 3.58 0.50 -3.871 -3.864 -3.851 -3.829 -3.799  8.93782 12.77909-10.88472
 3.58 1.00 -3.664 -3.654 -3.637 -3.608 -3.568  9.41514 13.27921-10.38458
 3.58 1.25 -3.531 -3.521 -3.502 -3.470 -3.426  9.64600 13.52919-10.13448
 3.58 1.50 -3.383 -3.372 -3.351 -3.316 -3.270  9.87052 13.77916 -9.88439
 3.58 1.75 -3.226 -3.215 -3.195 -3.159 -3.112 10.08708 14.02918 -9.63443
 3.58 2.00 -3.062 -3.051 -3.031 -2.996 -2.948 10.29579 14.27921 -9.38447
 3.58 2.25 -2.897 -2.886 -2.867 -2.834 -2.789 10.49610 14.52925 -9.13446
 3.58 2.50 -2.731 -2.721 -2.704 -2.672 -2.628 10.68815 14.77931 -8.88439
 3.58 2.75 -2.567 -2.558 -2.542 -2.514 -2.475 10.87140 15.02946 -8.63426
 3.58 3.00 -2.407 -2.398 -2.384 -2.358 -2.323 11.04727 15.27967 -8.38405
 3.58 3.20 -2.281 -2.274 -2.261 -2.237 -2.204 11.18243 15.47984 -8.18385
 3.58 3.40 -2.157 -2.150 -2.139 -2.118 -2.089 11.31475 15.68005 -7.98356
 3.58 3.60 -2.034 -2.028 -2.018 -1.999 -1.973 11.44371 15.88040 -7.78317
 3.58 3.80 -1.912 -1.907 -1.898 -1.882 -1.859 11.57143 16.08112 -7.58250
 3.58 4.00 -1.792 -1.787 -1.780 -1.765 -1.745 11.69914 16.28217 -7.38153
 3.58 4.20 -1.671 -1.667 -1.661 -1.649 -1.631 11.82705 16.48380 -7.17992
 3.58 4.40 -1.552 -1.547 -1.543 -1.532 -1.516 11.95529 16.68631 -6.97741
 3.58 4.60 -1.433 -1.429 -1.425 -1.416 -1.402 12.08522 16.89000 -6.77370
 3.58 4.80 -1.315 -1.312 -1.309 -1.300 -1.288 12.21901 17.09578 -6.56790
 3.58 5.00 -1.198 -1.197 -1.193 -1.186 -1.175 12.35603 17.30363 -6.36002
 3.58 5.20 -1.084 -1.083 -1.080 -1.074 -1.064 12.49848 17.51514 -6.14850
 3.58 5.40 -0.975 -0.974 -0.971 -0.966 -0.957 12.64480 17.72949 -5.93417
 3.58 5.60 -0.873 -0.871 -0.869 -0.864 -0.856 12.79650 17.94783 -5.71581
 3.58 5.80 -0.777 -0.776 -0.774 -0.769 -0.762 12.95066 18.16822 -5.49542
 3.58 6.00 -0.689 -0.688 -0.686 -0.682 -0.675 13.10483 18.38881 -5.27482
 3.58 6.25 -0.592 -0.591 -0.589 -0.585 -0.578 13.29642 18.66469 -4.99895
 3.58 6.50 -0.507 -0.506 -0.503 -0.499 -0.493 13.48629 18.94057 -4.72308
 3.58 6.75 -0.434 -0.433 -0.431 -0.427 -0.421 13.66724 19.21197 -4.45171
 3.58 7.00 -0.371 -0.370 -0.368 -0.364 -0.358 13.84099 19.48015 -4.18356
 3.58 7.25 -0.316 -0.315 -0.313 -0.309 -0.303 14.00624 19.74455 -3.91911
 3.58 7.50 -0.268 -0.267 -0.265 -0.261 -0.255 14.16435 20.00604 -3.65758
 3.58 7.75 -0.225 -0.224 -0.221 -0.217 -0.211 14.31620 20.26518 -3.39842
 3.58 8.00 -0.184 -0.183 -0.181 -0.177 -0.170 14.46150 20.52179 -3.14182
 3.60-2.00 -3.574 -3.572 -3.570 -3.566 -3.561  7.03503 10.25888-13.40473
 3.60-1.50 -3.725 -3.723 -3.721 -3.716 -3.710  7.34301 10.75899-12.90483
 3.60-1.00 -3.847 -3.845 -3.842 -3.836 -3.829  7.67825 11.25912-12.40461
 3.60-0.50 -3.926 -3.923 -3.919 -3.912 -3.901  8.05461 11.75906-11.90448
 3.60 0.00 -3.941 -3.937 -3.931 -3.920 -3.905  8.47914 12.25912-11.40461
 3.60 0.50 -3.864 -3.859 -3.850 -3.834 -3.812  8.94201 12.75906-10.90448
 3.60 1.00 -3.676 -3.669 -3.655 -3.633 -3.602  9.42177 13.25912-10.40461
 3.60 1.25 -3.540 -3.531 -3.517 -3.491 -3.456  9.66059 13.50913-10.15455
 3.60 1.50 -3.381 -3.372 -3.356 -3.328 -3.289  9.89785 13.75914 -9.90448
 3.60 1.75 -3.209 -3.199 -3.182 -3.152 -3.111 10.12888 14.00913 -9.65449
 3.60 2.00 -3.025 -3.015 -2.997 -2.966 -2.925 10.35392 14.25912 -9.40450
 3.60 2.25 -2.841 -2.831 -2.813 -2.782 -2.741 10.57089 14.50920 -9.15450
 3.60 2.50 -2.654 -2.645 -2.628 -2.598 -2.558 10.77996 14.75929 -8.90448
 3.60 2.75 -2.472 -2.464 -2.448 -2.421 -2.383 10.98046 15.00932 -8.65441
 3.60 3.00 -2.295 -2.287 -2.272 -2.247 -2.211 11.17260 15.25936 -8.40428
 3.60 3.20 -2.157 -2.149 -2.136 -2.113 -2.081 11.31981 15.45946 -8.20413
 3.60 3.40 -2.022 -2.015 -2.003 -1.982 -1.952 11.46228 15.65963 -8.00391
 3.60 3.60 -1.891 -1.885 -1.874 -1.854 -1.827 11.59970 15.85987 -7.80366
 3.60 3.80 -1.762 -1.757 -1.748 -1.731 -1.706 11.73344 16.06025 -7.60331
 3.60 4.00 -1.637 -1.632 -1.624 -1.609 -1.587 11.86427 16.26079 -7.40285
 3.60 4.20 -1.513 -1.509 -1.502 -1.489 -1.469 11.99176 16.46166 -7.20196
 3.60 4.40 -1.392 -1.387 -1.382 -1.371 -1.353 12.11924 16.66302 -7.00054
 3.60 4.60 -1.272 -1.268 -1.264 -1.254 -1.238 12.24680 16.86504 -6.79849
 3.60 4.80 -1.154 -1.151 -1.147 -1.138 -1.124 12.37475 17.06835 -6.59525
 3.60 5.00 -1.037 -1.035 -1.031 -1.024 -1.012 12.50311 17.27300 -6.39073
 3.60 5.20 -0.923 -0.921 -0.918 -0.911 -0.901 12.63534 17.48013 -6.18362
 3.60 5.40 -0.812 -0.811 -0.808 -0.802 -0.792 12.77083 17.68984 -5.97390
 3.60 5.60 -0.706 -0.705 -0.702 -0.697 -0.688 12.91082 17.90310 -5.76065
 3.60 5.80 -0.606 -0.605 -0.602 -0.597 -0.589 13.05523 18.11966 -5.54412
 3.60 6.00 -0.511 -0.510 -0.507 -0.503 -0.495 13.20276 18.33846 -5.32532
 3.60 6.25 -0.404 -0.403 -0.401 -0.396 -0.389 13.39201 18.61525 -5.04846
 3.60 6.50 -0.308 -0.307 -0.305 -0.301 -0.294 13.58127 18.89204 -4.77160
 3.60 6.75 -0.225 -0.224 -0.222 -0.217 -0.211 13.76663 19.16677 -4.49686
 3.60 7.00 -0.152 -0.151 -0.149 -0.145 -0.139 13.94773 19.43933 -4.22432
 3.60 7.25 -0.090 -0.089 -0.087 -0.082 -0.076 14.12010 19.70768 -3.95604
 3.60 7.50 -0.036 -0.035 -0.032 -0.028 -0.022 14.28511 19.97276 -3.69101
 3.60 7.75  0.010  0.011  0.013  0.018  0.024 14.44260 20.23486 -3.42889
 3.60 8.00  0.051  0.053  0.055  0.060  0.066 14.59262 20.49388 -3.16980
 3.62-2.00 -3.269 -3.267 -3.265 -3.261 -3.254  7.35813 10.23855-13.42516
 3.62-1.50 -3.448 -3.446 -3.444 -3.439 -3.432  7.63969 10.73878-12.92482
 3.62-1.00 -3.609 -3.607 -3.603 -3.597 -3.589  7.93349 11.23880-12.42481
 3.62-0.50 -3.737 -3.735 -3.731 -3.724 -3.714  8.24822 11.73894-11.92482
 3.62 0.00 -3.814 -3.811 -3.805 -3.797 -3.783  8.59759 12.23905-11.42470
 3.62 0.50 -3.802 -3.798 -3.792 -3.779 -3.762  8.99405 12.73902-10.92482
 3.62 1.00 -3.667 -3.662 -3.651 -3.634 -3.611  9.43712 13.23905-10.42458
 3.62 1.25 -3.547 -3.541 -3.530 -3.510 -3.483  9.67154 13.48903-10.17470
 3.62 1.50 -3.397 -3.390 -3.377 -3.355 -3.326  9.90725 13.73902 -9.92482
 3.62 1.75 -3.223 -3.215 -3.201 -3.178 -3.144 10.14373 13.98903 -9.67470
 3.62 2.00 -3.031 -3.023 -3.008 -2.983 -2.948 10.38021 14.23905 -9.42458
 3.62 2.25 -2.831 -2.823 -2.808 -2.782 -2.746 10.61043 14.48907 -9.17450
 3.62 2.50 -2.627 -2.618 -2.603 -2.577 -2.542 10.83506 14.73910 -8.92445
 3.62 2.75 -2.427 -2.419 -2.404 -2.378 -2.344 11.05172 14.98920 -8.67446
 3.62 3.00 -2.230 -2.222 -2.208 -2.184 -2.150 11.26055 15.23930 -8.42446
 3.62 3.20 -2.077 -2.070 -2.057 -2.034 -2.003 11.42132 15.43938 -8.22433
 3.62 3.40 -1.929 -1.922 -1.910 -1.888 -1.858 11.57669 15.63946 -8.02417
 3.62 3.60 -1.785 -1.778 -1.767 -1.748 -1.720 11.72631 15.83956 -7.82401
 3.62 3.80 -1.645 -1.639 -1.629 -1.611 -1.586 11.87068 16.03976 -7.62384
 3.62 4.00 -1.509 -1.504 -1.495 -1.479 -1.455 12.01030 16.24005 -7.42366
 3.62 4.20 -1.378 -1.373 -1.366 -1.351 -1.329 12.14501 16.44051 -7.22319
 3.62 4.40 -1.250 -1.245 -1.239 -1.227 -1.208 12.27692 16.64124 -7.02241
 3.62 4.60 -1.125 -1.121 -1.116 -1.105 -1.088 12.40552 16.84235 -6.82128
 3.62 4.80 -1.003 -1.000 -0.995 -0.985 -0.970 12.53291 17.04426 -6.61943
 3.62 5.00 -0.883 -0.881 -0.877 -0.868 -0.855 12.66030 17.24699 -6.41680
 3.62 5.20 -0.767 -0.765 -0.761 -0.753 -0.741 12.78810 17.45118 -6.21260
 3.62 5.40 -0.653 -0.651 -0.648 -0.641 -0.631 12.91654 17.65723 -6.00651
 3.62 5.60 -0.544 -0.542 -0.539 -0.533 -0.524 13.04710 17.86587 -5.79782
 3.62 5.80 -0.440 -0.439 -0.436 -0.430 -0.422 13.18171 18.07785 -5.58583
 3.62 6.00 -0.342 -0.340 -0.338 -0.333 -0.325 13.31952 18.29270 -5.37100
 3.62 6.25 -0.229 -0.227 -0.225 -0.220 -0.213 13.49905 18.56695 -5.09679
 3.62 6.50 -0.126 -0.125 -0.122 -0.118 -0.111 13.68097 18.84242 -4.82131
 3.62 6.75 -0.035 -0.033 -0.031 -0.027 -0.020 13.86471 19.11870 -4.54498
 3.62 7.00  0.045  0.047  0.049  0.053  0.060 14.04844 19.39498 -4.26865
 3.62 7.25  0.116  0.117  0.119  0.124  0.131 14.22566 19.66715 -3.99649
 3.62 7.50  0.177  0.178  0.180  0.185  0.192 14.39707 19.93621 -3.72746
 3.62 7.75  0.229  0.230  0.232  0.237  0.244 14.56006 20.20164 -3.46203
 3.62 8.00  0.273  0.274  0.277  0.282  0.289 14.71550 20.46359 -3.20004
 3.64-2.00 -2.941 -2.939 -2.936 -2.932 -2.925  7.69522 10.21801-13.44575
 3.64-1.50 -3.141 -3.139 -3.136 -3.131 -3.123  7.96332 10.71842-12.94539
 3.64-1.00 -3.325 -3.322 -3.318 -3.312 -3.303  8.23754 11.21880-12.44491
 3.64-0.50 -3.485 -3.482 -3.478 -3.471 -3.460  8.52088 11.71883-11.94500
 3.64 0.00 -3.603 -3.600 -3.595 -3.587 -3.574  8.82073 12.21906-11.44466
 3.64 0.50 -3.650 -3.647 -3.640 -3.629 -3.613  9.14860 12.71900-10.94462
 3.64 1.00 -3.585 -3.580 -3.572 -3.557 -3.537  9.51878 13.21906-10.44454
 3.64 1.25 -3.499 -3.494 -3.485 -3.468 -3.445  9.72342 13.46908-10.19458
 3.64 1.50 -3.378 -3.372 -3.362 -3.344 -3.318  9.93867 13.71908 -9.94462
 3.64 1.75 -3.224 -3.217 -3.206 -3.187 -3.158 10.16513 13.96907 -9.69458
 3.64 2.00 -3.045 -3.037 -3.025 -3.004 -2.975 10.39550 14.21906 -9.44454
 3.64 2.25 -2.845 -2.838 -2.825 -2.803 -2.773 10.62888 14.46906 -9.19458
 3.64 2.50 -2.636 -2.628 -2.615 -2.593 -2.561 10.86225 14.71908 -8.94462
 3.64 2.75 -2.422 -2.415 -2.402 -2.379 -2.348 11.09071 14.96920 -8.69452
 3.64 3.00 -2.209 -2.202 -2.189 -2.166 -2.136 11.31429 15.21932 -8.44442
 3.64 3.20 -2.044 -2.037 -2.024 -2.001 -1.972 11.48720 15.41933 -8.24435
 3.64 3.40 -1.880 -1.874 -1.862 -1.841 -1.812 11.65511 15.61933 -8.04428
 3.64 3.60 -1.722 -1.715 -1.704 -1.684 -1.656 11.81774 15.81940 -7.84420
 3.64 3.80 -1.569 -1.563 -1.552 -1.533 -1.507 11.97479 16.01960 -7.64408
 3.64 4.00 -1.420 -1.414 -1.405 -1.387 -1.363 12.12646 16.21985 -7.44394
 3.64 4.20 -1.276 -1.271 -1.263 -1.247 -1.224 12.27216 16.42011 -7.24371
 3.64 4.40 -1.137 -1.132 -1.125 -1.111 -1.090 12.41323 16.62045 -7.04333
 3.64 4.60 -1.003 -0.999 -0.993 -0.980 -0.961 12.54933 16.82098 -6.84274
 3.64 4.80 -0.874 -0.870 -0.865 -0.854 -0.837 12.68202 17.02200 -6.64166
 3.64 5.00 -0.747 -0.745 -0.740 -0.730 -0.715 12.81211 17.22350 -6.44009
 3.64 5.20 -0.625 -0.623 -0.619 -0.610 -0.597 12.93940 17.42595 -6.23769
 3.64 5.40 -0.507 -0.505 -0.501 -0.494 -0.482 13.06669 17.62966 -6.03408
 3.64 5.60 -0.393 -0.391 -0.388 -0.381 -0.371 13.19430 17.83504 -5.82874
 3.64 5.80 -0.284 -0.283 -0.280 -0.274 -0.264 13.32309 18.04305 -5.62067
 3.64 6.00 -0.181 -0.180 -0.177 -0.171 -0.162 13.45301 18.25358 -5.41005
 3.64 6.25 -0.062 -0.060 -0.058 -0.052 -0.044 13.62119 18.52242 -5.14126
 3.64 6.50  0.046  0.047  0.050  0.055  0.063 13.79358 18.79505 -4.86870
 3.64 6.75  0.143  0.145  0.147  0.152  0.160 13.97186 19.07187 -4.59188
 3.64 7.00  0.230  0.231  0.234  0.239  0.247 14.15014 19.34869 -4.31507
 3.64 7.25  0.306  0.307  0.310  0.315  0.323 14.32720 19.62367 -4.04005
 3.64 7.50  0.373  0.374  0.377  0.382  0.390 14.50243 19.89664 -3.76700
 3.64 7.75  0.430  0.431  0.434  0.439  0.447 14.66936 20.16553 -3.49810
 3.64 8.00  0.479  0.480  0.483  0.488  0.497 14.83014 20.43104 -3.23262
 3.66-2.00 -2.604 -2.602 -2.599 -2.594 -2.586  8.03423 10.19618-13.46750
 3.66-1.50 -2.818 -2.816 -2.812 -2.806 -2.797  8.29491 10.69740-12.96618
 3.66-1.00 -3.019 -3.016 -3.012 -3.005 -2.996  8.55907 11.19811-12.46547
 3.66-0.50 -3.200 -3.197 -3.192 -3.184 -3.172  8.82776 11.69853-11.96497
 3.66 0.00 -3.345 -3.342 -3.336 -3.327 -3.313  9.10380 12.19893-11.46483
 3.66 0.50 -3.428 -3.425 -3.418 -3.406 -3.390  9.39235 12.69888-10.96497
 3.66 1.00 -3.412 -3.407 -3.400 -3.385 -3.366  9.70364 13.19893-10.46471
 3.66 1.25 -3.357 -3.352 -3.344 -3.329 -3.308  9.87220 13.44899-10.21462
 3.66 1.50 -3.271 -3.265 -3.256 -3.240 -3.217 10.05115 13.69906 -9.96457
 3.66 1.75 -3.153 -3.147 -3.137 -3.119 -3.094 10.24357 13.94913 -9.71458
 3.66 2.00 -3.006 -3.000 -2.989 -2.970 -2.944 10.44747 14.19921 -9.46458
 3.66 2.25 -2.833 -2.826 -2.815 -2.794 -2.767 10.66412 14.44913 -9.21457
 3.66 2.50 -2.640 -2.633 -2.621 -2.601 -2.572 10.88717 14.69906 -8.96457
 3.66 2.75 -2.432 -2.425 -2.412 -2.391 -2.363 11.11607 14.94913 -8.71457
 3.66 3.00 -2.216 -2.209 -2.197 -2.176 -2.147 11.34498 15.19921 -8.46458
 3.66 3.20 -2.042 -2.035 -2.023 -2.002 -1.974 11.52557 15.39918 -8.26458
 3.66 3.40 -1.869 -1.862 -1.851 -1.830 -1.802 11.70362 15.59916 -8.06457
 3.66 3.60 -1.700 -1.693 -1.682 -1.661 -1.633 11.87790 15.79919 -7.86450
 3.66 3.80 -1.533 -1.527 -1.516 -1.497 -1.470 12.04668 15.99931 -7.66436
 3.66 4.00 -1.370 -1.364 -1.354 -1.336 -1.310 12.21059 16.19948 -7.46420
 3.66 4.20 -1.213 -1.207 -1.199 -1.182 -1.158 12.36872 16.39965 -7.26404
 3.66 4.40 -1.061 -1.056 -1.049 -1.033 -1.010 12.52153 16.59988 -7.06387
 3.66 4.60 -0.915 -0.909 -0.903 -0.889 -0.868 12.66863 16.80021 -6.86356
 3.66 4.80 -0.773 -0.770 -0.763 -0.751 -0.732 12.81068 17.00080 -6.66290
 3.66 5.00 -0.637 -0.634 -0.628 -0.617 -0.600 12.94827 17.20167 -6.46193
 3.66 5.20 -0.507 -0.504 -0.500 -0.490 -0.474 13.08117 17.40310 -6.26052
 3.66 5.40 -0.381 -0.379 -0.375 -0.366 -0.352 13.21190 17.60532 -6.05838
 3.66 5.60 -0.260 -0.258 -0.255 -0.247 -0.235 13.34022 17.80856 -5.85517
 3.66 5.80 -0.145 -0.144 -0.141 -0.134 -0.122 13.46775 18.01366 -5.65003
 3.66 6.00 -0.036 -0.034 -0.031 -0.025 -0.014 13.59528 18.22063 -5.44297
 3.66 6.25  0.091  0.092  0.095  0.101  0.111 13.75681 18.48407 -5.17965
 3.66 6.50  0.207  0.209  0.211  0.217  0.227 13.92065 18.75197 -4.91186
 3.66 6.75  0.312  0.313  0.316  0.322  0.331 14.08988 19.02621 -4.63754
 3.66 7.00  0.404  0.406  0.408  0.414  0.423 14.26126 19.30168 -4.36201
 3.66 7.25  0.485  0.486  0.489  0.495  0.504 14.43457 19.57796 -4.08570
 3.66 7.50  0.556  0.557  0.560  0.566  0.575 14.60788 19.85425 -3.80939
 3.66 7.75  0.617  0.618  0.621  0.627  0.636 14.77574 20.12635 -3.53726
 3.66 8.00  0.670  0.671  0.674  0.680  0.689 14.93997 20.39568 -3.26793
 3.68-2.00 -2.266 -2.264 -2.261 -2.256 -2.247  8.36342 10.17260-13.49120
 3.68-1.50 -2.490 -2.488 -2.484 -2.478 -2.467  8.62128 10.67532-12.98843
 3.68-1.00 -2.702 -2.699 -2.695 -2.688 -2.677  8.88036 11.17696-12.48665
 3.68-0.50 -2.898 -2.895 -2.890 -2.881 -2.869  9.14176 11.67788-11.98590
 3.68 0.00 -3.063 -3.059 -3.053 -3.043 -3.028  9.40654 12.17840-11.48519
 3.68 0.50 -3.168 -3.164 -3.157 -3.145 -3.128  9.67715 12.67870-10.98506
 3.68 1.00 -3.182 -3.177 -3.169 -3.155 -3.134  9.95794 13.17898-10.48479
 3.68 1.25 -3.147 -3.141 -3.132 -3.117 -3.095 10.10458 13.42898-10.23470
 3.68 1.50 -3.082 -3.077 -3.068 -3.051 -3.028 10.25696 13.67897 -9.98464
 3.68 1.75 -2.992 -2.986 -2.975 -2.958 -2.934 10.41738 13.92897 -9.73465
 3.68 2.00 -2.877 -2.870 -2.860 -2.842 -2.816 10.58692 14.17898 -9.48466
 3.68 2.25 -2.738 -2.731 -2.721 -2.701 -2.675 10.76842 14.42901 -9.23465
 3.68 2.50 -2.579 -2.573 -2.561 -2.542 -2.515 10.96128 14.67906 -8.98464
 3.68 2.75 -2.401 -2.394 -2.382 -2.362 -2.334 11.16768 14.92916 -8.73458
 3.68 3.00 -2.208 -2.200 -2.188 -2.167 -2.139 11.38220 15.17927 -8.48452
 3.68 3.20 -2.042 -2.035 -2.023 -2.002 -1.974 11.56052 15.37922 -8.28457
 3.68 3.40 -1.872 -1.865 -1.854 -1.833 -1.804 11.73885 15.57918 -8.08462
 3.68 3.60 -1.700 -1.693 -1.681 -1.660 -1.633 11.91670 15.77916 -7.88459
 3.68 3.80 -1.526 -1.520 -1.509 -1.488 -1.461 12.09278 15.97919 -7.68449
 3.68 4.00 -1.355 -1.349 -1.338 -1.319 -1.292 12.26717 16.17926 -7.48439
 3.68 4.20 -1.186 -1.180 -1.171 -1.153 -1.128 12.43590 16.37936 -7.28432
 3.68 4.40 -1.021 -1.015 -1.007 -0.991 -0.967 12.59996 16.57951 -7.08426
 3.68 4.60 -0.862 -0.856 -0.849 -0.834 -0.811 12.75887 16.77974 -6.88407
 3.68 4.80 -0.708 -0.704 -0.697 -0.683 -0.662 12.91221 16.98013 -6.68361
 3.68 5.00 -0.559 -0.556 -0.550 -0.537 -0.518 13.06032 17.18070 -6.48294
 3.68 5.20 -0.417 -0.414 -0.409 -0.398 -0.381 13.20251 17.38155 -6.28209
 3.68 5.40 -0.280 -0.278 -0.273 -0.263 -0.248 13.34058 17.58285 -6.08083
 3.68 5.60 -0.150 -0.148 -0.144 -0.135 -0.121 13.47413 17.78480 -5.87894
 3.68 5.80 -0.028 -0.026 -0.023 -0.015 -0.002 13.60508 17.98803 -5.67573
 3.68 6.00  0.089  0.090  0.094  0.101  0.113 13.73448 18.19257 -5.47121
 3.68 6.25  0.225  0.227  0.230  0.237  0.248 13.89455 18.45159 -5.21221
 3.68 6.50  0.351  0.353  0.356  0.363  0.373 14.05461 18.71458 -4.94923
 3.68 6.75  0.465  0.467  0.470  0.476  0.487 14.21742 18.98383 -4.67995
 3.68 7.00  0.566  0.568  0.571  0.577  0.587 14.38220 19.25672 -4.40705
 3.68 7.25  0.653  0.655  0.658  0.664  0.674 14.55014 19.53348 -4.13030
 3.68 7.50  0.729  0.730  0.733  0.740  0.750 14.71809 19.81023 -3.85356
 3.68 7.75  0.793  0.794  0.798  0.804  0.814 14.88381 20.08481 -3.57895
 3.68 8.00  0.848  0.850  0.853  0.860  0.870 15.04805 20.35793 -3.30575
 3.70-2.00 -1.933 -1.931 -1.928 -1.922 -1.913  8.67870 10.14457-13.51913
 3.70-1.50 -2.162 -2.160 -2.157 -2.150 -2.140  8.93787 10.65079-13.01287
 3.70-1.00 -2.383 -2.381 -2.376 -2.368 -2.356  9.19562 11.15442-12.50934
 3.70-0.50 -2.588 -2.585 -2.580 -2.571 -2.558  9.45347 11.65639-12.00727
 3.70 0.00 -2.767 -2.763 -2.757 -2.746 -2.730  9.71299 12.15746-11.50612
 3.70 0.50 -2.891 -2.886 -2.879 -2.866 -2.848  9.97506 12.65820-11.00546
 3.70 1.00 -2.925 -2.920 -2.911 -2.895 -2.874 10.24180 13.15866-10.50501
 3.70 1.25 -2.900 -2.895 -2.886 -2.869 -2.846 10.37790 13.40872-10.25495
 3.70 1.50 -2.850 -2.844 -2.834 -2.817 -2.793 10.51667 13.65878-10.00489
 3.70 1.75 -2.774 -2.768 -2.758 -2.740 -2.714 10.65933 13.90887 -9.75481
 3.70 2.00 -2.678 -2.671 -2.660 -2.642 -2.616 10.80679 14.15897 -9.50473
 3.70 2.25 -2.563 -2.557 -2.545 -2.526 -2.499 10.96091 14.40897 -9.25473
 3.70 2.50 -2.433 -2.426 -2.414 -2.394 -2.367 11.12287 14.65897 -9.00472
 3.70 2.75 -2.287 -2.280 -2.268 -2.247 -2.219 11.29540 14.90897 -8.75466
 3.70 3.00 -2.127 -2.120 -2.108 -2.087 -2.058 11.47857 15.15897 -8.50459
 3.70 3.20 -1.987 -1.980 -1.968 -1.947 -1.919 11.63489 15.35899 -8.30461
 3.70 3.40 -1.838 -1.831 -1.819 -1.798 -1.770 11.79701 15.55903 -8.10462
 3.70 3.60 -1.682 -1.675 -1.663 -1.642 -1.614 11.96655 15.75910 -7.90459
 3.70 3.80 -1.517 -1.510 -1.499 -1.479 -1.451 12.13915 15.95918 -7.70453
 3.70 4.00 -1.349 -1.343 -1.332 -1.312 -1.285 12.31176 16.15927 -7.50446
 3.70 4.20 -1.179 -1.172 -1.162 -1.143 -1.117 12.48396 16.35930 -7.30440
 3.70 4.40 -1.008 -1.002 -0.993 -0.975 -0.950 12.65553 16.55933 -7.10435
 3.70 4.60 -0.840 -0.834 -0.826 -0.809 -0.785 12.82434 16.75945 -6.90424
 3.70 4.80 -0.675 -0.670 -0.662 -0.647 -0.625 12.98759 16.95975 -6.70399
 3.70 5.00 -0.513 -0.510 -0.503 -0.489 -0.468 13.14644 17.16017 -6.50362
 3.70 5.20 -0.359 -0.356 -0.350 -0.338 -0.319 13.29941 17.36066 -6.30311
 3.70 5.40 -0.210 -0.208 -0.203 -0.192 -0.175 13.44742 17.56138 -6.10232
 3.70 5.60 -0.069 -0.067 -0.062 -0.053 -0.037 13.59004 17.76248 -5.90116
 3.70 5.80  0.063  0.065  0.070  0.079  0.093 13.72826 17.96446 -5.69918
 3.70 6.00  0.191  0.193  0.197  0.205  0.219 13.86285 18.16732 -5.49635
 3.70 6.25  0.337  0.339  0.343  0.351  0.364 14.02602 18.42323 -5.24037
 3.70 6.50  0.474  0.476  0.480  0.487  0.500 14.18780 18.68224 -4.98130
 3.70 6.75  0.599  0.601  0.604  0.612  0.624 14.34864 18.94645 -4.71715
 3.70 7.00  0.711  0.713  0.716  0.723  0.735 14.50947 19.21511 -4.44855
 3.70 7.25  0.808  0.809  0.812  0.820  0.831 14.67245 19.49002 -4.17356
 3.70 7.50  0.890  0.892  0.895  0.902  0.914 14.83544 19.76567 -3.89791
 3.70 7.75  0.959  0.960  0.964  0.971  0.983 14.99762 20.04156 -3.62205
 3.70 8.00  1.017  1.019  1.022  1.030  1.041 15.15927 20.31785 -3.34582
 3.73-2.00 -1.451 -1.449 -1.446 -1.440 -1.430  9.10687 10.08600-13.57774
 3.73-1.50 -1.682 -1.680 -1.676 -1.670 -1.659  9.37876 10.60412-13.05958
 3.73-1.00 -1.907 -1.905 -1.901 -1.893 -1.881  9.64207 11.11494-12.54883
 3.73-0.50 -2.121 -2.118 -2.113 -2.104 -2.090  9.90108 11.62097-12.04273
 3.73 0.00 -2.312 -2.308 -2.301 -2.290 -2.274 10.15836 12.12451-11.53910
 3.73 0.50 -2.454 -2.450 -2.442 -2.429 -2.410 10.41564 12.62644-11.03720
 3.73 1.00 -2.514 -2.508 -2.499 -2.483 -2.461 10.67404 13.12775-10.53596
 3.73 1.25 -2.504 -2.498 -2.488 -2.471 -2.446 10.80400 13.37804-10.28564
 3.73 1.50 -2.466 -2.460 -2.450 -2.432 -2.405 10.93475 13.62829-10.03541
 3.73 1.75 -2.405 -2.399 -2.388 -2.369 -2.341 11.06676 13.87852 -9.78522
 3.73 2.00 -2.325 -2.318 -2.307 -2.286 -2.259 11.20030 14.12872 -9.53506
 3.73 2.25 -2.228 -2.221 -2.209 -2.189 -2.161 11.33595 14.37882 -9.28496
 3.73 2.50 -2.120 -2.113 -2.101 -2.080 -2.052 11.47436 14.62890 -9.03485
 3.73 2.75 -2.001 -1.994 -1.982 -1.961 -1.931 11.61689 14.87898 -8.78473
 3.73 3.00 -1.874 -1.867 -1.854 -1.833 -1.804 11.76440 15.12905 -8.53462
 3.73 3.20 -1.765 -1.758 -1.746 -1.724 -1.695 11.88728 15.32903 -8.33463
 3.73 3.40 -1.651 -1.644 -1.632 -1.609 -1.580 12.01517 15.52901 -8.13465
 3.73 3.60 -1.529 -1.522 -1.510 -1.489 -1.459 12.14881 15.72900 -7.93462
 3.73 3.80 -1.401 -1.394 -1.382 -1.360 -1.331 12.28913 15.92902 -7.73454
 3.73 4.00 -1.266 -1.259 -1.247 -1.226 -1.197 12.43569 16.12905 -7.53447
 3.73 4.20 -1.120 -1.114 -1.103 -1.082 -1.054 12.59053 16.32909 -7.33447
 3.73 4.40 -0.969 -0.962 -0.952 -0.932 -0.904 12.74939 16.52916 -7.13447
 3.73 4.60 -0.811 -0.804 -0.795 -0.777 -0.750 12.91292 16.72928 -6.93444
 3.73 4.80 -0.648 -0.643 -0.634 -0.616 -0.591 13.07810 16.92946 -6.73434
 3.73 5.00 -0.482 -0.478 -0.470 -0.454 -0.431 13.24329 17.12969 -6.53417
 3.73 5.20 -0.318 -0.315 -0.307 -0.293 -0.271 13.40598 17.32993 -6.33392
 3.73 5.40 -0.156 -0.153 -0.147 -0.134 -0.114 13.56622 17.53024 -6.13351
 3.73 5.60  0.001  0.004  0.008  0.019  0.038 13.72278 17.73075 -5.93291
 3.73 5.80  0.150  0.152  0.157  0.167  0.184 13.87419 17.93175 -5.73191
 3.73 6.00  0.294  0.296  0.300  0.310  0.326 14.02119 18.13322 -5.53047
 3.73 6.25  0.460  0.462  0.466  0.475  0.491 14.19751 18.38624 -5.27742
 3.73 6.50  0.616  0.618  0.622  0.631  0.646 14.36810 18.64108 -5.02255
 3.73 6.75  0.759  0.760  0.764  0.773  0.787 14.53337 18.89945 -4.76425
 3.73 7.00  0.889  0.891  0.895  0.903  0.917 14.69601 19.16167 -4.50210
 3.73 7.25  1.004  1.005  1.009  1.018  1.031 14.85710 19.42974 -4.23389
 3.73 7.50  1.102  1.104  1.108  1.116  1.130 15.01662 19.70174 -3.96178
 3.73 7.75  1.184  1.185  1.189  1.198  1.211 15.17482 19.97673 -3.68680
 3.73 8.00  1.250  1.252  1.256  1.264  1.278 15.33163 20.25503 -3.40860
 3.76-2.00 -1.011 -1.009 -1.006 -1.000 -0.990  9.44994  9.98914-13.67448
 3.76-1.50 -1.227 -1.225 -1.222 -1.215 -1.204  9.75959 10.53148-13.13230
 3.76-1.00 -1.446 -1.444 -1.441 -1.433 -1.421 10.04415 11.05919-12.60450
 3.76-0.50 -1.658 -1.656 -1.651 -1.643 -1.630 10.31429 11.57600-12.08762
 3.76 0.00 -1.851 -1.848 -1.842 -1.832 -1.816 10.57680 12.08600-11.57774
 3.76 0.50 -2.002 -1.999 -1.991 -1.978 -1.960 10.83512 12.59162-11.07207
 3.76 1.00 -2.080 -2.075 -2.066 -2.051 -2.029 11.09202 13.09482-10.56880
 3.76 1.25 -2.082 -2.077 -2.067 -2.051 -2.026 11.22036 13.34587-10.31776
 3.76 1.50 -2.058 -2.052 -2.042 -2.024 -1.999 11.34869 13.59671-10.06697
 3.76 1.75 -2.010 -2.004 -1.994 -1.975 -1.948 11.47736 13.84742 -9.81637
 3.76 2.00 -1.942 -1.936 -1.925 -1.906 -1.878 11.60638 14.09795 -9.56591
 3.76 2.25 -1.858 -1.852 -1.841 -1.821 -1.793 11.73608 14.34818 -9.31560
 3.76 2.50 -1.763 -1.757 -1.745 -1.725 -1.695 11.86664 14.59835 -9.06535
 3.76 2.75 -1.659 -1.652 -1.641 -1.620 -1.590 11.99859 14.84850 -8.81513
 3.76 3.00 -1.547 -1.541 -1.529 -1.507 -1.478 12.13226 15.09864 -8.56495
 3.76 3.20 -1.453 -1.446 -1.434 -1.413 -1.384 12.24090 15.29875 -8.36489
 3.76 3.40 -1.356 -1.349 -1.337 -1.316 -1.286 12.35151 15.49885 -8.16483
 3.76 3.60 -1.255 -1.248 -1.236 -1.215 -1.185 12.46435 15.69892 -7.96476
 3.76 3.80 -1.150 -1.143 -1.131 -1.110 -1.079 12.58046 15.89895 -7.76470
 3.76 4.00 -1.040 -1.034 -1.022 -1.001 -0.971 12.69992 16.09899 -7.56463
 3.76 4.20 -0.925 -0.919 -0.907 -0.886 -0.857 12.82409 16.29903 -7.36462
 3.76 4.40 -0.804 -0.798 -0.787 -0.767 -0.737 12.95316 16.49909 -7.16460
 3.76 4.60 -0.677 -0.671 -0.662 -0.642 -0.613 13.08794 16.69915 -6.96455
 3.76 4.80 -0.543 -0.537 -0.528 -0.509 -0.482 13.22855 16.89923 -6.76444
 3.76 5.00 -0.403 -0.399 -0.390 -0.372 -0.345 13.37420 17.09933 -6.56432
 3.76 5.20 -0.255 -0.251 -0.243 -0.227 -0.203 13.52647 17.29947 -6.36419
 3.76 5.40 -0.102 -0.099 -0.092 -0.078 -0.055 13.68013 17.49966 -6.16403
 3.76 5.60  0.050  0.053  0.059  0.072  0.093 13.83514 17.69993 -5.96378
 3.76 5.80  0.203  0.206  0.211  0.223  0.243 13.99048 17.90039 -5.76329
 3.76 6.00  0.356  0.358  0.363  0.374  0.392 14.14582 18.10106 -5.56257
 3.76 6.25  0.535  0.537  0.542  0.552  0.570 14.33406 18.35265 -5.31099
 3.76 6.50  0.708  0.710  0.715  0.725  0.742 14.51733 18.60530 -5.05839
 3.76 6.75  0.869  0.871  0.876  0.886  0.903 14.69362 18.85986 -4.80381
 3.76 7.00  1.020  1.022  1.026  1.036  1.052 14.86451 19.11694 -4.54668
 3.76 7.25  1.154  1.156  1.160  1.170  1.186 15.03038 19.37859 -4.28503
 3.76 7.50  1.273  1.275  1.280  1.289  1.305 15.19229 19.64464 -4.01900
 3.76 7.75  1.373  1.375  1.380  1.389  1.405 15.35114 19.91576 -3.74786
 3.76 8.00  1.456  1.458  1.462  1.471  1.487 15.50664 20.19173 -3.47186
 3.79-2.00 -0.685 -0.684 -0.680 -0.673 -0.662  9.64856  9.86225-13.80134
 3.79-1.50 -0.834 -0.832 -0.829 -0.822 -0.810 10.03623 10.41880-13.24489
 3.79-1.00 -1.019 -1.017 -1.013 -1.006 -0.994 10.37383 10.97151-12.69208
 3.79-0.50 -1.213 -1.210 -1.206 -1.198 -1.186 10.67578 11.50987-12.15385
 3.79 0.00 -1.394 -1.392 -1.387 -1.378 -1.364 10.95583 12.03423-11.62930
 3.79 0.50 -1.542 -1.539 -1.533 -1.522 -1.504 11.22350 12.54913-11.11458
 3.79 1.00 -1.628 -1.624 -1.617 -1.603 -1.582 11.48444 13.05767-10.60590
 3.79 1.25 -1.640 -1.635 -1.627 -1.612 -1.589 11.61342 13.31048-10.35314
 3.79 1.50 -1.628 -1.623 -1.614 -1.598 -1.574 11.74194 13.56265-10.10106
 3.79 1.75 -1.594 -1.589 -1.579 -1.562 -1.537 11.87012 13.81433 -9.84946
 3.79 2.00 -1.540 -1.535 -1.525 -1.507 -1.481 11.99822 14.06558 -9.59826
 3.79 2.25 -1.470 -1.464 -1.454 -1.436 -1.409 12.12626 14.31642 -9.34738
 3.79 2.50 -1.387 -1.381 -1.371 -1.353 -1.326 12.25431 14.56703 -9.09669
 3.79 2.75 -1.294 -1.289 -1.279 -1.260 -1.232 12.38290 14.81745 -8.84612
 3.79 3.00 -1.195 -1.189 -1.179 -1.160 -1.132 12.51202 15.06781 -8.59568
 3.79 3.20 -1.111 -1.105 -1.095 -1.075 -1.047 12.61580 15.26808 -8.39546
 3.79 3.40 -1.024 -1.018 -1.007 -0.988 -0.959 12.72023 15.46832 -8.19530
 3.79 3.60 -0.934 -0.928 -0.917 -0.897 -0.868 12.82546 15.66855 -7.99518
 3.79 3.80 -0.841 -0.835 -0.824 -0.803 -0.774 12.93198 15.86876 -7.79508
 3.79 4.00 -0.746 -0.740 -0.728 -0.708 -0.679 13.03981 16.06893 -7.59500
 3.79 4.20 -0.646 -0.640 -0.629 -0.609 -0.580 13.14945 16.26892 -7.39491
 3.79 4.40 -0.544 -0.538 -0.528 -0.507 -0.478 13.26130 16.46891 -7.19483
 3.79 4.60 -0.437 -0.432 -0.422 -0.402 -0.372 13.37566 16.66890 -6.99477
 3.79 4.80 -0.325 -0.320 -0.311 -0.292 -0.263 13.49344 16.86891 -6.79471
 3.79 5.00 -0.210 -0.206 -0.197 -0.179 -0.152 13.61469 17.06893 -6.59465
 3.79 5.20 -0.088 -0.084 -0.076 -0.059 -0.033 13.74062 17.26907 -6.39457
 3.79 5.40  0.037  0.041  0.048  0.064  0.088 13.87087 17.46926 -6.19444
 3.79 5.60  0.169  0.172  0.178  0.192  0.215 14.00621 17.66948 -5.99427
 3.79 5.80  0.303  0.306  0.312  0.325  0.346 14.14570 17.86973 -5.79401
 3.79 6.00  0.442  0.445  0.450  0.461  0.481 14.28825 18.07004 -5.59363
 3.79 6.25  0.611  0.614  0.619  0.630  0.650 14.47088 18.32084 -5.34281
 3.79 6.50  0.784  0.786  0.791  0.802  0.821 14.65350 18.57217 -5.09146
 3.79 6.75  0.951  0.953  0.958  0.969  0.988 14.83428 18.82457 -4.83900
 3.79 7.00  1.113  1.116  1.121  1.131  1.150 15.01284 19.07846 -4.58503
 3.79 7.25  1.264  1.266  1.271  1.281  1.299 15.18584 19.33531 -4.32825
 3.79 7.50  1.403  1.405  1.410  1.420  1.438 15.35411 19.59561 -4.06808
 3.79 7.75  1.524  1.526  1.530  1.541  1.558 15.51729 19.86126 -3.80247
 3.79 8.00  1.627  1.629  1.633  1.644  1.661 15.67550 20.13162 -3.53210
 3.82-2.00 -0.549 -0.547 -0.543 -0.535 -0.523  9.69819  9.77539-13.88840
 3.82-1.50 -0.592 -0.590 -0.586 -0.578 -0.565 10.16227 10.30320-13.36051
 3.82-1.00 -0.682 -0.681 -0.677 -0.668 -0.656 10.58377 10.85217-12.81135
 3.82-0.50 -0.815 -0.813 -0.809 -0.801 -0.788 10.95187 11.40943-12.25430
 3.82 0.00 -0.960 -0.958 -0.954 -0.945 -0.932 11.27462 11.95737-11.70642
 3.82 0.50 -1.087 -1.084 -1.079 -1.070 -1.055 11.56714 12.49024-11.17347
 3.82 1.00 -1.167 -1.164 -1.158 -1.146 -1.127 11.84173 13.01072-10.65287
 3.82 1.25 -1.182 -1.179 -1.172 -1.159 -1.139 11.97503 13.26758-10.39608
 3.82 1.50 -1.179 -1.175 -1.168 -1.153 -1.132 12.10653 13.52284-10.14086
 3.82 1.75 -1.157 -1.153 -1.145 -1.129 -1.107 12.23654 13.77677 -9.88683
 3.82 2.00 -1.117 -1.113 -1.104 -1.088 -1.065 12.36567 14.02979 -9.63376
 3.82 2.25 -1.062 -1.057 -1.049 -1.032 -1.008 12.49416 14.28212 -9.38154
 3.82 2.50 -0.993 -0.989 -0.980 -0.964 -0.939 12.62232 14.53390 -9.12983
 3.82 2.75 -0.915 -0.910 -0.901 -0.884 -0.860 12.75019 14.78524 -8.87848
 3.82 3.00 -0.828 -0.823 -0.814 -0.797 -0.772 12.87806 15.03623 -8.62746
 3.82 3.20 -0.754 -0.749 -0.740 -0.722 -0.697 12.98043 15.23679 -8.42692
 3.82 3.40 -0.676 -0.671 -0.662 -0.644 -0.618 13.08290 15.43725 -8.22647
 3.82 3.60 -0.595 -0.590 -0.581 -0.563 -0.537 13.18560 15.63763 -8.02607
 3.82 3.80 -0.512 -0.507 -0.497 -0.479 -0.452 13.28875 15.83796 -7.82572
 3.82 4.00 -0.426 -0.421 -0.412 -0.393 -0.366 13.39235 16.03822 -7.62543
 3.82 4.20 -0.337 -0.332 -0.323 -0.304 -0.276 13.49656 16.23836 -7.42529
 3.82 4.40 -0.246 -0.241 -0.232 -0.213 -0.184 13.60162 16.43851 -7.22516
 3.82 4.60 -0.152 -0.147 -0.138 -0.118 -0.090 13.70768 16.63866 -7.02507
 3.82 4.80 -0.053 -0.049 -0.040 -0.021  0.005 13.81528 16.83884 -6.82498
 3.82 5.00  0.046  0.050  0.059  0.077  0.104 13.92443 17.03902 -6.62489
 3.82 5.20  0.151  0.155  0.163  0.180  0.206 14.03569 17.23904 -6.42478
 3.82 5.40  0.260  0.263  0.271  0.287  0.312 14.14936 17.43906 -6.22466
 3.82 5.60  0.372  0.375  0.382  0.397  0.420 14.26573 17.63911 -6.02452
 3.82 5.80  0.487  0.490  0.496  0.510  0.532 14.38539 17.83923 -5.82436
 3.82 6.00  0.607  0.609  0.615  0.627  0.648 14.50826 18.03941 -5.62415
 3.82 6.25  0.753  0.755  0.760  0.772  0.793 14.66747 18.28985 -5.37374
 3.82 6.50  0.904  0.906  0.912  0.923  0.944 14.83129 18.54058 -5.12309
 3.82 6.75  1.057  1.059  1.064  1.076  1.096 15.00059 18.79178 -4.87185
 3.82 7.00  1.211  1.214  1.219  1.231  1.251 15.17026 19.04375 -4.61979
 3.82 7.25  1.364  1.366  1.371  1.383  1.402 15.34014 19.29747 -4.36610
 3.82 7.50  1.511  1.513  1.518  1.529  1.548 15.51001 19.55340 -4.11025
 3.82 7.75  1.646  1.648  1.653  1.664  1.682 15.67501 19.81346 -3.85016
 3.82 8.00  1.767  1.769  1.774  1.785  1.803 15.83677 20.07701 -3.58653
 3.85-2.00 -0.520 -0.518 -0.514 -0.505 -0.491  9.68467  9.73119-13.93256
 3.85-1.50 -0.515 -0.512 -0.508 -0.498 -0.483 10.17696 10.23780-13.42585
 3.85-1.00 -0.517 -0.515 -0.510 -0.501 -0.485 10.65543 10.75580-12.90798
 3.85-0.50 -0.542 -0.540 -0.536 -0.527 -0.512 11.10209 11.29381-12.36988
 3.85 0.00 -0.599 -0.597 -0.592 -0.584 -0.571 11.49872 11.84917-11.81446
 3.85 0.50 -0.667 -0.665 -0.661 -0.652 -0.638 11.84386 12.40364-11.26003
 3.85 1.00 -0.716 -0.714 -0.709 -0.699 -0.683 12.15076 12.94458-10.71919
 3.85 1.25 -0.726 -0.723 -0.718 -0.707 -0.689 12.29436 13.20938-10.45438
 3.85 1.50 -0.722 -0.719 -0.714 -0.702 -0.683 12.43361 13.47115-10.19260
 3.85 1.75 -0.706 -0.703 -0.696 -0.683 -0.664 12.56946 13.73020 -9.93355
 3.85 2.00 -0.676 -0.673 -0.666 -0.652 -0.632 12.70286 13.98722 -9.67654
 3.85 2.25 -0.634 -0.630 -0.623 -0.609 -0.588 12.83429 14.24255 -9.42121
 3.85 2.50 -0.581 -0.577 -0.569 -0.555 -0.533 12.96445 14.49665 -9.16711
 3.85 2.75 -0.517 -0.513 -0.505 -0.490 -0.469 13.09365 14.74979 -8.91394
 3.85 3.00 -0.445 -0.440 -0.433 -0.418 -0.396 13.22220 15.00217 -8.66154
 3.85 3.20 -0.381 -0.378 -0.370 -0.355 -0.332 13.32455 15.20356 -8.46016
 3.85 3.40 -0.315 -0.311 -0.303 -0.287 -0.264 13.42686 15.40469 -8.25904
 3.85 3.60 -0.244 -0.240 -0.232 -0.216 -0.193 13.52911 15.60558 -8.05814
 3.85 3.80 -0.171 -0.167 -0.158 -0.142 -0.118 13.63136 15.80631 -7.85739
 3.85 4.00 -0.095 -0.090 -0.082 -0.065 -0.041 13.73360 16.00690 -7.65679
 3.85 4.20 -0.015 -0.011 -0.002  0.013  0.038 13.83606 16.20732 -7.45635
 3.85 4.40  0.065  0.070  0.078  0.095  0.121 13.93877 16.40769 -7.25599
 3.85 4.60  0.150  0.154  0.163  0.180  0.206 14.04180 16.60803 -7.05569
 3.85 4.80  0.237  0.241  0.250  0.267  0.293 14.14544 16.80834 -6.85542
 3.85 5.00  0.327  0.331  0.339  0.356  0.383 14.24969 17.00860 -6.65522
 3.85 5.20  0.421  0.425  0.433  0.449  0.475 14.35486 17.20868 -6.45509
 3.85 5.40  0.519  0.522  0.529  0.544  0.569 14.46113 17.40876 -6.25496
 3.85 5.60  0.618  0.621  0.627  0.642  0.665 14.56864 17.60884 -6.05481
 3.85 5.80  0.720  0.723  0.729  0.742  0.765 14.67784 17.80893 -5.85462
 3.85 6.00  0.825  0.827  0.833  0.845  0.867 14.78873 18.00903 -5.65443
 3.85 6.25  0.955  0.957  0.962  0.974  0.995 14.93037 18.25930 -5.40420
 3.85 6.50  1.087  1.089  1.094  1.106  1.126 15.07555 18.50974 -5.15397
 3.85 6.75  1.221  1.223  1.228  1.240  1.261 15.22519 18.76046 -4.90335
 3.85 7.00  1.359  1.361  1.366  1.378  1.398 15.37822 19.01157 -4.65228
 3.85 7.25  1.498  1.501  1.506  1.517  1.537 15.53520 19.26333 -4.40047
 3.85 7.50  1.638  1.640  1.645  1.656  1.677 15.69267 19.51614 -4.14752
 3.85 7.75  1.773  1.775  1.780  1.791  1.810 15.85029 19.77168 -3.89191
 3.85 8.00  1.901  1.903  1.908  1.919  1.937 16.00817 20.02938 -3.63414
 3.88-2.00 -0.520 -0.518 -0.514 -0.506 -0.493  9.65753  9.69845-13.96537
 3.88-1.50 -0.504 -0.502 -0.497 -0.487 -0.471 10.15594 10.19975-13.46382
 3.88-1.00 -0.479 -0.476 -0.471 -0.460 -0.442 10.65138 10.70398-12.95979
 3.88-0.50 -0.439 -0.437 -0.432 -0.421 -0.403 11.13767 11.21564-12.44794
 3.88 0.00 -0.392 -0.390 -0.385 -0.375 -0.360 11.60097 11.74414-11.91937
 3.88 0.50 -0.352 -0.350 -0.346 -0.337 -0.322 12.02119 12.29336-11.37029
 3.88 1.00 -0.323 -0.320 -0.316 -0.307 -0.292 12.38828 12.85065-10.81304
 3.88 1.25 -0.307 -0.305 -0.300 -0.291 -0.276 12.55374 13.12594-10.53778
 3.88 1.50 -0.288 -0.285 -0.281 -0.271 -0.255 12.71020 13.39829-10.26544
 3.88 1.75 -0.264 -0.261 -0.256 -0.246 -0.229 12.85894 13.66627 -9.99743
 3.88 2.00 -0.233 -0.231 -0.225 -0.214 -0.197 13.00217 13.93085 -9.73283
 3.88 2.25 -0.196 -0.194 -0.188 -0.177 -0.158 13.14102 14.19216 -9.47152
 3.88 2.50 -0.152 -0.150 -0.144 -0.132 -0.113 13.27669 14.45102 -9.21268
 3.88 2.75 -0.102 -0.099 -0.093 -0.080 -0.061 13.40983 14.70781 -8.95592
 3.88 3.00 -0.044 -0.041 -0.034 -0.021 -0.002 13.54121 14.96303 -8.70071
 3.88 3.20  0.006  0.009  0.016  0.029  0.049 13.64526 15.16626 -8.49748
 3.88 3.40  0.061  0.065  0.072  0.085  0.105 13.74876 15.36888 -8.29485
 3.88 3.60  0.120  0.124  0.131  0.144  0.165 13.85176 15.57095 -8.09277
 3.88 3.80  0.183  0.186  0.193  0.207  0.228 13.95447 15.77264 -7.89107
 3.88 4.00  0.248  0.252  0.259  0.273  0.295 14.05690 15.97396 -7.68973
 3.88 4.20  0.317  0.320  0.328  0.342  0.365 14.15901 16.17495 -7.48873
 3.88 4.40  0.388  0.392  0.399  0.414  0.437 14.26112 16.37576 -7.28790
 3.88 4.60  0.463  0.466  0.473  0.489  0.512 14.36331 16.57644 -7.08721
 3.88 4.80  0.540  0.543  0.551  0.566  0.590 14.46572 16.77703 -6.88661
 3.88 5.00  0.620  0.623  0.630  0.646  0.670 14.56832 16.97750 -6.68613
 3.88 5.20  0.703  0.707  0.714  0.729  0.752 14.67124 17.17777 -6.48583
 3.88 5.40  0.789  0.792  0.799  0.814  0.837 14.77458 17.37802 -6.28559
 3.88 5.60  0.878  0.881  0.887  0.902  0.925 14.87842 17.57825 -6.08541
 3.88 5.80  0.971  0.974  0.980  0.993  1.015 14.98306 17.77847 -5.88524
 3.88 6.00  1.066  1.068  1.073  1.085  1.106 15.08849 17.97868 -5.68508
 3.88 6.25  1.183  1.185  1.190  1.202  1.222 15.22188 18.22891 -5.43486
 3.88 6.50  1.303  1.305  1.310  1.321  1.341 15.35717 18.47915 -5.18462
 3.88 6.75  1.423  1.426  1.430  1.442  1.462 15.49485 18.72947 -4.93429
 3.88 7.00  1.547  1.550  1.555  1.566  1.586 15.63488 18.97991 -4.68382
 3.88 7.25  1.674  1.676  1.681  1.692  1.712 15.77773 19.23071 -4.43301
 3.88 7.50  1.802  1.804  1.809  1.820  1.840 15.92247 19.48202 -4.18171
 3.88 7.75  1.929  1.931  1.936  1.947  1.967 16.06855 19.73462 -3.92912
 3.88 8.00  2.056  2.058  2.063  2.073  2.092 16.21617 19.98825 -3.67551
 3.91-2.00 -0.526 -0.525 -0.522 -0.515 -0.503  9.62818  9.66801-13.99568
 3.91-1.50 -0.511 -0.509 -0.505 -0.496 -0.481 10.12775 10.16820-13.49539
 3.91-1.00 -0.483 -0.480 -0.475 -0.464 -0.445 10.62685 10.66922-12.99439
 3.91-0.50 -0.430 -0.427 -0.421 -0.408 -0.388 11.12353 11.17202-12.49174
 3.91 0.00 -0.339 -0.336 -0.331 -0.318 -0.299 11.61426 11.68025-11.98338
 3.91 0.50 -0.210 -0.208 -0.202 -0.191 -0.174 12.08778 12.20167-11.46206
 3.91 1.00 -0.063 -0.061 -0.057 -0.047 -0.031 12.52569 12.74406-10.91973
 3.91 1.25  0.004  0.006  0.010  0.020  0.035 12.72493 13.02244-10.64132
 3.91 1.50  0.066  0.068  0.073  0.082  0.097 12.91148 13.30081-10.36291
 3.91 1.75  0.121  0.123  0.128  0.137  0.152 13.08474 13.57781-10.08586
 3.91 2.00  0.172  0.174  0.179  0.188  0.203 13.24773 13.85309 -9.81051
 3.91 2.25  0.219  0.221  0.226  0.236  0.251 13.40163 14.12377 -9.53993
 3.91 2.50  0.266  0.268  0.273  0.283  0.299 13.54888 14.39093 -9.27287
 3.91 2.75  0.313  0.315  0.320  0.331  0.348 13.69071 14.65440 -9.00932
 3.91 3.00  0.363  0.366  0.371  0.382  0.399 13.82860 14.91503 -8.74860
 3.91 3.20  0.405  0.408  0.413  0.425  0.442 13.93651 15.12167 -8.54193
 3.91 3.40  0.450  0.453  0.459  0.471  0.488 14.04309 15.32714 -8.33646
 3.91 3.60  0.498  0.501  0.507  0.519  0.537 14.14842 15.53150 -8.13216
 3.91 3.80  0.549  0.552  0.559  0.571  0.589 14.25297 15.73510 -7.92865
 3.91 4.00  0.604  0.607  0.613  0.625  0.645 14.35679 15.93797 -7.72584
 3.91 4.20  0.661  0.664  0.670  0.683  0.703 14.45998 16.14022 -7.52356
 3.91 4.40  0.722  0.724  0.731  0.744  0.764 14.56285 16.34204 -7.32169
 3.91 4.60  0.785  0.788  0.794  0.808  0.829 14.66535 16.54347 -7.12020
 3.91 4.80  0.851  0.854  0.860  0.874  0.895 14.76773 16.74464 -6.91900
 3.91 5.00  0.920  0.923  0.929  0.943  0.965 14.87011 16.94557 -6.71806
 3.91 5.20  0.993  0.996  1.002  1.016  1.037 14.97250 17.14631 -6.51739
 3.91 5.40  1.068  1.071  1.077  1.090  1.112 15.07492 17.34691 -6.31684
 3.91 5.60  1.147  1.149  1.155  1.168  1.190 15.17747 17.54737 -6.11635
 3.91 5.80  1.229  1.231  1.237  1.249  1.270 15.28039 17.74773 -5.91592
 3.91 6.00  1.314  1.316  1.321  1.332  1.353 15.38364 17.94802 -5.71557
 3.91 6.25  1.421  1.423  1.428  1.439  1.459 15.51355 18.19829 -5.46532
 3.91 6.50  1.532  1.533  1.538  1.549  1.568 15.64444 18.44855 -5.21510
 3.91 6.75  1.641  1.643  1.647  1.658  1.677 15.77655 18.69882 -4.96488
 3.91 7.00  1.753  1.755  1.760  1.771  1.790 15.90998 18.94910 -4.71467
 3.91 7.25  1.869  1.871  1.876  1.887  1.906 16.04510 19.19946 -4.46430
 3.91 7.50  1.988  1.990  1.994  2.005  2.024 16.18156 19.44994 -4.21375
 3.91 7.75  2.108  2.110  2.114  2.125  2.144 16.31918 19.70092 -3.96280
 3.91 8.00  2.229  2.231  2.236  2.247  2.264 16.45803 19.95226 -3.71153
 3.94-2.00 -0.531 -0.530 -0.527 -0.522 -0.513  9.59846  9.63759-14.02604
 3.94-1.50 -0.520 -0.518 -0.515 -0.507 -0.494 10.09830 10.13767-13.52593
 3.94-1.00 -0.497 -0.495 -0.490 -0.480 -0.463 10.59791 10.63809-13.02558
 3.94-0.50 -0.449 -0.446 -0.440 -0.427 -0.406 11.09726 11.13862-12.52491
 3.94 0.00 -0.356 -0.352 -0.346 -0.331 -0.309 11.59494 11.64088-12.02283
 3.94 0.50 -0.200 -0.197 -0.191 -0.177 -0.155 12.08778 12.14706-11.51670
 3.94 1.00  0.018  0.021  0.026  0.039  0.058 12.56785 12.66380-11.00000
 3.94 1.25  0.142  0.144  0.150  0.161  0.179 12.79733 12.92955-10.73415
 3.94 1.50  0.266  0.268  0.273  0.284  0.301 13.01745 13.20003-10.46357
 3.94 1.75  0.379  0.381  0.386  0.396  0.412 13.22433 13.47725-10.18643
 3.94 2.00  0.478  0.481  0.485  0.495  0.511 13.41863 13.75465 -9.90904
 3.94 2.25  0.562  0.564  0.568  0.578  0.593 13.59865 14.03214 -9.63151
 3.94 2.50  0.633  0.635  0.640  0.649  0.664 13.76745 14.30963 -9.35399
 3.94 2.75  0.694  0.696  0.701  0.710  0.726 13.92603 14.58246 -9.08124
 3.94 3.00  0.750  0.752  0.757  0.766  0.783 14.07701 14.85187 -8.81192
 3.94 3.20  0.792  0.794  0.799  0.809  0.825 14.19307 15.06433 -8.59940
 3.94 3.40  0.834  0.836  0.841  0.851  0.868 14.30624 15.27481 -8.38886
 3.94 3.60  0.876  0.878  0.883  0.894  0.910 14.41663 15.48334 -8.18029
 3.94 3.80  0.919  0.921  0.927  0.938  0.955 14.52520 15.69041 -7.97322
 3.94 4.00  0.964  0.967  0.972  0.983  1.001 14.63215 15.89614 -7.76751
 3.94 4.20  1.012  1.014  1.020  1.031  1.049 14.73782 16.10073 -7.56299
 3.94 4.40  1.062  1.064  1.070  1.081  1.099 14.84262 16.30448 -7.35929
 3.94 4.60  1.114  1.117  1.122  1.134  1.152 14.94660 16.50740 -7.15635
 3.94 4.80  1.169  1.172  1.177  1.189  1.208 15.05010 16.70977 -6.95394
 3.94 5.00  1.227  1.230  1.235  1.247  1.267 15.15321 16.91164 -6.75203
 3.94 5.20  1.289  1.291  1.297  1.309  1.329 15.25595 17.11310 -6.55057
 3.94 5.40  1.353  1.356  1.361  1.373  1.393 15.35862 17.31430 -6.34938
 3.94 5.60  1.421  1.423  1.429  1.440  1.460 15.46123 17.51527 -6.14839
 3.94 5.80  1.493  1.495  1.500  1.511  1.531 15.56383 17.71607 -5.94756
 3.94 6.00  1.567  1.569  1.574  1.585  1.603 15.66643 17.91672 -5.74691
 3.94 6.25  1.663  1.665  1.669  1.679  1.698 15.79515 18.16734 -5.49639
 3.94 6.50  1.763  1.764  1.768  1.778  1.797 15.92433 18.41780 -5.24596
 3.94 6.75  1.862  1.863  1.868  1.878  1.896 16.05414 18.66811 -4.99555
 3.94 7.00  1.965  1.966  1.971  1.982  1.999 16.18469 18.91840 -4.74521
 3.94 7.25  2.072  2.074  2.078  2.088  2.106 16.31627 19.16868 -4.49501
 3.94 7.50  2.182  2.184  2.188  2.198  2.216 16.44871 19.41896 -4.24481
 3.94 7.75  2.296  2.297  2.301  2.311  2.328 16.58191 19.66929 -3.99446
 3.94 8.00  2.411  2.413  2.417  2.426  2.443 16.71592 19.91965 -3.74400
 3.97-2.00 -0.529 -0.528 -0.526 -0.522 -0.514  9.57019  9.60606-14.05769
 3.97-1.50 -0.525 -0.523 -0.520 -0.514 -0.504 10.06893 10.10721-13.55658
 3.97-1.00 -0.509 -0.507 -0.503 -0.494 -0.480 10.56832 10.60778-13.05591
 3.97-0.50 -0.472 -0.470 -0.464 -0.453 -0.434 11.06781 11.10823-12.55549
 3.97 0.00 -0.393 -0.389 -0.383 -0.368 -0.345 11.56714 11.60885-12.05488
 3.97 0.50 -0.244 -0.240 -0.233 -0.217 -0.191 12.06521 12.11059-11.55315
 3.97 1.00 -0.011 -0.008  0.000  0.014  0.039 12.55955 12.61563-11.04808
 3.97 1.25  0.134  0.138  0.144  0.159  0.183 12.80318 12.87103-10.79261
 3.97 1.50  0.296  0.299  0.305  0.319  0.342 13.04297 13.12937-10.53417
 3.97 1.75  0.461  0.464  0.470  0.483  0.504 13.27593 13.39302-10.27058
 3.97 2.00  0.621  0.624  0.629  0.641  0.661 13.50065 13.66143-10.00226
 3.97 2.25  0.764  0.766  0.771  0.782  0.801 13.71271 13.93643 -9.72732
 3.97 2.50  0.887  0.889  0.894  0.905  0.922 13.91249 14.21325 -9.45051
 3.97 2.75  0.987  0.990  0.994  1.004  1.021 14.09781 14.49139 -9.17233
 3.97 3.00  1.071  1.073  1.078  1.088  1.105 14.27138 14.76952 -8.89415
 3.97 3.20  1.127  1.130  1.134  1.144  1.161 14.40199 14.98905 -8.67463
 3.97 3.40  1.178  1.180  1.185  1.195  1.211 14.52728 15.20653 -8.45717
 3.97 3.60  1.224  1.226  1.231  1.241  1.258 14.64739 15.42160 -8.24214
 3.97 3.80  1.268  1.270  1.274  1.285  1.301 14.76387 15.63423 -8.02954
 3.97 4.00  1.310  1.312  1.317  1.328  1.344 14.87714 15.84479 -7.81902
 3.97 4.20  1.352  1.355  1.360  1.370  1.387 14.98784 16.05335 -7.61043
 3.97 4.40  1.396  1.398  1.403  1.413  1.430 15.09671 16.26044 -7.40333
 3.97 4.60  1.440  1.443  1.447  1.458  1.475 15.20381 16.46608 -7.19770
 3.97 4.80  1.487  1.489  1.494  1.504  1.522 15.30980 16.67069 -6.99310
 3.97 5.00  1.536  1.538  1.542  1.553  1.571 15.41481 16.87437 -6.78941
 3.97 5.20  1.587  1.589  1.594  1.604  1.622 15.51899 17.07724 -6.58643
 3.97 5.40  1.642  1.644  1.648  1.659  1.676 15.62276 17.27959 -6.38400
 3.97 5.60  1.699  1.701  1.706  1.716  1.733 15.72612 17.48149 -6.18211
 3.97 5.80  1.760  1.762  1.766  1.776  1.794 15.82931 17.68308 -5.98057
 3.97 6.00  1.824  1.826  1.830  1.839  1.856 15.93242 17.88434 -5.77937
 3.97 6.25  1.908  1.909  1.913  1.922  1.939 16.06124 18.13546 -5.52825
 3.97 6.50  1.996  1.997  2.001  2.010  2.026 16.19005 18.38632 -5.27737
 3.97 6.75  2.084  2.086  2.089  2.098  2.115 16.31940 18.63702 -5.02659
 3.97 7.00  2.177  2.179  2.182  2.191  2.208 16.44917 18.88756 -4.77599
 3.97 7.25  2.275  2.276  2.280  2.289  2.305 16.57950 19.13796 -4.52573
 3.97 7.50  2.376  2.378  2.381  2.390  2.406 16.71037 19.38828 -4.27548
 3.97 7.75  2.481  2.483  2.487  2.495  2.511 16.84185 19.63854 -4.02522
 3.97 8.00  2.590  2.592  2.595  2.603  2.619 16.97391 19.88874 -3.77495
 4.00-2.00 -0.513 -0.512 -0.510 -0.507 -0.500  9.54962  9.56808-14.09566
 4.00-1.50 -0.518 -0.517 -0.514 -0.509 -0.501 10.04376 10.07335-13.59041
 4.00-1.00 -0.513 -0.511 -0.508 -0.501 -0.489 10.54045 10.57669-13.08703
 4.00-0.50 -0.489 -0.487 -0.482 -0.472 -0.456 11.03902 11.07809-12.58570
 4.00 0.00 -0.429 -0.426 -0.420 -0.407 -0.385 11.53807 11.57875-12.08492
 4.00 0.50 -0.303 -0.299 -0.292 -0.275 -0.249 12.03743 12.07954-11.58436
 4.00 1.00 -0.084 -0.080 -0.072 -0.054 -0.026 12.53567 12.58104-11.08271
 4.00 1.25  0.061  0.065  0.073  0.091  0.119 12.78375 12.83265-10.83099
 4.00 1.50  0.230  0.234  0.242  0.260  0.287 13.03060 13.08529-10.57823
 4.00 1.75  0.415  0.418  0.426  0.443  0.469 13.27510 13.34017-10.32341
 4.00 2.00  0.609  0.612  0.619  0.636  0.660 13.51627 13.59781-10.06591
 4.00 2.25  0.799  0.802  0.809  0.824  0.847 13.75110 13.85999 -9.80369
 4.00 2.50  0.980  0.982  0.989  1.002  1.024 13.97827 14.12678 -9.53685
 4.00 2.75  1.138  1.141  1.146  1.159  1.179 14.19363 14.40041 -9.26334
 4.00 3.00  1.275  1.277  1.282  1.294  1.313 14.39707 14.67660 -8.98716
 4.00 3.20  1.364  1.366  1.371  1.382  1.401 14.54912 14.89926 -8.76441
 4.00 3.40  1.441  1.443  1.448  1.459  1.477 14.69343 15.12192 -8.54165
 4.00 3.60  1.507  1.509  1.513  1.524  1.541 14.82971 15.34360 -8.31994
 4.00 3.80  1.563  1.565  1.569  1.580  1.597 14.95959 15.56289 -8.10071
 4.00 4.00  1.614  1.616  1.620  1.631  1.647 15.08386 15.78032 -7.88339
 4.00 4.20  1.659  1.661  1.665  1.676  1.692 15.20340 15.99476 -7.66897
 4.00 4.40  1.702  1.704  1.709  1.719  1.735 15.31947 16.20705 -7.45669
 4.00 4.60  1.744  1.746  1.751  1.760  1.777 15.43221 16.41714 -7.24660
 4.00 4.80  1.786  1.788  1.792  1.802  1.818 15.54274 16.62548 -7.03827
 4.00 5.00  1.829  1.831  1.835  1.844  1.860 15.65128 16.83225 -6.83150
 4.00 5.20  1.873  1.875  1.879  1.888  1.904 15.75820 17.03769 -6.62609
 4.00 5.40  1.919  1.921  1.925  1.934  1.950 15.86413 17.24214 -6.42163
 4.00 5.60  1.968  1.969  1.973  1.982  1.998 15.96913 17.44566 -6.21805
 4.00 5.80  2.019  2.021  2.025  2.033  2.049 16.07358 17.64854 -6.01510
 4.00 6.00  2.074  2.076  2.079  2.087  2.102 16.17754 17.85083 -5.81276
 4.00 6.25  2.146  2.147  2.151  2.158  2.173 16.30678 18.10301 -5.56065
 4.00 6.50  2.223  2.224  2.227  2.235  2.249 16.43600 18.35468 -5.30901
 4.00 6.75  2.301  2.302  2.305  2.313  2.327 16.56522 18.60599 -5.05764
 4.00 7.00  2.384  2.386  2.389  2.396  2.410 16.69443 18.85697 -4.80660
 4.00 7.25  2.473  2.474  2.477  2.485  2.499 16.82412 19.10761 -4.55598
 4.00 7.50  2.566  2.568  2.571  2.578  2.592 16.95429 19.35813 -4.30548
 4.00 7.75  2.664  2.666  2.669  2.676  2.689 17.08527 19.60858 -4.05503
 4.00 8.00  2.767  2.768  2.771  2.778  2.791 17.21696 19.85896 -3.80465
 4.05-2.00 -0.492 -0.491 -0.489 -0.484 -0.477  9.50853  9.50934-14.15435
 4.05-1.50 -0.490 -0.489 -0.487 -0.482 -0.473 10.00732 10.01030-13.65326
 4.05-1.00 -0.489 -0.488 -0.485 -0.479 -0.468 10.50433 10.51348-13.15027
 4.05-0.50 -0.485 -0.483 -0.479 -0.471 -0.458 10.99913 11.01828-12.64532
 4.05 0.00 -0.461 -0.459 -0.454 -0.443 -0.425 11.49360 11.52375-12.13996
 4.05 0.50 -0.388 -0.385 -0.379 -0.365 -0.340 11.99007 12.02694-11.63676
 4.05 1.00 -0.228 -0.225 -0.216 -0.198 -0.169 12.48841 12.52853-11.13513
 4.05 1.25 -0.106 -0.102 -0.093 -0.074 -0.043 12.73775 12.77916-10.88454
 4.05 1.50  0.045  0.049  0.058  0.078  0.110 12.98709 13.02979-10.63395
 4.05 1.75  0.223  0.227  0.237  0.257  0.290 13.23612 13.28066-10.38308
 4.05 2.00  0.424  0.428  0.437  0.458  0.491 13.48473 13.53186-10.13183
 4.05 2.25  0.637  0.641  0.650  0.670  0.702 13.73215 13.78415 -9.87958
 4.05 2.50  0.858  0.862  0.870  0.889  0.920 13.97795 14.03782 -9.62599
 4.05 2.75  1.077  1.080  1.088  1.105  1.134 14.22064 14.29407 -9.36967
 4.05 3.00  1.289  1.293  1.300  1.316  1.342 14.45909 14.55352 -9.11008
 4.05 3.20  1.448  1.451  1.458  1.472  1.496 14.64449 14.76511 -8.89853
 4.05 3.40  1.595  1.598  1.604  1.617  1.639 14.82422 14.97971 -8.68400
 4.05 3.60  1.726  1.728  1.734  1.746  1.767 14.99701 15.19852 -8.46525
 4.05 3.80  1.840  1.842  1.847  1.859  1.878 15.16118 15.41968 -8.24410
 4.05 4.00  1.939  1.941  1.945  1.957  1.974 15.31744 15.64138 -8.02237
 4.05 4.20  2.021  2.023  2.027  2.037  2.054 15.46436 15.86341 -7.80027
 4.05 4.40  2.092  2.093  2.097  2.107  2.123 15.60404 16.08544 -7.57817
 4.05 4.60  2.152  2.154  2.157  2.167  2.182 15.73636 16.30615 -7.35745
 4.05 4.80  2.205  2.207  2.210  2.219  2.234 15.86302 16.52395 -7.13971
 4.05 5.00  2.254  2.255  2.259  2.267  2.281 15.98471 16.73965 -6.92409
 4.05 5.20  2.299  2.300  2.304  2.311  2.325 16.10225 16.95254 -6.71117
 4.05 5.40  2.343  2.344  2.347  2.354  2.367 16.21683 17.16342 -6.50026
 4.05 5.60  2.386  2.387  2.390  2.397  2.409 16.32853 17.37231 -6.29137
 4.05 5.80  2.430  2.431  2.434  2.440  2.452 16.43839 17.57967 -6.08405
 4.05 6.00  2.475  2.476  2.479  2.484  2.496 16.54667 17.78562 -5.87811
 4.05 6.25  2.534  2.535  2.537  2.542  2.553 16.68031 18.04136 -5.62233
 4.05 6.50  2.596  2.597  2.599  2.604  2.614 16.81285 18.29579 -5.36785
 4.05 6.75  2.660  2.661  2.663  2.668  2.679 16.94453 18.54923 -5.11435
 4.05 7.00  2.729  2.730  2.732  2.738  2.748 17.07591 18.80188 -4.86170
 4.05 7.25  2.804  2.805  2.807  2.812  2.822 17.20709 19.05386 -4.60985
 4.05 7.50  2.885  2.886  2.888  2.893  2.902 17.33826 19.30535 -4.35843
 4.05 7.75  2.972  2.972  2.974  2.979  2.988 17.47006 19.55650 -4.10724
 4.05 8.00  3.064  3.065  3.067  3.071  3.080 17.60228 19.80726 -3.85636
 4.10-2.00 -0.482 -0.480 -0.478 -0.471 -0.460  9.45909  9.45879-14.20496
 4.10-1.50 -0.478 -0.477 -0.474 -0.467 -0.455  9.95899  9.95880-13.70487
 4.10-1.00 -0.474 -0.473 -0.469 -0.461 -0.448 10.45879 10.45909-13.20461
 4.10-0.50 -0.466 -0.465 -0.461 -0.452 -0.438 10.95813 10.95966-12.70399
 4.10 0.00 -0.449 -0.447 -0.443 -0.433 -0.415 11.45652 11.46135-12.20232
 4.10 0.50 -0.408 -0.406 -0.400 -0.388 -0.365 11.95265 11.96506-11.69854
 4.10 1.00 -0.313 -0.310 -0.303 -0.286 -0.259 12.44685 12.47071-11.19308
 4.10 1.25 -0.232 -0.228 -0.220 -0.202 -0.172 12.69417 12.72320-10.94054
 4.10 1.50 -0.123 -0.119 -0.111 -0.091 -0.059 12.94176 12.97539-10.68825
 4.10 1.75  0.016  0.020  0.029  0.050  0.084 13.19009 13.22699-10.43674
 4.10 2.00  0.184  0.188  0.198  0.219  0.255 13.43870 13.47828-10.18549
 4.10 2.25  0.380  0.384  0.394  0.416  0.452 13.68756 13.72925 -9.93444
 4.10 2.50  0.595  0.600  0.609  0.631  0.667 13.93641 13.98023 -9.68340
 4.10 2.75  0.825  0.829  0.838  0.859  0.893 14.18478 14.23173 -9.43192
 4.10 3.00  1.060  1.064  1.073  1.092  1.125 14.43249 14.48387 -9.17986
 4.10 3.20  1.247  1.250  1.258  1.277  1.307 14.62943 14.68657 -8.97719
 4.10 3.40  1.432  1.435  1.443  1.459  1.488 14.82483 14.89052 -8.77325
 4.10 3.60  1.612  1.615  1.622  1.637  1.663 15.01821 15.09618 -8.56757
 4.10 3.80  1.785  1.787  1.793  1.806  1.830 15.20789 15.30458 -8.35913
 4.10 4.00  1.947  1.949  1.954  1.966  1.988 15.39375 15.51561 -8.14807
 4.10 4.20  2.095  2.097  2.102  2.112  2.131 15.57293 15.73099 -7.93268
 4.10 4.40  2.227  2.229  2.233  2.243  2.260 15.74529 15.94890 -7.71476
 4.10 4.60  2.343  2.345  2.348  2.358  2.373 15.90973 16.17002 -7.49363
 4.10 4.80  2.443  2.444  2.447  2.455  2.469 16.06543 16.39246 -7.27120
 4.10 5.00  2.529  2.530  2.533  2.539  2.553 16.21325 16.61490 -7.04876
 4.10 5.20  2.601  2.602  2.604  2.611  2.623 16.35253 16.83618 -6.82752
 4.10 5.40  2.664  2.665  2.667  2.673  2.684 16.48556 17.05626 -6.60752
 4.10 5.60  2.721  2.721  2.723  2.729  2.739 16.61242 17.27426 -6.38958
 4.10 5.80  2.772  2.773  2.775  2.779  2.790 16.73484 17.48944 -6.17439
 4.10 6.00  2.821  2.822  2.824  2.828  2.837 16.85333 17.70243 -5.96138
 4.10 6.25  2.880  2.881  2.882  2.886  2.895 16.99703 17.96548 -5.69823
 4.10 6.50  2.939  2.940  2.941  2.945  2.953 17.13735 18.22583 -5.43783
 4.10 6.75  2.999  2.999  3.001  3.005  3.013 17.27501 18.48385 -5.17989
 4.10 7.00  3.061  3.062  3.063  3.067  3.075 17.41112 18.74005 -4.92373
 4.10 7.25  3.128  3.129  3.130  3.134  3.142 17.54580 18.99466 -4.66898
 4.10 7.50  3.200  3.200  3.202  3.205  3.213 17.68043 19.24822 -4.41533
 4.10 7.75  3.277  3.278  3.279  3.282  3.290 17.81504 19.50111 -4.16245
 4.10 8.00  3.361  3.361  3.362  3.365  3.372 17.94963 19.75320 -3.91045
 4.15-2.00 -0.482 -0.481 -0.479 -0.473 -0.464  9.40926  9.40875-14.25500
 4.15-1.50 -0.473 -0.471 -0.468 -0.461 -0.448  9.90913  9.90870-13.75498
 4.15-1.00 -0.463 -0.461 -0.457 -0.448 -0.432 10.40909 10.40875-13.25493
 4.15-0.50 -0.453 -0.451 -0.447 -0.435 -0.416 10.90902 10.90881-12.75498
 4.15 0.00 -0.440 -0.438 -0.432 -0.420 -0.398 11.40892 11.40892-12.25469
 4.15 0.50 -0.412 -0.409 -0.403 -0.388 -0.365 11.90838 11.90945-11.75424
 4.15 1.00 -0.346 -0.343 -0.335 -0.319 -0.292 12.40722 12.41061-11.25305
 4.15 1.25 -0.288 -0.285 -0.277 -0.260 -0.230 12.65598 12.66181-11.00180
 4.15 1.50 -0.210 -0.207 -0.199 -0.180 -0.148 12.90423 12.91350-10.75007
 4.15 1.75 -0.108 -0.104 -0.096 -0.076 -0.041 13.15174 13.16597-10.49766
 4.15 2.00  0.016  0.020  0.029  0.050  0.086 13.39898 13.41863-10.24504
 4.15 2.25  0.169  0.173  0.182  0.204  0.241 13.64601 13.67143 -9.99225
 4.15 2.50  0.345  0.349  0.359  0.380  0.418 13.89304 13.92423 -9.73945
 4.15 2.75  0.547  0.551  0.560  0.582  0.619 14.14073 14.17638 -9.48736
 4.15 3.00  0.766  0.770  0.779  0.799  0.835 14.38863 14.42830 -9.23545
 4.15 3.20  0.953  0.957  0.965  0.985  1.018 14.58712 14.62966 -9.03403
 4.15 3.40  1.146  1.149  1.157  1.175  1.206 14.78561 14.83103 -8.83260
 4.15 3.60  1.340  1.344  1.351  1.367  1.396 14.98384 15.03263 -8.63097
 4.15 3.80  1.536  1.539  1.545  1.560  1.586 15.18117 15.23499 -8.42860
 4.15 4.00  1.727  1.729  1.735  1.749  1.773 15.37767 15.43807 -8.22556
 4.15 4.20  1.914  1.916  1.921  1.933  1.955 15.57211 15.64285 -8.02079
 4.15 4.40  2.095  2.097  2.102  2.112  2.131 15.76395 15.84960 -7.81406
 4.15 4.60  2.267  2.269  2.273  2.282  2.299 15.95245 16.05903 -7.60467
 4.15 4.80  2.428  2.429  2.433  2.441  2.456 16.13546 16.27185 -7.39189
 4.15 5.00  2.575  2.576  2.579  2.586  2.599 16.31302 16.48756 -7.17620
 4.15 5.20  2.705  2.706  2.708  2.714  2.725 16.48208 16.70772 -6.95590
 4.15 5.40  2.819  2.820  2.822  2.827  2.836 16.64349 16.92866 -6.73491
 4.15 5.60  2.917  2.918  2.919  2.924  2.932 16.79645 17.15034 -6.51326
 4.15 5.80  3.001  3.002  3.003  3.007  3.014 16.94149 17.37220 -6.29146
 4.15 6.00  3.075  3.076  3.077  3.080  3.087 17.07955 17.59406 -6.06966
 4.15 6.25  3.155  3.155  3.156  3.159  3.165 17.24304 17.86715 -5.79658
 4.15 6.50  3.227  3.228  3.229  3.231  3.237 17.39915 18.13704 -5.52666
 4.15 6.75  3.295  3.295  3.296  3.298  3.304 17.54906 18.40301 -5.26070
 4.15 7.00  3.361  3.361  3.362  3.364  3.370 17.69487 18.66586 -4.99783
 4.15 7.25  3.428  3.428  3.429  3.432  3.436 17.83732 18.92577 -4.73785
 4.15 7.50  3.498  3.498  3.499  3.501  3.506 17.97809 19.18356 -4.48004
 4.15 7.75  3.571  3.572  3.572  3.575  3.579 18.11798 19.43985 -4.22383
 4.15 8.00  3.650  3.650  3.651  3.653  3.657 18.25672 19.69443 -3.96940
 4.20-2.00 -0.487 -0.486 -0.485 -0.482 -0.477  9.35908  9.35870-14.30504
 4.20-1.50 -0.480 -0.479 -0.477 -0.473 -0.466  9.85914  9.85866-13.80493
 4.20-1.00 -0.469 -0.468 -0.465 -0.459 -0.448 10.35908 10.35870-13.30496
 4.20-0.50 -0.453 -0.452 -0.448 -0.438 -0.422 10.85908 10.85872-12.80493
 4.20 0.00 -0.433 -0.431 -0.425 -0.412 -0.390 11.35908 11.35889-12.30487
 4.20 0.50 -0.406 -0.403 -0.396 -0.380 -0.353 11.85890 11.85884-11.80493
 4.20 1.00 -0.359 -0.356 -0.348 -0.330 -0.298 12.35870 12.35908-11.30461
 4.20 1.25 -0.321 -0.318 -0.310 -0.290 -0.256 12.60854 12.60925-11.05439
 4.20 1.50 -0.267 -0.263 -0.255 -0.234 -0.197 12.85830 12.85950-10.80410
 4.20 1.75 -0.192 -0.188 -0.179 -0.157 -0.118 13.10786 13.10993-10.55370
 4.20 2.00 -0.095 -0.091 -0.081 -0.058 -0.018 13.35717 13.36059-10.30312
 4.20 2.25  0.028  0.032  0.041  0.065  0.107 13.60609 13.61164-10.05206
 4.20 2.50  0.174  0.178  0.187  0.211  0.252 13.85455 13.86314 -9.80052
 4.20 2.75  0.345  0.348  0.358  0.380  0.420 14.10223 14.11543 -9.54820
 4.20 3.00  0.533  0.536  0.545  0.566  0.604 14.34947 14.36810 -9.29551
 4.20 3.20  0.698  0.702  0.710  0.730  0.766 14.54690 14.57054 -9.09307
 4.20 3.40  0.871  0.875  0.882  0.901  0.934 14.74433 14.77297 -8.89063
 4.20 3.60  1.054  1.057  1.064  1.081  1.112 14.94193 14.97525 -8.68838
 4.20 3.80  1.244  1.247  1.253  1.269  1.296 15.13969 15.17737 -8.48631
 4.20 4.00  1.438  1.440  1.446  1.460  1.484 15.33746 15.37949 -8.28425
 4.20 4.20  1.636  1.639  1.644  1.656  1.679 15.53500 15.58171 -8.08204
 4.20 4.40  1.835  1.837  1.842  1.853  1.873 15.73223 15.78410 -7.87962
 4.20 4.60  2.032  2.034  2.038  2.048  2.065 15.92874 15.98709 -7.67659
 4.20 4.80  2.226  2.227  2.231  2.239  2.254 16.12346 16.19163 -7.47204
 4.20 5.00  2.413  2.414  2.418  2.425  2.438 16.31639 16.39759 -7.26608
 4.20 5.20  2.594  2.595  2.597  2.603  2.615 16.50556 16.60644 -7.05727
 4.20 5.40  2.764  2.765  2.767  2.772  2.781 16.69035 16.81800 -6.84575
 4.20 5.60  2.920  2.921  2.922  2.926  2.934 16.86969 17.03318 -6.63054
 4.20 5.80  3.060  3.061  3.062  3.065  3.072 17.04162 17.25137 -6.41228
 4.20 6.00  3.185  3.186  3.187  3.189  3.194 17.20656 17.47144 -6.19219
 4.20 6.25  3.315  3.316  3.317  3.319  3.323 17.40028 17.74899 -5.91476
 4.20 6.50  3.428  3.428  3.429  3.431  3.434 17.58275 18.02654 -5.63733
 4.20 6.75  3.522  3.522  3.523  3.524  3.528 17.75416 18.30118 -5.36262
 4.20 7.00  3.607  3.608  3.608  3.610  3.613 17.91751 18.57322 -5.09044
 4.20 7.25  3.686  3.687  3.687  3.689  3.692 18.07388 18.84130 -4.82238
 4.20 7.50  3.764  3.764  3.764  3.766  3.769 18.22583 19.10619 -4.55752
 4.20 7.75  3.841  3.841  3.841  3.843  3.846 18.37501 19.36822 -4.29552
 4.20 8.00  3.920  3.920  3.921  3.922  3.925 18.52088 19.62726 -4.03650
 4.25-2.00 -0.482 -0.482 -0.481 -0.478 -0.474  9.30920  9.30856-14.35507
 4.25-1.50 -0.479 -0.479 -0.478 -0.475 -0.469  9.80916  9.80862-13.85511
 4.25-1.00 -0.473 -0.473 -0.471 -0.467 -0.460 10.30920 10.30878-13.35497
 4.25-0.50 -0.463 -0.462 -0.459 -0.454 -0.444 10.80909 10.80868-12.85511
 4.25 0.00 -0.444 -0.443 -0.440 -0.432 -0.417 11.30899 11.30878-12.35497
 4.25 0.50 -0.416 -0.414 -0.409 -0.397 -0.377 11.80902 11.80875-11.85480
 4.25 1.00 -0.371 -0.369 -0.362 -0.346 -0.317 12.30899 12.30878-11.35477
 4.25 1.25 -0.340 -0.337 -0.329 -0.311 -0.278 12.55892 12.55885-11.10479
 4.25 1.50 -0.296 -0.293 -0.284 -0.263 -0.225 12.80882 12.80895-10.85480
 4.25 1.75 -0.241 -0.237 -0.227 -0.204 -0.161 13.05871 13.05907-10.60461
 4.25 2.00 -0.167 -0.162 -0.152 -0.127 -0.081 13.30857 13.30920-10.35438
 4.25 2.25 -0.074 -0.069 -0.059 -0.032  0.015 13.55836 13.55940-10.10415
 4.25 2.50  0.040  0.044  0.055  0.083  0.131 13.80808 13.80969 -9.85387
 4.25 2.75  0.180  0.185  0.195  0.222  0.269 14.05759 14.06017 -9.60341
 4.25 3.00  0.343  0.347  0.357  0.383  0.426 14.30685 14.31091 -9.35271
 4.25 3.20  0.494  0.497  0.507  0.530  0.571 14.50593 14.51182 -9.15182
 4.25 3.40  0.654  0.658  0.666  0.688  0.725 14.70468 14.71305 -8.95059
 4.25 3.60  0.826  0.829  0.836  0.855  0.889 14.90300 14.91470 -8.74892
 4.25 3.80  1.005  1.008  1.014  1.031  1.062 15.10088 15.11676 -8.54684
 4.25 4.00  1.188  1.190  1.196  1.210  1.237 15.29842 15.31911 -8.34448
 4.25 4.20  1.378  1.380  1.385  1.398  1.421 15.49560 15.52174 -8.14186
 4.25 4.40  1.570  1.572  1.576  1.588  1.608 15.69265 15.72448 -7.93913
 4.25 4.60  1.767  1.769  1.773  1.783  1.800 15.88964 15.92726 -7.73636
 4.25 4.80  1.968  1.969  1.973  1.981  1.997 16.08655 16.13009 -7.53354
 4.25 5.00  2.169  2.170  2.173  2.180  2.194 16.28330 16.33304 -7.33059
 4.25 5.20  2.371  2.372  2.375  2.382  2.393 16.47904 16.53682 -7.12682
 4.25 5.40  2.569  2.570  2.572  2.577  2.587 16.67351 16.74160 -6.92206
 4.25 5.60  2.762  2.763  2.764  2.768  2.776 16.86612 16.94788 -6.71576
 4.25 5.80  2.948  2.948  2.950  2.953  2.959 17.05513 17.15671 -6.50691
 4.25 6.00  3.123  3.124  3.125  3.127  3.132 17.24055 17.36791 -6.29568
 4.25 6.25  3.321  3.321  3.322  3.324  3.328 17.46338 17.63737 -6.02636
 4.25 6.50  3.496  3.496  3.497  3.499  3.502 17.67633 17.91030 -5.75350
 4.25 6.75  3.643  3.643  3.644  3.645  3.648 17.87659 18.18702 -5.47670
 4.25 7.00  3.771  3.771  3.772  3.773  3.775 18.06595 18.46374 -5.19990
 4.25 7.25  3.880  3.880  3.880  3.881  3.883 18.24416 18.73879 -4.92477
 4.25 7.50  3.979  3.980  3.980  3.981  3.983 18.41431 19.01199 -4.65150
 4.25 7.75  4.071  4.071  4.071  4.072  4.073 18.57855 19.28140 -4.38218
 4.25 8.00  4.160  4.160  4.160  4.161  4.163 18.73616 19.54765 -4.11611
 4.30-2.00 -0.472 -0.472 -0.471 -0.468 -0.462  9.26055  9.25744-14.40638
 4.30-1.50 -0.470 -0.470 -0.469 -0.465 -0.459  9.75959  9.75815-13.90553
 4.30-1.00 -0.467 -0.466 -0.464 -0.460 -0.453 10.25935 10.25864-13.40517
 4.30-0.50 -0.460 -0.459 -0.458 -0.453 -0.444 10.75914 10.75861-12.90518
 4.30 0.00 -0.448 -0.447 -0.445 -0.439 -0.428 11.25912 11.25864-12.40494
 4.30 0.50 -0.426 -0.425 -0.422 -0.415 -0.400 11.75899 11.75876-11.90483
 4.30 1.00 -0.391 -0.390 -0.385 -0.375 -0.356 12.25912 12.25888-11.40483
 4.30 1.25 -0.365 -0.363 -0.359 -0.346 -0.324 12.50901 12.50886-11.15483
 4.30 1.50 -0.332 -0.330 -0.324 -0.309 -0.283 12.75891 12.75884-10.90483
 4.30 1.75 -0.287 -0.284 -0.277 -0.259 -0.228 13.00889 13.00898-10.65479
 4.30 2.00 -0.227 -0.224 -0.215 -0.194 -0.156 13.25888 13.25912-10.40473
 4.30 2.25 -0.150 -0.147 -0.137 -0.113 -0.070 13.50877 13.50913-10.15461
 4.30 2.50 -0.054 -0.049 -0.039 -0.012  0.035 13.75861 13.75914 -9.90448
 4.30 2.75  0.061  0.065  0.076  0.104  0.154 14.00841 14.00934 -9.65434
 4.30 3.00  0.198  0.203  0.214  0.242  0.292 14.25816 14.25959 -9.40417
 4.30 3.20  0.325  0.329  0.340  0.367  0.414 14.45795 14.45980 -9.20395
 4.30 3.40  0.466  0.470  0.480  0.505  0.549 14.65769 14.66005 -9.00363
 4.30 3.60  0.622  0.625  0.634  0.657  0.698 14.85735 14.86044 -8.80320
 4.30 3.80  0.791  0.794  0.801  0.822  0.858 15.05678 15.06110 -8.60258
 4.30 4.00  0.967  0.970  0.977  0.994  1.026 15.25600 15.26198 -8.40176
 4.30 4.20  1.156  1.158  1.164  1.179  1.206 15.45476 15.46313 -8.20063
 4.30 4.40  1.347  1.349  1.354  1.366  1.389 15.65311 15.66463 -7.99914
 4.30 4.60  1.542  1.544  1.548  1.558  1.577 15.85096 15.86664 -7.79714
 4.30 4.80  1.740  1.742  1.745  1.754  1.770 16.04833 16.06917 -7.59461
 4.30 5.00  1.938  1.939  1.942  1.949  1.963 16.24527 16.27207 -7.39169
 4.30 5.20  2.141  2.142  2.145  2.151  2.162 16.44196 16.47516 -7.18854
 4.30 5.40  2.344  2.345  2.347  2.352  2.362 16.63816 16.67865 -6.98499
 4.30 5.60  2.549  2.550  2.551  2.555  2.563 16.83389 16.88251 -6.78108
 4.30 5.80  2.754  2.754  2.756  2.759  2.765 17.02872 17.08707 -6.57654
 4.30 6.00  2.954  2.954  2.955  2.957  2.962 17.22246 17.29248 -6.37120
 4.30 6.25  3.196  3.197  3.197  3.199  3.203 17.46096 17.55204 -6.11170
 4.30 6.50  3.426  3.426  3.427  3.428  3.431 17.69461 17.81485 -5.84894
 4.30 6.75  3.633  3.633  3.634  3.635  3.637 17.91980 18.08292 -5.58079
 4.30 7.00  3.820  3.820  3.820  3.821  3.823 18.13609 18.35449 -5.30918
 4.30 7.25  3.978  3.978  3.979  3.979  3.981 18.34061 18.63017 -5.03357
 4.30 7.50  4.120  4.120  4.120  4.121  4.122 18.53504 18.90585 -4.75796
 4.30 7.75  4.240  4.241  4.241  4.241  4.242 18.72012 19.18030 -4.48349
 4.30 8.00  4.353  4.353  4.353  4.354  4.355 18.89559 19.45393 -4.20979
 4.35-2.00 -0.448 -0.448 -0.447 -0.444 -0.440  9.22272  9.19452-14.46903
 4.35-1.50 -0.451 -0.451 -0.449 -0.446 -0.440  9.71792  9.69967-13.96417
 4.35-1.00 -0.453 -0.452 -0.450 -0.446 -0.438 10.21352 10.20439-13.45930
 4.35-0.50 -0.449 -0.448 -0.446 -0.441 -0.431 10.71071 10.70706-12.95664
 4.35 0.00 -0.440 -0.439 -0.437 -0.431 -0.418 11.20978 11.20817-12.45556
 4.35 0.50 -0.424 -0.423 -0.420 -0.412 -0.398 11.70927 11.70851-11.95507
 4.35 1.00 -0.395 -0.393 -0.390 -0.381 -0.365 12.20898 12.20871-11.45494
 4.35 1.25 -0.374 -0.372 -0.368 -0.359 -0.342 12.45894 12.45878-11.20481
 4.35 1.50 -0.348 -0.347 -0.343 -0.332 -0.313 12.70893 12.70885-10.95468
 4.35 1.75 -0.315 -0.313 -0.308 -0.296 -0.274 12.95895 12.95891-10.70469
 4.35 2.00 -0.272 -0.270 -0.264 -0.250 -0.225 13.20898 13.20898-10.45469
 4.35 2.25 -0.213 -0.211 -0.205 -0.188 -0.158 13.45887 13.45900-10.20469
 4.35 2.50 -0.139 -0.136 -0.128 -0.109 -0.074 13.70876 13.70902 -9.95468
 4.35 2.75 -0.042 -0.039 -0.031 -0.009  0.030 13.95874 13.95912 -9.70456
 4.35 3.00  0.074  0.078  0.087  0.111  0.154 14.20871 14.20925 -9.45445
 4.35 3.20  0.186  0.190  0.200  0.224  0.267 14.40855 14.40935 -9.25438
 4.35 3.40  0.313  0.317  0.326  0.350  0.394 14.60836 14.60946 -9.05432
 4.35 3.60  0.454  0.458  0.467  0.490  0.533 14.80815 14.80960 -8.85419
 4.35 3.80  0.609  0.612  0.621  0.642  0.682 15.00791 15.00980 -8.65393
 4.35 4.00  0.775  0.778  0.786  0.806  0.842 15.20763 15.21005 -8.45358
 4.35 4.20  0.954  0.956  0.963  0.981  1.013 15.40728 15.41041 -8.25317
 4.35 4.40  1.139  1.141  1.147  1.161  1.190 15.60682 15.61092 -8.05264
 4.35 4.60  1.332  1.334  1.339  1.351  1.375 15.80622 15.81158 -7.85198
 4.35 4.80  1.531  1.533  1.537  1.547  1.566 16.00532 16.01253 -7.65107
 4.35 5.00  1.731  1.733  1.736  1.744  1.759 16.20412 16.21378 -7.44989
 4.35 5.20  1.938  1.939  1.942  1.948  1.961 16.40224 16.41556 -7.24817
 4.35 5.40  2.144  2.144  2.146  2.152  2.162 16.59979 16.61784 -7.04594
 4.35 5.60  2.349  2.350  2.351  2.356  2.364 16.79683 16.82065 -6.84313
 4.35 5.80  2.557  2.557  2.559  2.562  2.568 16.99324 17.02408 -6.63967
 4.35 6.00  2.763  2.764  2.764  2.767  2.771 17.18893 17.22814 -6.43557
 4.35 6.25  3.025  3.025  3.026  3.028  3.032 17.43234 17.48402 -6.17965
 4.35 6.50  3.279  3.279  3.280  3.281  3.283 17.67376 17.74139 -5.92227
 4.35 6.75  3.525  3.525  3.525  3.526  3.529 17.91187 18.00138 -5.66234
 4.35 7.00  3.758  3.758  3.758  3.759  3.761 18.14551 18.26435 -5.39946
 4.35 7.25  3.969  3.969  3.969  3.970  3.971 18.37134 18.53194 -5.13186
 4.35 7.50  4.161  4.161  4.162  4.162  4.163 18.58906 18.80271 -4.86107
 4.35 7.75  4.327  4.327  4.327  4.328  4.328 18.79651 19.07591 -4.58781
 4.35 8.00  4.478  4.478  4.478  4.478  4.479 18.99441 19.35180 -4.31185
 4.40-2.00 -0.440 -0.440 -0.439 -0.437 -0.434  9.17725  9.13988-14.52375
 4.40-1.50 -0.437 -0.437 -0.436 -0.434 -0.429  9.67660  9.64038-14.02333
 4.40-1.00 -0.433 -0.433 -0.432 -0.429 -0.423 10.17551 10.14176-13.52187
 4.40-0.50 -0.430 -0.429 -0.427 -0.423 -0.415 10.67228 10.64503-13.01868
 4.40 0.00 -0.425 -0.424 -0.422 -0.416 -0.405 11.16761 11.15014-12.51357
 4.40 0.50 -0.413 -0.412 -0.409 -0.401 -0.387 11.66295 11.65475-12.00895
 4.40 1.00 -0.388 -0.387 -0.383 -0.374 -0.357 12.16047 12.15715-11.50640
 4.40 1.25 -0.370 -0.369 -0.365 -0.355 -0.336 12.40986 12.40785-11.25579
 4.40 1.50 -0.346 -0.345 -0.341 -0.330 -0.310 12.65944 12.65830-11.00537
 4.40 1.75 -0.317 -0.315 -0.311 -0.300 -0.278 12.90915 12.90851-10.75507
 4.40 2.00 -0.282 -0.280 -0.275 -0.263 -0.240 13.15897 13.15866-10.50487
 4.40 2.25 -0.236 -0.234 -0.229 -0.215 -0.190 13.40892 13.40877-10.25482
 4.40 2.50 -0.179 -0.177 -0.172 -0.157 -0.129 13.65887 13.65887-10.00476
 4.40 2.75 -0.105 -0.102 -0.096 -0.080 -0.048 13.90877 13.90907 -9.75468
 4.40 3.00 -0.013 -0.010 -0.004  0.014  0.047 14.15866 14.15927 -9.50459
 4.40 3.20  0.078  0.081  0.088  0.108  0.142 14.35859 14.35926 -9.30452
 4.40 3.40  0.185  0.188  0.196  0.215  0.251 14.55852 14.55925 -9.10445
 4.40 3.60  0.309  0.312  0.320  0.339  0.375 14.75840 14.75929 -8.90434
 4.40 3.80  0.451  0.454  0.461  0.480  0.515 14.95823 14.95941 -8.70420
 4.40 4.00  0.606  0.608  0.615  0.633  0.667 15.15806 15.15957 -8.50404
 4.40 4.20  0.777  0.779  0.785  0.802  0.833 15.35789 15.35975 -8.30387
 4.40 4.40  0.957  0.959  0.965  0.980  1.008 15.55772 15.55998 -8.10368
 4.40 4.60  1.146  1.147  1.152  1.165  1.191 15.75752 15.76025 -7.90345
 4.40 4.80  1.341  1.342  1.347  1.358  1.380 15.95723 15.96061 -7.70310
 4.40 5.00  1.540  1.541  1.544  1.553  1.571 16.15685 16.16107 -7.50266
 4.40 5.20  1.746  1.747  1.749  1.757  1.772 16.35616 16.36171 -7.30201
 4.40 5.40  1.953  1.954  1.956  1.962  1.973 16.55517 16.56260 -7.10111
 4.40 5.60  2.163  2.163  2.165  2.170  2.179 16.75387 16.76378 -6.89989
 4.40 5.80  2.373  2.374  2.375  2.379  2.387 16.95211 16.96545 -6.69817
 4.40 6.00  2.584  2.584  2.585  2.588  2.593 17.14983 17.16761 -6.49594
 4.40 6.25  2.852  2.853  2.853  2.855  2.859 17.39585 17.42144 -6.24216
 4.40 6.50  3.117  3.117  3.118  3.119  3.122 17.64048 17.67651 -5.98716
 4.40 6.75  3.384  3.384  3.384  3.385  3.387 17.88350 17.93294 -5.73075
 4.40 7.00  3.639  3.639  3.639  3.640  3.641 18.12418 18.19117 -5.47250
 4.40 7.25  3.884  3.884  3.884  3.884  3.886 18.36124 18.45191 -5.21172
 4.40 7.50  4.116  4.116  4.116  4.116  4.117 18.59373 18.71550 -4.94808
 4.40 7.75  4.325  4.325  4.326  4.326  4.327 18.81881 18.98291 -4.68068
 4.40 8.00  4.519  4.519  4.519  4.520  4.520 19.03743 19.25382 -4.40983
 4.45-2.00 -0.435 -0.435 -0.434 -0.432 -0.429  9.12743  9.08955-14.57398
 4.45-1.50 -0.432 -0.432 -0.431 -0.429 -0.425  9.62726  9.58961-14.07407
 4.45-1.00 -0.429 -0.429 -0.428 -0.425 -0.420 10.12711 10.08990-13.57398
 4.45-0.50 -0.424 -0.423 -0.422 -0.419 -0.413 10.62696 10.59006-13.07366
 4.45 0.00 -0.416 -0.415 -0.414 -0.410 -0.402 11.12646 11.09096-12.57284
 4.45 0.50 -0.404 -0.403 -0.401 -0.395 -0.384 11.62439 11.59273-12.07094
 4.45 1.00 -0.381 -0.380 -0.377 -0.370 -0.355 12.12057 12.09691-11.56671
 4.45 1.25 -0.365 -0.364 -0.361 -0.352 -0.335 12.36805 12.34954-11.31412
 4.45 1.50 -0.343 -0.341 -0.338 -0.328 -0.308 12.61553 12.60217-11.06153
 4.45 1.75 -0.315 -0.313 -0.309 -0.298 -0.276 12.86338 12.85438-10.80933
 4.45 2.00 -0.279 -0.277 -0.272 -0.260 -0.235 13.11160 13.10619-10.55752
 4.45 2.25 -0.236 -0.234 -0.229 -0.215 -0.189 13.36051 13.35717-10.30649
 4.45 2.50 -0.185 -0.182 -0.177 -0.161 -0.132 13.60981 13.60788-10.05576
 4.45 2.75 -0.122 -0.119 -0.113 -0.097 -0.065 13.85952 13.85849 -9.80522
 4.45 3.00 -0.046 -0.043 -0.037 -0.020  0.012 14.10924 14.10890 -9.55486
 4.45 3.20  0.028  0.031  0.037  0.056  0.089 14.30900 14.30897 -9.35475
 4.45 3.40  0.116  0.118  0.125  0.143  0.177 14.50875 14.50903 -9.15464
 4.45 3.60  0.219  0.222  0.229  0.247  0.279 14.70854 14.70916 -8.95451
 4.45 3.80  0.340  0.343  0.350  0.367  0.398 14.90837 14.90937 -8.75438
 4.45 4.00  0.476  0.478  0.484  0.500  0.529 15.10823 15.10958 -8.55424
 4.45 4.20  0.633  0.635  0.640  0.655  0.683 15.30813 15.30967 -8.35412
 4.45 4.40  0.801  0.802  0.807  0.821  0.846 15.50804 15.50976 -8.15400
 4.45 4.60  0.981  0.983  0.987  0.998  1.022 15.70793 15.70987 -7.95384
 4.45 4.80  1.172  1.174  1.178  1.188  1.209 15.90776 15.91004 -7.75359
 4.45 5.00  1.368  1.369  1.372  1.381  1.399 16.10755 16.11025 -7.55331
 4.45 5.20  1.573  1.574  1.576  1.584  1.599 16.30721 16.31055 -7.35301
 4.45 5.40  1.779  1.780  1.782  1.789  1.802 16.50676 16.51095 -7.15267
 4.45 5.60  1.989  1.990  1.991  1.996  2.007 16.70620 16.71149 -6.95220
 4.45 5.80  2.201  2.201  2.203  2.207  2.216 16.90545 16.91227 -6.75148
 4.45 6.00  2.412  2.412  2.414  2.416  2.424 17.10449 17.11327 -6.55052
 4.45 6.25  2.684  2.684  2.685  2.687  2.692 17.35274 17.36499 -6.29879
 4.45 6.50  2.954  2.954  2.955  2.956  2.959 17.60021 17.61742 -6.04629
 4.45 6.75  3.230  3.230  3.230  3.232  3.234 17.84639 17.87107 -5.79257
 4.45 7.00  3.501  3.501  3.501  3.502  3.503 18.09096 18.12613 -5.53745
 4.45 7.25  3.769  3.769  3.769  3.769  3.771 18.33325 18.38313 -5.28051
 4.45 7.50  4.024  4.024  4.024  4.024  4.025 18.57276 18.64227 -5.02145
 4.45 7.75  4.264  4.264  4.264  4.264  4.265 18.80813 18.90412 -4.75958
 4.45 8.00  4.491  4.491  4.491  4.491  4.491 19.03981 19.16850 -4.49512
 4.50-2.00 -0.434 -0.434 -0.433 -0.431 -0.428  9.07737  9.03981-14.62397
 4.50-1.50 -0.429 -0.429 -0.428 -0.426 -0.422  9.57738  9.53958-14.12407
 4.50-1.00 -0.424 -0.424 -0.423 -0.421 -0.416 10.07737 10.03981-13.62397
 4.50-0.50 -0.419 -0.419 -0.418 -0.415 -0.409 10.57726 10.53970-13.12401
 4.50 0.00 -0.413 -0.412 -0.411 -0.407 -0.400 11.07737 11.03981-12.62397
 4.50 0.50 -0.403 -0.403 -0.401 -0.397 -0.386 11.57703 11.53995-12.12378
 4.50 1.00 -0.386 -0.385 -0.383 -0.377 -0.365 12.07664 12.04060-11.62324
 4.50 1.25 -0.372 -0.371 -0.369 -0.362 -0.349 12.32607 12.29115-11.37266
 4.50 1.50 -0.353 -0.352 -0.349 -0.342 -0.326 12.57519 12.54195-11.12177
 4.50 1.75 -0.326 -0.325 -0.322 -0.313 -0.295 12.82394 12.79341-10.87028
 4.50 2.00 -0.290 -0.289 -0.285 -0.275 -0.255 13.07225 13.04532-10.61834
 4.50 2.25 -0.245 -0.243 -0.239 -0.228 -0.205 13.31976 13.29784-10.36581
 4.50 2.50 -0.190 -0.188 -0.183 -0.170 -0.144 13.56726 13.55035-10.11328
 4.50 2.75 -0.126 -0.124 -0.119 -0.104 -0.074 13.81485 13.80275 -9.86084
 4.50 3.00 -0.052 -0.049 -0.043 -0.026  0.007 14.06258 14.05500 -9.60854
 4.50 3.20  0.015  0.018  0.024  0.043  0.078 14.26143 14.25625 -9.40733
 4.50 3.40  0.093  0.096  0.103  0.122  0.158 14.46052 14.45724 -9.20639
 4.50 3.60  0.183  0.186  0.194  0.213  0.249 14.65980 14.65793 -9.00572
 4.50 3.80  0.288  0.291  0.298  0.316  0.352 14.85922 14.85843 -8.80522
 4.50 4.00  0.406  0.408  0.415  0.432  0.466 15.05881 15.05881 -8.60485
 4.50 4.20  0.544  0.546  0.552  0.568  0.599 15.25859 15.25908 -8.40458
 4.50 4.40  0.694  0.696  0.702  0.716  0.743 15.45842 15.45932 -8.20435
 4.50 4.60  0.861  0.862  0.867  0.879  0.903 15.65829 15.65953 -8.00416
 4.50 4.80  1.040  1.041  1.045  1.055  1.076 15.85817 15.85974 -7.80398
 4.50 5.00  1.225  1.226  1.229  1.237  1.254 16.05805 16.05994 -7.60380
 4.50 5.20  1.425  1.425  1.428  1.435  1.449 16.25778 16.26016 -7.40357
 4.50 5.40  1.626  1.627  1.629  1.635  1.647 16.45745 16.46039 -7.20330
 4.50 5.60  1.833  1.833  1.835  1.840  1.850 16.65708 16.66065 -7.00297
 4.50 5.80  2.044  2.044  2.046  2.050  2.059 16.85665 16.86100 -6.80256
 4.50 6.00  2.255  2.255  2.257  2.260  2.267 17.05614 17.06145 -6.60206
 4.50 6.25  2.524  2.525  2.526  2.528  2.534 17.30530 17.31234 -6.35125
 4.50 6.50  2.793  2.793  2.794  2.795  2.799 17.55413 17.56360 -6.10013
 4.50 6.75  3.071  3.071  3.072  3.073  3.076 17.80229 17.81534 -5.84832
 4.50 7.00  3.349  3.349  3.349  3.350  3.352 18.04961 18.06782 -5.59568
 4.50 7.25  3.628  3.628  3.628  3.628  3.630 18.29554 18.32174 -5.34180
 4.50 7.50  3.901  3.901  3.901  3.902  3.903 18.53970 18.57726 -5.08640
 4.50 7.75  4.165  4.165  4.166  4.166  4.167 18.78090 18.83503 -4.82864
 4.50 8.00  4.414  4.414  4.414  4.414  4.414 19.01953 19.09482 -4.56880
 4.55-2.00 -0.435 -0.434 -0.434 -0.432 -0.429  9.02735  8.98963-14.67407
 4.55-1.50 -0.432 -0.432 -0.431 -0.429 -0.425  9.52737  9.48954-14.17406
 4.55-1.00 -0.427 -0.427 -0.426 -0.424 -0.420 10.02735  9.98967-13.67407
 4.55-0.50 -0.421 -0.421 -0.420 -0.417 -0.412 10.52737 10.48968-13.17406
 4.55 0.00 -0.413 -0.412 -0.411 -0.408 -0.401 11.02735 10.98967-12.67407
 4.55 0.50 -0.402 -0.402 -0.400 -0.396 -0.387 11.52724 11.48968-12.17399
 4.55 1.00 -0.387 -0.387 -0.385 -0.380 -0.369 12.02735 11.98981-11.67387
 4.55 1.25 -0.377 -0.377 -0.375 -0.369 -0.357 12.27719 12.23988-11.42380
 4.55 1.50 -0.364 -0.364 -0.361 -0.355 -0.341 12.52699 12.48996-11.17373
 4.55 1.75 -0.346 -0.345 -0.342 -0.335 -0.320 12.77678 12.74015-10.92355
 4.55 2.00 -0.320 -0.319 -0.316 -0.308 -0.291 13.02653 12.99047-10.67325
 4.55 2.25 -0.282 -0.281 -0.278 -0.268 -0.249 13.27610 13.24099-10.42273
 4.55 2.50 -0.232 -0.230 -0.227 -0.216 -0.195 13.52543 13.49178-10.17192
 4.55 2.75 -0.165 -0.163 -0.159 -0.147 -0.123 13.77416 13.74306 -9.92057
 4.55 3.00 -0.083 -0.081 -0.077 -0.064 -0.037 14.02243 13.99480 -9.66878
 4.55 3.20 -0.008 -0.006 -0.001  0.013  0.042 14.22059 14.19681 -9.46685
 4.55 3.40  0.075  0.077  0.082  0.098  0.130 14.41869 14.39882 -9.26488
 4.55 3.60  0.166  0.168  0.174  0.192  0.224 14.61675 14.60083 -9.06285
 4.55 3.80  0.266  0.268  0.275  0.293  0.327 14.81479 14.80280 -8.86080
 4.55 4.00  0.377  0.380  0.386  0.404  0.439 15.01284 15.00475 -8.65876
 4.55 4.20  0.502  0.504  0.510  0.527  0.561 15.21151 15.20612 -8.45741
 4.55 4.40  0.639  0.641  0.647  0.662  0.693 15.41044 15.40725 -8.25633
 4.55 4.60  0.790  0.792  0.797  0.811  0.839 15.60967 15.60816 -8.05553
 4.55 4.80  0.954  0.956  0.960  0.972  0.996 15.80907 15.80890 -7.85490
 4.55 5.00  1.127  1.128  1.131  1.141  1.160 16.00860 16.00945 -7.65443
 4.55 5.20  1.313  1.314  1.317  1.325  1.342 16.20824 16.20967 -7.45412
 4.55 5.40  1.504  1.505  1.507  1.513  1.525 16.40789 16.40990 -7.25382
 4.55 5.60  1.702  1.703  1.704  1.709  1.719 16.60756 16.61013 -7.05351
 4.55 5.80  1.907  1.907  1.909  1.913  1.921 16.80723 16.81041 -6.85319
 4.55 6.00  2.112  2.113  2.114  2.117  2.123 17.00690 17.01073 -6.65286
 4.55 6.25  2.378  2.378  2.379  2.381  2.387 17.25636 17.26127 -6.40233
 4.55 6.50  2.643  2.643  2.643  2.645  2.649 17.50569 17.51202 -6.15163
 4.55 6.75  2.915  2.915  2.916  2.917  2.920 17.75477 17.76307 -5.90060
 4.55 7.00  3.191  3.191  3.191  3.192  3.194 18.00346 18.01452 -5.64917
 4.55 7.25  3.472  3.472  3.472  3.473  3.474 18.25132 18.26650 -5.39721
 4.55 7.50  3.750  3.750  3.750  3.750  3.752 18.49817 18.51930 -5.14442
 4.55 7.75  4.025  4.026  4.026  4.026  4.027 18.74335 18.77383 -4.88990
 4.55 8.00  4.292  4.292  4.292  4.292  4.293 18.98709 19.02979 -4.63395
 4.60-2.00 -0.431 -0.431 -0.430 -0.429 -0.425  8.97740  8.93962-14.72400
 4.60-1.50 -0.429 -0.429 -0.429 -0.427 -0.423  9.47741  9.43965-14.22410
 4.60-1.00 -0.427 -0.427 -0.426 -0.424 -0.420  9.97736  9.93962-13.72400
 4.60-0.50 -0.423 -0.423 -0.422 -0.420 -0.415 10.47727 10.43965-13.22410
 4.60 0.00 -0.418 -0.418 -0.417 -0.414 -0.408 10.97736 10.93967-12.72400
 4.60 0.50 -0.409 -0.409 -0.408 -0.405 -0.397 11.47727 11.43965-12.22403
 4.60 1.00 -0.396 -0.395 -0.394 -0.390 -0.380 11.97731 11.93972-11.72400
 4.60 1.25 -0.386 -0.386 -0.384 -0.380 -0.370 12.22730 12.18976-11.47398
 4.60 1.50 -0.375 -0.374 -0.373 -0.367 -0.356 12.47727 12.43981-11.22395
 4.60 1.75 -0.361 -0.360 -0.358 -0.352 -0.338 12.72723 12.68984-10.97386
 4.60 2.00 -0.341 -0.340 -0.338 -0.331 -0.315 12.97717 12.93987-10.72377
 4.60 2.25 -0.314 -0.313 -0.310 -0.302 -0.285 13.22710 13.18997-10.47372
 4.60 2.50 -0.277 -0.276 -0.273 -0.264 -0.244 13.47698 13.44012-10.22366
 4.60 2.75 -0.225 -0.224 -0.221 -0.210 -0.188 13.72677 13.69034 -9.97345
 4.60 3.00 -0.157 -0.156 -0.152 -0.141 -0.116 13.97644 13.94067 -9.72308
 4.60 3.20 -0.087 -0.086 -0.082 -0.069 -0.043 14.17603 14.14107 -9.52264
 4.60 3.40 -0.005 -0.003  0.001  0.013  0.042 14.37545 14.34165 -9.32202
 4.60 3.60  0.091  0.093  0.097  0.111  0.140 14.57464 14.54252 -9.12111
 4.60 3.80  0.201  0.202  0.207  0.222  0.251 14.77352 14.74376 -8.91984
 4.60 4.00  0.321  0.323  0.328  0.343  0.372 14.97211 14.94532 -8.71828
 4.60 4.20  0.453  0.455  0.460  0.475  0.504 15.17013 15.14742 -8.51624
 4.60 4.40  0.594  0.595  0.601  0.615  0.643 15.36815 15.34951 -8.31420
 4.60 4.60  0.742  0.744  0.749  0.762  0.789 15.56618 15.55158 -8.11216
 4.60 4.80  0.899  0.900  0.905  0.917  0.941 15.76424 15.75356 -7.91016
 4.60 5.00  1.062  1.064  1.068  1.078  1.099 15.96232 15.95545 -7.70819
 4.60 5.20  1.235  1.236  1.239  1.248  1.267 16.16096 16.15678 -7.50686
 4.60 5.40  1.413  1.414  1.416  1.423  1.440 16.35985 16.35788 -7.30576
 4.60 5.60  1.599  1.600  1.602  1.607  1.620 16.55903 16.55874 -7.10488
 4.60 5.80  1.792  1.792  1.794  1.799  1.809 16.75838 16.75945 -6.90415
 4.60 6.00  1.987  1.988  1.989  1.992  2.000 16.95780 16.96004 -6.70355
 4.60 6.25  2.243  2.244  2.244  2.247  2.253 17.20716 17.21062 -6.45304
 4.60 6.50  2.499  2.499  2.500  2.501  2.506 17.45652 17.46120 -6.20253
 4.60 6.75  2.761  2.761  2.761  2.763  2.766 17.70583 17.71190 -5.95182
 4.60 7.00  3.028  3.029  3.029  3.030  3.032 17.95506 17.96275 -5.70093
 4.60 7.25  3.303  3.303  3.303  3.304  3.306 18.20383 18.21392 -5.44977
 4.60 7.50  3.578  3.578  3.578  3.579  3.580 18.45209 18.46553 -5.19818
 4.60 7.75  3.853  3.853  3.854  3.854  3.855 18.69944 18.71811 -4.94563
 4.60 8.00  4.124  4.124  4.124  4.124  4.125 18.94601 18.97146 -4.69229
 4.65-2.00 -0.428 -0.428 -0.428 -0.426 -0.422  8.92742  8.88964-14.77417
 4.65-1.50 -0.426 -0.426 -0.426 -0.424 -0.419  9.42732  9.38952-14.27409
 4.65-1.00 -0.424 -0.424 -0.423 -0.422 -0.417  9.92737  9.88964-13.77392
 4.65-0.50 -0.422 -0.422 -0.421 -0.419 -0.414 10.42732 10.38970-13.27409
 4.65 0.00 -0.418 -0.418 -0.418 -0.415 -0.410 10.92737 10.88969-12.77392
 4.65 0.50 -0.413 -0.413 -0.412 -0.409 -0.403 11.42732 11.38970-12.27401
 4.65 1.00 -0.405 -0.404 -0.403 -0.400 -0.392 11.92732 11.88969-11.77392
 4.65 1.25 -0.398 -0.398 -0.396 -0.392 -0.384 12.17732 12.13970-11.52396
 4.65 1.50 -0.390 -0.389 -0.388 -0.384 -0.374 12.42732 12.38970-11.27401
 4.65 1.75 -0.379 -0.378 -0.377 -0.372 -0.362 12.67730 12.63975-11.02396
 4.65 2.00 -0.365 -0.364 -0.363 -0.357 -0.345 12.92727 12.88981-10.77392
 4.65 2.25 -0.345 -0.344 -0.342 -0.336 -0.322 13.17721 13.13984-10.52388
 4.65 2.50 -0.318 -0.317 -0.315 -0.308 -0.291 13.42716 13.38987-10.27384
 4.65 2.75 -0.280 -0.279 -0.276 -0.268 -0.249 13.67711 13.63995-10.02376
 4.65 3.00 -0.227 -0.226 -0.222 -0.213 -0.192 13.92706 13.89003 -9.77366
 4.65 3.20 -0.172 -0.170 -0.167 -0.156 -0.133 14.12694 14.09010 -9.57356
 4.65 3.40 -0.103 -0.102 -0.098 -0.086 -0.060 14.32677 14.29018 -9.37343
 4.65 3.60 -0.020 -0.019 -0.015 -0.002  0.025 14.52658 14.49034 -9.17326
 4.65 3.80  0.077  0.079  0.083  0.096  0.125 14.72636 14.69065 -8.97299
 4.65 4.00  0.191  0.192  0.197  0.211  0.240 14.92608 14.89109 -8.77263
 4.65 4.20  0.321  0.323  0.327  0.341  0.370 15.12558 15.09165 -8.57208
 4.65 4.40  0.465  0.467  0.471  0.485  0.512 15.32484 15.29241 -8.37131
 4.65 4.60  0.623  0.624  0.628  0.641  0.667 15.52380 15.49351 -8.17022
 4.65 4.80  0.791  0.793  0.796  0.808  0.832 15.72242 15.69501 -7.96876
 4.65 5.00  0.965  0.966  0.969  0.979  1.000 15.92075 15.89680 -7.76700
 4.65 5.20  1.143  1.144  1.147  1.156  1.175 16.11864 16.09899 -7.56479
 4.65 5.40  1.323  1.324  1.326  1.333  1.350 16.31653 16.30117 -7.36257
 4.65 5.60  1.504  1.504  1.506  1.512  1.526 16.51448 16.50328 -7.16042
 4.65 5.80  1.687  1.687  1.689  1.694  1.706 16.71261 16.70519 -6.95847
 4.65 6.00  1.872  1.872  1.874  1.878  1.888 16.91089 16.90693 -6.75671
 4.65 6.25  2.112  2.113  2.114  2.117  2.124 17.15932 17.15851 -6.50521
 4.65 6.50  2.356  2.356  2.357  2.359  2.364 17.40807 17.40977 -6.25399
 4.65 6.75  2.605  2.606  2.606  2.608  2.612 17.65718 17.66068 -6.00300
 4.65 7.00  2.857  2.857  2.857  2.858  2.861 17.90628 17.91158 -5.75203
 4.65 7.25  3.120  3.120  3.120  3.121  3.123 18.15528 18.16256 -5.50107
 4.65 7.50  3.383  3.383  3.383  3.384  3.386 18.40415 18.41364 -5.25011
 4.65 7.75  3.650  3.650  3.650  3.650  3.652 18.65251 18.66525 -4.99849
 4.65 8.00  3.914  3.914  3.914  3.914  3.915 18.90048 18.91724 -4.74642
 4.70-2.00 -0.428 -0.428 -0.428 -0.426 -0.421  8.87737  8.83960-14.82420
 4.70-1.50 -0.425 -0.425 -0.424 -0.422 -0.418  9.37731  9.33965-14.32413
 4.70-1.00 -0.422 -0.421 -0.421 -0.419 -0.414  9.87737  9.83960-13.82391
 4.70-0.50 -0.419 -0.419 -0.418 -0.416 -0.410 10.37731 10.33965-13.32404
 4.70 0.00 -0.416 -0.416 -0.415 -0.413 -0.407 10.87737 10.83967-12.82391
 4.70 0.50 -0.412 -0.412 -0.411 -0.409 -0.403 11.37731 11.33965-12.32404
 4.70 1.00 -0.407 -0.407 -0.406 -0.403 -0.396 11.87731 11.83967-11.82391
 4.70 1.25 -0.403 -0.402 -0.401 -0.398 -0.390 12.12731 12.08966-11.57397
 4.70 1.50 -0.397 -0.397 -0.396 -0.392 -0.384 12.37731 12.33965-11.32404
 4.70 1.75 -0.390 -0.389 -0.388 -0.385 -0.376 12.62729 12.58972-11.07397
 4.70 2.00 -0.381 -0.381 -0.379 -0.375 -0.365 12.87726 12.83979-10.82391
 4.70 2.25 -0.368 -0.368 -0.366 -0.361 -0.350 13.12719 13.08982-10.57393
 4.70 2.50 -0.351 -0.350 -0.349 -0.343 -0.330 13.37712 13.33985-10.32395
 4.70 2.75 -0.325 -0.325 -0.323 -0.316 -0.302 13.62713 13.58988-10.07394
 4.70 3.00 -0.290 -0.289 -0.287 -0.279 -0.263 13.87714 13.83992 -9.82391
 4.70 3.20 -0.250 -0.249 -0.246 -0.238 -0.220 14.07706 14.03996 -9.62383
 4.70 3.40 -0.199 -0.198 -0.195 -0.186 -0.165 14.27698 14.24002 -9.42373
 4.70 3.60 -0.134 -0.132 -0.129 -0.119 -0.096 14.47691 14.44008 -9.22360
 4.70 3.80 -0.052 -0.051 -0.048 -0.037 -0.012 14.67685 14.64015 -9.02347
 4.70 4.00  0.044  0.045  0.049  0.061  0.089 14.87679 14.84023 -8.82333
 4.70 4.20  0.159  0.160  0.164  0.177  0.205 15.07668 15.04035 -8.62321
 4.70 4.40  0.290  0.292  0.296  0.309  0.337 15.27651 15.24053 -8.42309
 4.70 4.60  0.437  0.439  0.442  0.455  0.483 15.47625 15.44081 -8.22289
 4.70 4.80  0.598  0.599  0.603  0.614  0.641 15.67585 15.64128 -8.02248
 4.70 5.00  0.769  0.770  0.773  0.784  0.809 15.87529 15.84192 -7.82189
 4.70 5.20  0.951  0.952  0.956  0.965  0.988 16.07447 16.04279 -7.62104
 4.70 5.40  1.139  1.140  1.143  1.152  1.171 16.27337 16.24392 -7.41990
 4.70 5.60  1.331  1.332  1.334  1.341  1.358 16.47194 16.44546 -7.21826
 4.70 5.80  1.524  1.525  1.527  1.533  1.548 16.67020 16.64732 -7.01627
 4.70 6.00  1.716  1.717  1.718  1.723  1.735 16.86823 16.84936 -6.81417
 4.70 6.25  1.956  1.957  1.958  1.962  1.971 17.11545 17.10212 -6.56146
 4.70 6.50  2.196  2.196  2.197  2.200  2.207 17.36267 17.35488 -6.30874
 4.70 6.75  2.437  2.437  2.438  2.440  2.445 17.61053 17.60718 -6.05654
 4.70 7.00  2.667  2.667  2.668  2.669  2.673 17.85872 17.85914 -5.80465
 4.70 7.25  2.915  2.915  2.915  2.917  2.920 18.10726 18.11053 -5.55323
 4.70 7.50  3.164  3.164  3.164  3.165  3.167 18.35583 18.36192 -5.30181
 4.70 7.75  3.416  3.416  3.417  3.417  3.419 18.60442 18.61333 -5.05036
 4.70 8.00  3.669  3.669  3.669  3.669  3.671 18.85303 18.86475 -4.79888
 4.75-2.00 -0.429 -0.429 -0.429 -0.427 -0.422  8.82737  8.78965-14.87419
 4.75-1.50 -0.427 -0.427 -0.426 -0.425 -0.420  9.32736  9.28959-14.37407
 4.75-1.00 -0.424 -0.424 -0.423 -0.421 -0.416  9.82737  9.78965-13.87419
 4.75-0.50 -0.420 -0.420 -0.419 -0.417 -0.412 10.32736 10.28959-13.37407
 4.75 0.00 -0.415 -0.414 -0.414 -0.411 -0.405 10.82737 10.78965-12.87419
 4.75 0.50 -0.409 -0.409 -0.408 -0.406 -0.399 11.32736 11.28959-12.37407
 4.75 1.00 -0.405 -0.404 -0.403 -0.401 -0.393 11.82737 11.78972-11.87387
 4.75 1.25 -0.402 -0.401 -0.401 -0.397 -0.389 12.07737 12.03966-11.62392
 4.75 1.50 -0.398 -0.398 -0.397 -0.394 -0.385 12.32736 12.28959-11.37397
 4.75 1.75 -0.393 -0.393 -0.392 -0.389 -0.380 12.57734 12.53966-11.12392
 4.75 2.00 -0.387 -0.387 -0.386 -0.383 -0.374 12.82730 12.78972-10.87387
 4.75 2.25 -0.379 -0.379 -0.378 -0.374 -0.364 13.07723 13.03977-10.62392
 4.75 2.50 -0.368 -0.368 -0.367 -0.363 -0.352 13.32715 13.28981-10.37397
 4.75 2.75 -0.352 -0.352 -0.350 -0.346 -0.334 13.57716 13.53984-10.12392
 4.75 3.00 -0.330 -0.329 -0.328 -0.322 -0.309 13.82718 13.78986 -9.87387
 4.75 3.20 -0.304 -0.303 -0.302 -0.296 -0.281 14.02718 13.98984 -9.67383
 4.75 3.40 -0.270 -0.270 -0.268 -0.261 -0.244 14.22717 14.18982 -9.47379
 4.75 3.60 -0.226 -0.225 -0.222 -0.215 -0.196 14.42713 14.38986 -9.27372
 4.75 3.80 -0.167 -0.166 -0.163 -0.155 -0.135 14.62706 14.58997 -9.07363
 4.75 4.00 -0.094 -0.093 -0.090 -0.081 -0.058 14.82698 14.79007 -8.87354
 4.75 4.20 -0.002 -0.001  0.001  0.012  0.037 15.02689 14.99015 -8.67351
 4.75 4.40  0.106  0.108  0.111  0.123  0.149 15.22680 15.19022 -8.47347
 4.75 4.60  0.234  0.236  0.239  0.251  0.278 15.42670 15.39033 -8.27336
 4.75 4.80  0.379  0.380  0.384  0.395  0.423 15.62659 15.59050 -8.07314
 4.75 5.00  0.538  0.539  0.542  0.554  0.581 15.82646 15.79071 -7.87290
 4.75 5.20  0.710  0.711  0.714  0.725  0.751 16.02625 15.99093 -7.67265
 4.75 5.40  0.891  0.892  0.895  0.905  0.929 16.22592 16.19121 -7.47238
 4.75 5.60  1.078  1.079  1.082  1.091  1.113 16.42546 16.39166 -7.27197
 4.75 5.80  1.271  1.272  1.274  1.282  1.302 16.62477 16.59242 -7.07127
 4.75 6.00  1.467  1.467  1.470  1.476  1.493 16.82387 16.79344 -6.87031
 4.75 6.25  1.715  1.715  1.717  1.723  1.736 17.07224 17.04515 -6.61851
 4.75 6.50  1.963  1.964  1.965  1.970  1.981 17.32015 17.29732 -6.36623
 4.75 6.75  2.210  2.211  2.212  2.215  2.224 17.56736 17.55025 -6.11333
 4.75 7.00  2.447  2.447  2.448  2.451  2.457 17.81458 17.80318 -5.86044
 4.75 7.25  2.688  2.688  2.689  2.691  2.696 18.06192 18.05588 -5.60775
 4.75 7.50  2.929  2.929  2.930  2.931  2.935 18.30942 18.30835 -5.35527
 4.75 7.75  3.169  3.170  3.170  3.171  3.173 18.55730 18.56048 -5.10317
 4.75 8.00  3.410  3.410  3.410  3.411  3.413 18.80550 18.81231 -4.85140
 4.80-2.00 -0.428 -0.428 -0.428 -0.426 -0.422  8.77743  8.73965-14.92409
 4.80-1.50 -0.427 -0.427 -0.426 -0.425 -0.420  9.27738  9.23955-14.42412
 4.80-1.00 -0.425 -0.425 -0.425 -0.423 -0.418  9.77736  9.73965-13.92409
 4.80-0.50 -0.422 -0.422 -0.422 -0.420 -0.414 10.27738 10.23955-13.42412
 4.80 0.00 -0.419 -0.418 -0.418 -0.416 -0.410 10.77735 10.73965-12.92409
 4.80 0.50 -0.413 -0.413 -0.412 -0.410 -0.404 11.27738 11.23955-12.42412
 4.80 1.00 -0.406 -0.406 -0.405 -0.402 -0.395 11.77735 11.73965-11.92409
 4.80 1.25 -0.401 -0.401 -0.400 -0.397 -0.389 12.02737 11.98960-11.67405
 4.80 1.50 -0.396 -0.396 -0.395 -0.392 -0.383 12.27738 12.23955-11.42400
 4.80 1.75 -0.391 -0.391 -0.390 -0.386 -0.377 12.52734 12.48964-11.17405
 4.80 2.00 -0.385 -0.385 -0.384 -0.380 -0.371 12.77728 12.73973-10.92409
 4.80 2.25 -0.380 -0.379 -0.378 -0.374 -0.364 13.02722 12.98978-10.67407
 4.80 2.50 -0.372 -0.372 -0.371 -0.367 -0.356 13.27715 13.23980-10.42400
 4.80 2.75 -0.362 -0.362 -0.361 -0.357 -0.345 13.52718 13.48981-10.17386
 4.80 3.00 -0.349 -0.348 -0.347 -0.343 -0.331 13.77721 13.73981 -9.92372
 4.80 3.20 -0.333 -0.332 -0.331 -0.326 -0.314 13.97719 13.93981 -9.72374
 4.80 3.40 -0.312 -0.311 -0.310 -0.305 -0.291 14.17717 14.13980 -9.52376
 4.80 3.60 -0.283 -0.283 -0.281 -0.275 -0.261 14.37714 14.33983 -9.32377
 4.80 3.80 -0.245 -0.244 -0.242 -0.236 -0.220 14.57710 14.53990 -9.12376
 4.80 4.00 -0.195 -0.194 -0.192 -0.185 -0.167 14.77706 14.73997 -8.92372
 4.80 4.20 -0.129 -0.128 -0.125 -0.118 -0.098 14.97701 14.94000 -8.72365
 4.80 4.40 -0.048 -0.047 -0.044 -0.035 -0.013 15.17696 15.14003 -8.52358
 4.80 4.60  0.051  0.052  0.056  0.065  0.089 15.37689 15.34010 -8.32351
 4.80 4.80  0.171  0.172  0.175  0.185  0.210 15.57680 15.54022 -8.12343
 4.80 5.00  0.306  0.307  0.310  0.320  0.346 15.77670 15.74036 -7.92336
 4.80 5.20  0.461  0.462  0.465  0.475  0.501 15.97653 15.94052 -7.72323
 4.80 5.40  0.628  0.629  0.632  0.642  0.668 16.17633 16.14070 -7.52307
 4.80 5.60  0.806  0.807  0.810  0.820  0.844 16.37613 16.34090 -7.32287
 4.80 5.80  0.992  0.993  0.996  1.005  1.028 16.57592 16.54116 -7.12260
 4.80 6.00  1.184  1.185  1.188  1.196  1.217 16.77568 16.74147 -6.92227
 4.80 6.25  1.427  1.428  1.430  1.437  1.455 17.02507 16.99210 -6.67162
 4.80 6.50  1.673  1.674  1.675  1.681  1.697 17.27416 17.24304 -6.42067
 4.80 6.75  1.920  1.921  1.922  1.927  1.940 17.52285 17.49452 -6.16919
 4.80 7.00  2.169  2.170  2.171  2.175  2.185 17.77107 17.74648 -5.91722
 4.80 7.25  2.413  2.413  2.414  2.417  2.425 18.01854 17.99905 -5.66460
 4.80 7.50  2.659  2.659  2.660  2.662  2.669 18.26576 18.25188 -5.41173
 4.80 7.75  2.898  2.898  2.899  2.900  2.905 18.51287 18.50485 -5.15872
 4.80 8.00  3.136  3.136  3.137  3.138  3.141 18.75982 18.75800 -4.90553
 4.85-2.00 -0.428 -0.427 -0.427 -0.425 -0.421  8.72738  8.68958-14.97388
 4.85-1.50 -0.425 -0.425 -0.425 -0.423 -0.418  9.22737  9.18949-14.47405
 4.85-1.00 -0.423 -0.423 -0.423 -0.421 -0.416  9.72738  9.68966-13.97388
 4.85-0.50 -0.422 -0.421 -0.421 -0.419 -0.413 10.22737 10.18949-13.47405
 4.85 0.00 -0.419 -0.419 -0.419 -0.417 -0.411 10.72738 10.68966-12.97388
 4.85 0.50 -0.416 -0.416 -0.415 -0.413 -0.407 11.22737 11.18949-12.47405
 4.85 1.00 -0.411 -0.411 -0.410 -0.408 -0.401 11.72738 11.68966-11.97388
 4.85 1.25 -0.408 -0.407 -0.407 -0.404 -0.397 11.97738 11.93973-11.72396
 4.85 1.50 -0.404 -0.403 -0.402 -0.400 -0.392 12.22737 12.18977-11.47405
 4.85 1.75 -0.398 -0.398 -0.397 -0.394 -0.385 12.47735 12.43976-11.22396
 4.85 2.00 -0.391 -0.391 -0.390 -0.387 -0.378 12.72730 12.68975-10.97388
 4.85 2.25 -0.383 -0.383 -0.382 -0.379 -0.369 12.97721 12.93976-10.72390
 4.85 2.50 -0.374 -0.374 -0.373 -0.369 -0.359 13.22712 13.18977-10.47392
 4.85 2.75 -0.364 -0.364 -0.363 -0.359 -0.348 13.47717 13.43981-10.22390
 4.85 3.00 -0.352 -0.351 -0.350 -0.346 -0.334 13.72722 13.68984 -9.97388
 4.85 3.20 -0.340 -0.340 -0.339 -0.334 -0.322 13.92718 13.88981 -9.77389
 4.85 3.40 -0.326 -0.326 -0.324 -0.320 -0.306 14.12714 14.08979 -9.57391
 4.85 3.60 -0.308 -0.307 -0.306 -0.301 -0.287 14.32710 14.28980 -9.37392
 4.85 3.80 -0.284 -0.283 -0.281 -0.276 -0.262 14.52708 14.48987 -9.17391
 4.85 4.00 -0.252 -0.251 -0.250 -0.244 -0.229 14.72705 14.68993 -8.97388
 4.85 4.20 -0.208 -0.207 -0.206 -0.200 -0.183 14.92698 14.88998 -8.77379
 4.85 4.40 -0.152 -0.152 -0.150 -0.143 -0.126 15.12690 15.09003 -8.57370
 4.85 4.60 -0.081 -0.080 -0.078 -0.071 -0.052 15.32685 15.29010 -8.37362
 4.85 4.80  0.008  0.008  0.011  0.019  0.039 15.52683 15.49019 -8.17354
 4.85 5.00  0.114  0.115  0.117  0.126  0.147 15.72681 15.69028 -7.97347
 4.85 5.20  0.241  0.242  0.245  0.254  0.276 15.92674 15.89030 -7.77339
 4.85 5.40  0.385  0.385  0.388  0.397  0.420 16.12666 16.09032 -7.57331
 4.85 5.60  0.544  0.545  0.547  0.556  0.579 16.32654 16.29045 -7.37315
 4.85 5.80  0.718  0.718  0.721  0.729  0.752 16.52641 16.49068 -7.17290
 4.85 6.00  0.900  0.901  0.903  0.911  0.932 16.72624 16.69090 -6.97265
 4.85 6.25  1.137  1.138  1.140  1.147  1.167 16.97595 16.94118 -6.72238
 4.85 6.50  1.379  1.379  1.381  1.388  1.406 17.22557 17.19145 -6.47211
 4.85 6.75  1.621  1.621  1.623  1.629  1.644 17.47503 17.44208 -6.22151
 4.85 7.00  1.869  1.869  1.871  1.876  1.889 17.72428 17.69302 -5.97062
 4.85 7.25  2.110  2.110  2.111  2.115  2.126 17.97308 17.94437 -5.71936
 4.85 7.50  2.356  2.356  2.357  2.360  2.369 18.22141 18.19618 -5.46763
 4.85 7.75  2.597  2.597  2.598  2.601  2.608 18.46909 18.44856 -5.21521
 4.85 8.00  2.841  2.841  2.842  2.844  2.849 18.71617 18.70148 -4.96218
 4.90-2.00 -0.430 -0.430 -0.430 -0.428 -0.425  8.67743  8.63959-15.02406
 4.90-1.50 -0.427 -0.427 -0.427 -0.425 -0.421  9.17725  9.13956-14.52404
 4.90-1.00 -0.424 -0.424 -0.424 -0.422 -0.417  9.67742  9.63959-14.02406
 4.90-0.50 -0.421 -0.421 -0.420 -0.418 -0.413 10.17725 10.13956-13.52404
 4.90 0.00 -0.417 -0.417 -0.416 -0.414 -0.408 10.67742 10.63969-13.02406
 4.90 0.50 -0.414 -0.414 -0.413 -0.411 -0.404 11.17725 11.13956-12.52404
 4.90 1.00 -0.410 -0.410 -0.409 -0.407 -0.400 11.67733 11.63969-12.02402
 4.90 1.25 -0.408 -0.408 -0.407 -0.405 -0.398 11.92729 11.88963-11.77403
 4.90 1.50 -0.406 -0.406 -0.405 -0.402 -0.395 12.17725 12.13956-11.52404
 4.90 1.75 -0.403 -0.402 -0.402 -0.399 -0.390 12.42729 12.38963-11.27400
 4.90 2.00 -0.398 -0.398 -0.397 -0.394 -0.386 12.67733 12.63969-11.02397
 4.90 2.25 -0.392 -0.392 -0.391 -0.388 -0.379 12.92729 12.88963-10.77400
 4.90 2.50 -0.385 -0.385 -0.384 -0.381 -0.372 13.17725 13.13956-10.52404
 4.90 2.75 -0.376 -0.375 -0.374 -0.371 -0.361 13.42724 13.38968-10.27398
 4.90 3.00 -0.364 -0.364 -0.363 -0.359 -0.348 13.67724 13.63979-10.02392
 4.90 3.20 -0.352 -0.351 -0.350 -0.346 -0.335 13.87724 13.83984 -9.82391
 4.90 3.40 -0.337 -0.337 -0.336 -0.332 -0.320 14.07725 14.03987 -9.62390
 4.90 3.60 -0.320 -0.320 -0.319 -0.314 -0.301 14.27724 14.23988 -9.42387
 4.90 3.80 -0.300 -0.299 -0.298 -0.293 -0.279 14.47720 14.43989 -9.22383
 4.90 4.00 -0.275 -0.274 -0.273 -0.268 -0.253 14.67715 14.63988 -9.02379
 4.90 4.20 -0.244 -0.243 -0.242 -0.236 -0.221 14.87707 14.83988 -8.82377
 4.90 4.40 -0.205 -0.204 -0.203 -0.197 -0.181 15.07700 15.03988 -8.62376
 4.90 4.60 -0.155 -0.155 -0.153 -0.147 -0.130 15.27694 15.23994 -8.42370
 4.90 4.80 -0.092 -0.092 -0.090 -0.084 -0.066 15.47691 15.44006 -8.22361
 4.90 5.00 -0.016 -0.016 -0.014 -0.007  0.011 15.67688 15.64018 -8.02351
 4.90 5.20  0.081  0.082  0.084  0.091  0.110 15.87679 15.84019 -7.82343
 4.90 5.40  0.195  0.196  0.198  0.205  0.224 16.07671 16.04019 -7.62335
 4.90 5.60  0.328  0.328  0.331  0.338  0.357 16.27664 16.24029 -7.42327
 4.90 5.80  0.479  0.480  0.482  0.489  0.508 16.47657 16.44049 -7.22317
 4.90 6.00  0.643  0.644  0.645  0.652  0.671 16.67651 16.64068 -7.02306
 4.90 6.25  0.867  0.868  0.870  0.876  0.894 16.92633 16.89091 -6.77285
 4.90 6.50  1.102  1.103  1.104  1.110  1.127 17.17609 17.14114 -6.52259
 4.90 6.75  1.336  1.337  1.338  1.344  1.359 17.42580 17.39142 -6.27228
 4.90 7.00  1.583  1.583  1.584  1.589  1.603 17.67541 17.64177 -6.02187
 4.90 7.25  1.823  1.824  1.825  1.829  1.841 17.92485 17.89241 -5.77127
 4.90 7.50  2.068  2.068  2.069  2.073  2.083 18.17406 18.14333 -5.52043
 4.90 7.75  2.307  2.307  2.308  2.311  2.319 18.42281 18.39464 -5.26910
 4.90 8.00  2.549  2.549  2.550  2.553  2.559 18.67117 18.64631 -5.01737
 4.95-2.00 -0.433 -0.433 -0.433 -0.432 -0.430  8.62737  8.58961-15.07407
 4.95-1.50 -0.432 -0.432 -0.432 -0.431 -0.427  9.12743  9.08955-14.57414
 4.95-1.00 -0.430 -0.429 -0.429 -0.428 -0.424  9.62737  9.58961-14.07407
 4.95-0.50 -0.426 -0.426 -0.425 -0.424 -0.420 10.12743 10.08955-13.57414
 4.95 0.00 -0.421 -0.421 -0.420 -0.419 -0.414 10.62737 10.58961-13.07407
 4.95 0.50 -0.415 -0.415 -0.415 -0.413 -0.407 11.12743 11.08955-12.57414
 4.95 1.00 -0.409 -0.409 -0.408 -0.406 -0.399 11.62737 11.58961-12.07402
 4.95 1.25 -0.406 -0.406 -0.405 -0.403 -0.395 11.87740 11.83958-11.82399
 4.95 1.50 -0.403 -0.403 -0.402 -0.399 -0.391 12.12743 12.08955-11.57398
 4.95 1.75 -0.400 -0.400 -0.399 -0.396 -0.387 12.37742 12.33964-11.32397
 4.95 2.00 -0.396 -0.396 -0.395 -0.392 -0.382 12.62737 12.58973-11.07397
 4.95 2.25 -0.392 -0.392 -0.391 -0.387 -0.378 12.87724 12.83964-10.82397
 4.95 2.50 -0.387 -0.387 -0.386 -0.383 -0.373 13.12711 13.08955-10.57398
 4.95 2.75 -0.381 -0.381 -0.380 -0.377 -0.367 13.37718 13.33964-10.32395
 4.95 3.00 -0.374 -0.374 -0.372 -0.369 -0.359 13.62726 13.58973-10.07392
 4.95 3.20 -0.365 -0.365 -0.364 -0.360 -0.350 13.82720 13.78980 -9.87394
 4.95 3.40 -0.355 -0.354 -0.353 -0.349 -0.339 14.02714 13.98987 -9.67397
 4.95 3.60 -0.341 -0.341 -0.339 -0.335 -0.324 14.22712 14.18989 -9.47394
 4.95 3.80 -0.323 -0.323 -0.321 -0.317 -0.305 14.42714 14.38987 -9.27388
 4.95 4.00 -0.302 -0.301 -0.300 -0.295 -0.283 14.62716 14.58984 -9.07381
 4.95 4.20 -0.274 -0.273 -0.272 -0.267 -0.254 14.82715 14.78985 -8.87381
 4.95 4.40 -0.240 -0.240 -0.238 -0.233 -0.219 15.02713 14.98989 -8.67381
 4.95 4.60 -0.199 -0.199 -0.197 -0.192 -0.177 15.22708 15.18993 -8.47377
 4.95 4.80 -0.149 -0.149 -0.147 -0.141 -0.125 15.42702 15.38999 -8.27369
 4.95 5.00 -0.089 -0.089 -0.087 -0.081 -0.063 15.62696 15.59006 -8.07361
 4.95 5.20 -0.015 -0.015 -0.013 -0.007  0.011 15.82689 15.79013 -7.87356
 4.95 5.40  0.072  0.072  0.074  0.081  0.099 16.02682 15.99021 -7.67351
 4.95 5.60  0.176  0.177  0.179  0.185  0.204 16.22674 16.19031 -7.47344
 4.95 5.80  0.299  0.300  0.302  0.308  0.326 16.42665 16.39041 -7.27332
 4.95 6.00  0.437  0.437  0.439  0.445  0.462 16.62654 16.59051 -7.07320
 4.95 6.25  0.638  0.638  0.640  0.646  0.662 16.87634 16.84056 -6.82303
 4.95 6.50  0.855  0.855  0.857  0.862  0.877 17.12613 17.09061 -6.57284
 4.95 6.75  1.077  1.078  1.079  1.084  1.098 17.37598 17.34094 -6.32263
 4.95 7.00  1.317  1.318  1.319  1.323  1.336 17.62583 17.59129 -6.07237
 4.95 7.25  1.558  1.558  1.559  1.563  1.575 17.87556 17.84164 -5.82202
 4.95 7.50  1.802  1.802  1.803  1.807  1.817 18.12516 18.09202 -5.57154
 4.95 7.75  2.041  2.042  2.042  2.045  2.054 18.37447 18.34275 -5.32083
 4.95 8.00  2.284  2.284  2.285  2.287  2.294 18.62356 18.59373 -5.06992
 5.00-2.00 -0.434 -0.434 -0.434 -0.433 -0.431  8.57738  8.53958-15.12407
 5.00-1.50 -0.433 -0.433 -0.433 -0.432 -0.430  9.07737  9.03941-14.62415
 5.00-1.00 -0.433 -0.432 -0.432 -0.431 -0.429  9.57738  9.53958-14.12407
 5.00-0.50 -0.431 -0.431 -0.431 -0.430 -0.427 10.07737 10.03941-13.62415
 5.00 0.00 -0.428 -0.428 -0.428 -0.427 -0.423 10.57738 10.53958-13.12407
 5.00 0.50 -0.424 -0.424 -0.424 -0.422 -0.418 11.07737 11.03941-12.62415
 5.00 1.00 -0.418 -0.418 -0.417 -0.415 -0.410 11.57738 11.53970-12.12401
 5.00 1.25 -0.414 -0.414 -0.413 -0.411 -0.405 11.82737 11.78978-11.87398
 5.00 1.50 -0.409 -0.409 -0.408 -0.406 -0.400 12.07737 12.03981-11.62397
 5.00 1.75 -0.404 -0.404 -0.403 -0.401 -0.393 12.32737 12.28976-11.37399
 5.00 2.00 -0.398 -0.398 -0.397 -0.394 -0.386 12.57738 12.53970-11.12401
 5.00 2.25 -0.392 -0.392 -0.391 -0.388 -0.379 12.82738 12.78976-10.87399
 5.00 2.50 -0.386 -0.386 -0.385 -0.381 -0.372 13.07737 13.03981-10.62397
 5.00 2.75 -0.380 -0.379 -0.378 -0.375 -0.365 13.32732 13.28976-10.37396
 5.00 3.00 -0.373 -0.372 -0.371 -0.368 -0.357 13.57726 13.53970-10.12396
 5.00 3.20 -0.366 -0.366 -0.365 -0.361 -0.350 13.77730 13.73975 -9.92396
 5.00 3.40 -0.359 -0.358 -0.357 -0.353 -0.342 13.97735 13.93979 -9.72397
 5.00 3.60 -0.349 -0.349 -0.348 -0.344 -0.332 14.17732 14.13982 -9.52394
 5.00 3.80 -0.337 -0.337 -0.335 -0.331 -0.319 14.37724 14.33983 -9.32389
 5.00 4.00 -0.322 -0.321 -0.320 -0.316 -0.304 14.57715 14.53983 -9.12384
 5.00 4.20 -0.301 -0.300 -0.299 -0.295 -0.282 14.77708 14.73982 -8.92382
 5.00 4.40 -0.275 -0.274 -0.273 -0.269 -0.256 14.97702 14.93981 -8.72380
 5.00 4.60 -0.242 -0.241 -0.240 -0.235 -0.222 15.17701 15.13986 -8.52376
 5.00 4.80 -0.200 -0.199 -0.198 -0.193 -0.180 15.37702 15.33997 -8.32372
 5.00 5.00 -0.149 -0.149 -0.147 -0.142 -0.128 15.57703 15.54008 -8.12367
 5.00 5.20 -0.087 -0.086 -0.085 -0.079 -0.064 15.77703 15.74013 -7.92364
 5.00 5.40 -0.013 -0.012 -0.011 -0.005  0.011 15.97702 15.94018 -7.72362
 5.00 5.60  0.075  0.075  0.077  0.083  0.099 16.17695 16.14026 -7.52355
 5.00 5.80  0.177  0.178  0.179  0.185  0.202 16.37683 16.34036 -7.32343
 5.00 6.00  0.294  0.295  0.296  0.302  0.319 16.57669 16.54045 -7.12332
 5.00 6.25  0.466  0.466  0.468  0.473  0.489 16.82648 16.79053 -6.87319
 5.00 6.50  0.657  0.657  0.659  0.664  0.678 17.07628 17.04060 -6.62306
 5.00 6.75  0.869  0.869  0.870  0.875  0.888 17.32619 17.29081 -6.37285
 5.00 7.00  1.087  1.087  1.088  1.092  1.103 17.57611 17.54108 -6.12263
 5.00 7.25  1.322  1.323  1.324  1.327  1.337 17.82588 17.79142 -5.87240
 5.00 7.50  1.563  1.563  1.564  1.567  1.576 18.07555 18.04179 -5.62215
 5.00 7.75  1.802  1.803  1.803  1.806  1.814 18.32512 18.29217 -5.37169
 5.00 8.00  2.045  2.045  2.046  2.048  2.054 18.57461 18.54258 -5.12108
 5.05-2.00 -0.432 -0.432 -0.432 -0.431 -0.429  8.52737  8.48968-15.17406
 5.05-1.50 -0.432 -0.432 -0.431 -0.431 -0.429  9.02735  8.98958-14.67407
 5.05-1.00 -0.432 -0.431 -0.431 -0.431 -0.429  9.52737  9.48968-14.17406
 5.05-0.50 -0.431 -0.431 -0.431 -0.430 -0.428 10.02735  9.98958-13.67407
 5.05 0.00 -0.430 -0.430 -0.430 -0.429 -0.427 10.52737 10.48968-13.17406
 5.05 0.50 -0.428 -0.428 -0.428 -0.427 -0.424 11.02735 10.98958-12.67407
 5.05 1.00 -0.425 -0.425 -0.425 -0.424 -0.421 11.52737 11.48968-12.17406
 5.05 1.25 -0.423 -0.423 -0.422 -0.421 -0.418 11.77736 11.73965-11.92406
 5.05 1.50 -0.420 -0.420 -0.420 -0.418 -0.414 12.02735 11.98963-11.67407
 5.05 1.75 -0.416 -0.416 -0.416 -0.414 -0.410 12.27736 12.23965-11.42403
 5.05 2.00 -0.412 -0.412 -0.411 -0.410 -0.404 12.52737 12.48968-11.17399
 5.05 2.25 -0.406 -0.406 -0.405 -0.403 -0.397 12.77737 12.73968-10.92403
 5.05 2.50 -0.399 -0.399 -0.398 -0.396 -0.389 13.02735 12.98967-10.67407
 5.05 2.75 -0.390 -0.390 -0.389 -0.387 -0.379 13.27730 13.23967-10.42400
 5.05 3.00 -0.381 -0.380 -0.380 -0.377 -0.368 13.52724 13.48968-10.17393
 5.05 3.20 -0.373 -0.372 -0.372 -0.368 -0.359 13.72729 13.68969 -9.97390
 5.05 3.40 -0.364 -0.363 -0.362 -0.359 -0.348 13.92733 13.88970 -9.77388
 5.05 3.60 -0.354 -0.353 -0.352 -0.348 -0.337 14.12735 14.08974 -9.57387
 5.05 3.80 -0.342 -0.342 -0.341 -0.337 -0.325 14.32731 14.28978 -9.37386
 5.05 4.00 -0.329 -0.328 -0.327 -0.323 -0.310 14.52724 14.48982 -9.17386
 5.05 4.20 -0.313 -0.312 -0.311 -0.307 -0.294 14.72712 14.68983 -8.97386
 5.05 4.40 -0.293 -0.292 -0.291 -0.286 -0.273 14.92700 14.88984 -8.77387
 5.05 4.60 -0.267 -0.267 -0.266 -0.261 -0.247 15.12698 15.08987 -8.57383
 5.05 4.80 -0.235 -0.235 -0.233 -0.229 -0.215 15.32705 15.28991 -8.37375
 5.05 5.00 -0.196 -0.195 -0.194 -0.189 -0.176 15.52711 15.48996 -8.17367
 5.05 5.20 -0.145 -0.144 -0.143 -0.138 -0.125 15.72705 15.69000 -7.97367
 5.05 5.40 -0.084 -0.084 -0.082 -0.077 -0.063 15.92698 15.89005 -7.77366
 5.05 5.60 -0.010 -0.010 -0.008 -0.004  0.010 16.12690 16.09010 -7.57361
 5.05 5.80  0.078  0.078  0.080  0.085  0.099 16.32681 16.29016 -7.37351
 5.05 6.00  0.180  0.180  0.182  0.186  0.200 16.52673 16.49024 -7.17341
 5.05 6.25  0.332  0.332  0.333  0.338  0.352 16.77663 16.74038 -6.92333
 5.05 6.50  0.505  0.506  0.507  0.512  0.525 17.02653 16.99052 -6.67325
 5.05 6.75  0.701  0.702  0.703  0.707  0.720 17.27639 17.24066 -6.42304
 5.05 7.00  0.901  0.902  0.903  0.907  0.918 17.52621 17.49080 -6.17282
 5.05 7.25  1.126  1.126  1.127  1.130  1.140 17.77597 17.74103 -5.92263
 5.05 7.50  1.358  1.358  1.359  1.362  1.370 18.02572 17.99132 -5.67244
 5.05 7.75  1.594  1.594  1.594  1.597  1.604 18.27545 18.24166 -5.42210
 5.05 8.00  1.833  1.833  1.833  1.835  1.841 18.52518 18.49206 -5.17166
 5.10-2.00 -0.427 -0.427 -0.426 -0.426 -0.424  8.47741  8.43965-15.22410
 5.10-1.50 -0.427 -0.427 -0.426 -0.426 -0.424  8.97736  8.93957-14.72400
 5.10-1.00 -0.427 -0.426 -0.426 -0.426 -0.424  9.47741  9.43965-14.22410
 5.10-0.50 -0.426 -0.426 -0.426 -0.426 -0.424  9.97736  9.93957-13.72400
 5.10 0.00 -0.426 -0.426 -0.426 -0.425 -0.424 10.47741 10.43965-13.22403
 5.10 0.50 -0.426 -0.425 -0.425 -0.425 -0.423 10.97736 10.93962-12.72400
 5.10 1.00 -0.424 -0.424 -0.424 -0.423 -0.421 11.47741 11.43965-12.22403
 5.10 1.25 -0.423 -0.423 -0.423 -0.422 -0.420 11.72736 11.68963-11.97401
 5.10 1.50 -0.422 -0.422 -0.422 -0.421 -0.419 11.97731 11.93962-11.72400
 5.10 1.75 -0.420 -0.420 -0.420 -0.419 -0.416 12.22736 12.18963-11.47401
 5.10 2.00 -0.418 -0.418 -0.418 -0.417 -0.414 12.47741 12.43965-11.22403
 5.10 2.25 -0.415 -0.415 -0.415 -0.414 -0.410 12.72736 12.68966-10.97402
 5.10 2.50 -0.412 -0.412 -0.411 -0.410 -0.406 12.97731 12.93967-10.72400
 5.10 2.75 -0.407 -0.406 -0.406 -0.404 -0.400 13.22729 13.18966-10.47398
 5.10 3.00 -0.400 -0.400 -0.400 -0.398 -0.392 13.47727 13.43965-10.22395
 5.10 3.20 -0.393 -0.393 -0.392 -0.390 -0.384 13.67725 13.63967-10.02397
 5.10 3.40 -0.385 -0.384 -0.384 -0.381 -0.375 13.87723 13.83970 -9.82399
 5.10 3.60 -0.375 -0.375 -0.374 -0.371 -0.364 14.07723 14.03974 -9.62397
 5.10 3.80 -0.363 -0.363 -0.362 -0.359 -0.351 14.27725 14.23977 -9.42393
 5.10 4.00 -0.349 -0.349 -0.348 -0.344 -0.335 14.47727 14.43981 -9.22388
 5.10 4.20 -0.333 -0.332 -0.331 -0.328 -0.317 14.67721 14.63981 -9.02384
 5.10 4.40 -0.313 -0.313 -0.311 -0.307 -0.296 14.87716 14.83982 -8.82379
 5.10 4.60 -0.290 -0.289 -0.288 -0.283 -0.271 15.07713 15.03985 -8.62376
 5.10 4.80 -0.261 -0.261 -0.260 -0.255 -0.242 15.27713 15.23991 -8.42374
 5.10 5.00 -0.227 -0.226 -0.225 -0.220 -0.206 15.47712 15.43996 -8.22373
 5.10 5.20 -0.185 -0.184 -0.183 -0.178 -0.164 15.67705 15.63999 -8.02375
 5.10 5.40 -0.134 -0.134 -0.132 -0.127 -0.112 15.87698 15.84001 -7.82376
 5.10 5.60 -0.072 -0.072 -0.070 -0.065 -0.051 16.07692 16.04007 -7.62370
 5.10 5.80  0.001  0.002  0.003  0.008  0.021 16.27688 16.24018 -7.42357
 5.10 6.00  0.087  0.087  0.089  0.093  0.106 16.47683 16.44028 -7.22344
 5.10 6.25  0.219  0.219  0.220  0.224  0.237 16.72673 16.69035 -6.97338
 5.10 6.50  0.372  0.373  0.374  0.377  0.389 16.97663 16.94042 -6.72331
 5.10 6.75  0.554  0.554  0.555  0.559  0.569 17.22652 17.19059 -6.47312
 5.10 7.00  0.748  0.748  0.749  0.752  0.762 17.47640 17.44075 -6.22294
 5.10 7.25  0.961  0.962  0.962  0.965  0.974 17.72620 17.69091 -5.97278
 5.10 7.50  1.188  1.189  1.189  1.192  1.199 17.97598 17.94106 -5.72262
 5.10 7.75  1.418  1.418  1.419  1.421  1.427 18.22576 18.19134 -5.47235
 5.10 8.00  1.652  1.652  1.652  1.654  1.660 18.47553 18.44170 -5.22199
 5.15-2.00 -0.418 -0.418 -0.418 -0.417 -0.416  8.42749  8.38970-15.27409
 5.15-1.50 -0.418 -0.418 -0.418 -0.417 -0.416  8.92737  8.88958-14.77417
 5.15-1.00 -0.418 -0.418 -0.418 -0.417 -0.416  9.42732  9.38970-14.27409
 5.15-0.50 -0.418 -0.418 -0.418 -0.417 -0.416  9.92737  9.88958-13.77417
 5.15 0.00 -0.418 -0.418 -0.418 -0.417 -0.416 10.42732 10.38970-13.27409
 5.15 0.50 -0.418 -0.418 -0.418 -0.417 -0.415 10.92737 10.88958-12.77417
 5.15 1.00 -0.417 -0.417 -0.417 -0.417 -0.415 11.42732 11.38970-12.27409
 5.15 1.25 -0.417 -0.417 -0.417 -0.416 -0.415 11.67732 11.63967-12.02413
 5.15 1.50 -0.417 -0.417 -0.416 -0.416 -0.414 11.92732 11.88964-11.77417
 5.15 1.75 -0.416 -0.416 -0.416 -0.415 -0.413 12.17732 12.13967-11.52409
 5.15 2.00 -0.415 -0.415 -0.415 -0.414 -0.412 12.42732 12.38970-11.27401
 5.15 2.25 -0.414 -0.413 -0.413 -0.413 -0.410 12.67732 12.63967-11.02395
 5.15 2.50 -0.412 -0.412 -0.412 -0.411 -0.409 12.92732 12.88964-10.77392
 5.15 2.75 -0.410 -0.409 -0.409 -0.408 -0.406 13.17732 13.13967-10.52396
 5.15 3.00 -0.407 -0.406 -0.406 -0.405 -0.402 13.42732 13.38970-10.27401
 5.15 3.20 -0.403 -0.403 -0.402 -0.401 -0.398 13.62730 13.58970-10.07397
 5.15 3.40 -0.399 -0.399 -0.398 -0.397 -0.393 13.82728 13.78969 -9.87393
 5.15 3.60 -0.393 -0.393 -0.392 -0.391 -0.386 14.02728 13.98969 -9.67392
 5.15 3.80 -0.385 -0.385 -0.385 -0.383 -0.378 14.22730 14.18970 -9.47392
 5.15 4.00 -0.376 -0.376 -0.376 -0.374 -0.368 14.42733 14.38970 -9.27393
 5.15 4.20 -0.364 -0.364 -0.363 -0.361 -0.355 14.62726 14.58974 -9.07393
 5.15 4.40 -0.349 -0.349 -0.348 -0.346 -0.338 14.82720 14.78979 -8.87392
 5.15 4.60 -0.330 -0.330 -0.329 -0.326 -0.318 15.02716 14.98982 -8.67389
 5.15 4.80 -0.305 -0.305 -0.304 -0.301 -0.291 15.22716 15.18985 -8.47382
 5.15 5.00 -0.274 -0.274 -0.273 -0.269 -0.259 15.42716 15.38988 -8.27376
 5.15 5.20 -0.236 -0.236 -0.235 -0.231 -0.219 15.62711 15.58991 -8.07372
 5.15 5.40 -0.189 -0.188 -0.187 -0.183 -0.169 15.82705 15.78995 -7.87368
 5.15 5.60 -0.132 -0.131 -0.130 -0.126 -0.112 16.02698 15.99002 -7.67363
 5.15 5.80 -0.066 -0.065 -0.064 -0.059 -0.046 16.22691 16.19013 -7.47357
 5.15 6.00  0.011  0.012  0.013  0.017  0.031 16.42684 16.39023 -7.27352
 5.15 6.25  0.125  0.126  0.127  0.131  0.144 16.67677 16.64027 -7.02346
 5.15 6.50  0.261  0.261  0.262  0.266  0.278 16.92670 16.89031 -6.77340
 5.15 6.75  0.422  0.423  0.424  0.427  0.438 17.17662 17.14044 -6.52326
 5.15 7.00  0.604  0.604  0.605  0.608  0.617 17.42651 17.39058 -6.27311
 5.15 7.25  0.801  0.801  0.802  0.804  0.812 17.67634 17.64072 -6.02300
 5.15 7.50  1.019  1.019  1.020  1.022  1.028 17.92614 17.89087 -5.77289
 5.15 7.75  1.246  1.246  1.246  1.248  1.254 18.17593 18.14113 -5.52264
 5.15 8.00  1.478  1.478  1.479  1.481  1.485 18.42570 18.39146 -5.27230
 5.20-2.00 -0.405 -0.405 -0.405 -0.404 -0.403  8.37749  8.33965-15.32404
 5.20-1.50 -0.405 -0.405 -0.405 -0.405 -0.403  8.87737  8.83960-14.82420
 5.20-1.00 -0.405 -0.405 -0.405 -0.404 -0.403  9.37749  9.33965-14.32404
 5.20-0.50 -0.405 -0.405 -0.405 -0.405 -0.403  9.87737  9.83960-13.82420
 5.20 0.00 -0.405 -0.405 -0.405 -0.404 -0.403 10.37731 10.33965-13.32404
 5.20 0.50 -0.405 -0.405 -0.405 -0.404 -0.403 10.87737 10.83960-12.82420
 5.20 1.00 -0.405 -0.405 -0.405 -0.404 -0.403 11.37731 11.33965-12.32404
 5.20 1.25 -0.405 -0.405 -0.405 -0.404 -0.403 11.62731 11.58963-12.07412
 5.20 1.50 -0.405 -0.405 -0.405 -0.404 -0.403 11.87731 11.83960-11.82420
 5.20 1.75 -0.405 -0.405 -0.404 -0.404 -0.402 12.12731 12.08963-11.57412
 5.20 2.00 -0.404 -0.404 -0.404 -0.404 -0.402 12.37731 12.33965-11.32404
 5.20 2.25 -0.404 -0.404 -0.404 -0.403 -0.401 12.62731 12.58966-11.07397
 5.20 2.50 -0.403 -0.403 -0.403 -0.402 -0.401 12.87731 12.83967-10.82391
 5.20 2.75 -0.402 -0.402 -0.402 -0.401 -0.399 13.12731 13.08966-10.57393
 5.20 3.00 -0.401 -0.400 -0.400 -0.400 -0.398 13.37731 13.33965-10.32395
 5.20 3.20 -0.399 -0.399 -0.399 -0.398 -0.396 13.57729 13.53965-10.12393
 5.20 3.40 -0.397 -0.397 -0.397 -0.396 -0.393 13.77727 13.73966 -9.92392
 5.20 3.60 -0.394 -0.394 -0.394 -0.393 -0.390 13.97727 13.93970 -9.72392
 5.20 3.80 -0.390 -0.390 -0.390 -0.389 -0.386 14.17729 14.13978 -9.52393
 5.20 4.00 -0.386 -0.386 -0.385 -0.384 -0.381 14.37731 14.33985 -9.32395
 5.20 4.20 -0.378 -0.378 -0.378 -0.377 -0.373 14.57726 14.53983 -9.12394
 5.20 4.40 -0.370 -0.370 -0.369 -0.368 -0.363 14.77722 14.73980 -8.92392
 5.20 4.60 -0.358 -0.358 -0.358 -0.356 -0.351 14.97718 14.93980 -8.72388
 5.20 4.80 -0.343 -0.342 -0.342 -0.340 -0.334 15.17715 15.13982 -8.52382
 5.20 5.00 -0.323 -0.322 -0.322 -0.320 -0.313 15.37712 15.33985 -8.32376
 5.20 5.20 -0.294 -0.294 -0.294 -0.291 -0.284 15.57708 15.53988 -8.12371
 5.20 5.40 -0.259 -0.258 -0.257 -0.255 -0.246 15.77705 15.73990 -7.92365
 5.20 5.60 -0.212 -0.212 -0.211 -0.208 -0.199 15.97701 15.93994 -7.72361
 5.20 5.80 -0.154 -0.154 -0.153 -0.149 -0.139 16.17698 16.13999 -7.52360
 5.20 6.00 -0.083 -0.082 -0.081 -0.078 -0.067 16.37694 16.34005 -7.32358
 5.20 6.25  0.022  0.023  0.024  0.028  0.039 16.62688 16.59014 -7.07346
 5.20 6.50  0.150  0.151  0.152  0.156  0.167 16.87679 16.84023 -6.82333
 5.20 6.75  0.298  0.299  0.300  0.303  0.315 17.12670 17.09033 -6.57327
 5.20 7.00  0.468  0.468  0.469  0.473  0.483 17.37658 17.34044 -6.32322
 5.20 7.25  0.649  0.649  0.650  0.653  0.662 17.62643 17.59058 -6.07314
 5.20 7.50  0.855  0.855  0.856  0.858  0.866 17.87628 17.84073 -5.82304
 5.20 7.75  1.073  1.073  1.074  1.076  1.082 18.12615 18.09096 -5.57281
 5.20 8.00  1.299  1.299  1.299  1.301  1.305 18.37603 18.34124 -5.32248
 5.25-2.00 -0.386 -0.386 -0.386 -0.385 -0.384  8.32736  8.28959-15.37407
 5.25-1.50 -0.386 -0.386 -0.386 -0.385 -0.384  8.82737  8.78958-14.87419
 5.25-1.00 -0.386 -0.386 -0.386 -0.385 -0.384  9.32736  9.28959-14.37407
 5.25-0.50 -0.386 -0.386 -0.386 -0.385 -0.384  9.82737  9.78958-13.87419
 5.25 0.00 -0.386 -0.386 -0.386 -0.385 -0.384 10.32736 10.28959-13.37407
 5.25 0.50 -0.386 -0.386 -0.386 -0.385 -0.384 10.82737 10.78958-12.87419
 5.25 1.00 -0.386 -0.386 -0.386 -0.385 -0.384 11.32736 11.28959-12.37407
 5.25 1.25 -0.386 -0.386 -0.386 -0.385 -0.384 11.57736 11.53959-12.12413
 5.25 1.50 -0.386 -0.386 -0.386 -0.385 -0.384 11.82737 11.78958-11.87419
 5.25 1.75 -0.386 -0.386 -0.386 -0.385 -0.384 12.07737 12.03958-11.62413
 5.25 2.00 -0.386 -0.386 -0.385 -0.385 -0.384 12.32736 12.28959-11.37407
 5.25 2.25 -0.386 -0.385 -0.385 -0.385 -0.384 12.57733 12.53962-11.12413
 5.25 2.50 -0.385 -0.385 -0.385 -0.385 -0.383 12.82730 12.78965-10.87419
 5.25 2.75 -0.385 -0.385 -0.385 -0.384 -0.383 13.07733 13.03962-10.62408
 5.25 3.00 -0.384 -0.384 -0.384 -0.384 -0.382 13.32736 13.28959-10.37397
 5.25 3.20 -0.384 -0.384 -0.383 -0.383 -0.381 13.52734 13.48960-10.17391
 5.25 3.40 -0.383 -0.383 -0.383 -0.382 -0.380 13.72732 13.68963 -9.97388
 5.25 3.60 -0.381 -0.381 -0.381 -0.381 -0.379 13.92732 13.88968 -9.77389
 5.25 3.80 -0.380 -0.379 -0.379 -0.379 -0.377 14.12734 14.08975 -9.57393
 5.25 4.00 -0.377 -0.377 -0.377 -0.376 -0.374 14.32736 14.28981 -9.37397
 5.25 4.20 -0.373 -0.373 -0.373 -0.372 -0.370 14.52729 14.48978 -9.17393
 5.25 4.40 -0.368 -0.368 -0.368 -0.367 -0.364 14.72721 14.68974 -8.97389
 5.25 4.60 -0.361 -0.361 -0.361 -0.360 -0.357 14.92717 14.88974 -8.77387
 5.25 4.80 -0.352 -0.352 -0.352 -0.351 -0.347 15.12716 15.08977 -8.57386
 5.25 5.00 -0.340 -0.340 -0.340 -0.339 -0.335 15.32715 15.28981 -8.37387
 5.25 5.20 -0.323 -0.323 -0.322 -0.321 -0.317 15.52711 15.48986 -8.17387
 5.25 5.40 -0.300 -0.300 -0.299 -0.298 -0.293 15.72707 15.68991 -7.97387
 5.25 5.60 -0.269 -0.269 -0.268 -0.267 -0.261 15.92703 15.88995 -7.77383
 5.25 5.80 -0.228 -0.228 -0.227 -0.225 -0.219 16.12699 16.08999 -7.57374
 5.25 6.00 -0.176 -0.175 -0.175 -0.172 -0.165 16.32695 16.29004 -7.37366
 5.25 6.25 -0.088 -0.088 -0.087 -0.085 -0.077 16.57690 16.54009 -7.12360
 5.25 6.50  0.021  0.021  0.022  0.025  0.033 16.82685 16.79014 -6.87354
 5.25 6.75  0.157  0.157  0.158  0.161  0.170 17.07680 17.04031 -6.62340
 5.25 7.00  0.317  0.317  0.318  0.321  0.330 17.32675 17.29048 -6.37325
 5.25 7.25  0.496  0.496  0.497  0.499  0.508 17.57657 17.54056 -6.12324
 5.25 7.50  0.690  0.690  0.691  0.693  0.701 17.82640 17.79064 -5.87322
 5.25 7.75  0.899  0.899  0.899  0.901  0.908 18.07626 18.04077 -5.62300
 5.25 8.00  1.118  1.118  1.118  1.120  1.125 18.32613 18.29092 -5.37263
 5.30-2.00 -0.360 -0.360 -0.360 -0.359 -0.358  8.27738  8.23955-15.42412
 5.30-1.50 -0.360 -0.360 -0.360 -0.359 -0.358  8.77735  8.73957-14.92409
 5.30-1.00 -0.360 -0.360 -0.360 -0.359 -0.358  9.27738  9.23955-14.42412
 5.30-0.50 -0.360 -0.360 -0.360 -0.359 -0.358  9.77736  9.73957-13.92409
 5.30 0.00 -0.360 -0.360 -0.360 -0.359 -0.358 10.27738 10.23955-13.42412
 5.30 0.50 -0.360 -0.360 -0.360 -0.359 -0.358 10.77735 10.73957-12.92409
 5.30 1.00 -0.360 -0.360 -0.360 -0.359 -0.358 11.27738 11.23955-12.42400
 5.30 1.25 -0.360 -0.360 -0.360 -0.359 -0.358 11.52737 11.48956-12.17405
 5.30 1.50 -0.360 -0.360 -0.360 -0.359 -0.358 11.77735 11.73957-11.92409
 5.30 1.75 -0.360 -0.360 -0.360 -0.359 -0.358 12.02737 11.98956-11.67405
 5.30 2.00 -0.360 -0.360 -0.360 -0.359 -0.358 12.27738 12.23955-11.42400
 5.30 2.25 -0.360 -0.360 -0.360 -0.359 -0.358 12.52737 12.48959-11.17405
 5.30 2.50 -0.360 -0.360 -0.360 -0.359 -0.358 12.77736 12.73965-10.92409
 5.30 2.75 -0.360 -0.360 -0.359 -0.359 -0.358 13.02737 12.98973-10.67405
 5.30 3.00 -0.359 -0.359 -0.359 -0.359 -0.357 13.27738 13.23980-10.42400
 5.30 3.20 -0.359 -0.359 -0.359 -0.358 -0.357 13.47734 13.43974-10.22404
 5.30 3.40 -0.359 -0.359 -0.359 -0.358 -0.357 13.67730 13.63968-10.02407
 5.30 3.60 -0.358 -0.358 -0.358 -0.357 -0.356 13.87730 13.83968 -9.82407
 5.30 3.80 -0.357 -0.357 -0.357 -0.356 -0.355 14.07734 14.03974 -9.62404
 5.30 4.00 -0.356 -0.356 -0.356 -0.355 -0.354 14.27738 14.23980 -9.42400
 5.30 4.20 -0.354 -0.353 -0.353 -0.353 -0.351 14.47731 14.43977 -9.22404
 5.30 4.40 -0.351 -0.351 -0.351 -0.350 -0.348 14.67724 14.63974 -9.02407
 5.30 4.60 -0.346 -0.346 -0.346 -0.346 -0.344 14.87719 14.83974 -8.82405
 5.30 4.80 -0.341 -0.341 -0.341 -0.340 -0.338 15.07717 15.03977 -8.62397
 5.30 5.00 -0.334 -0.334 -0.334 -0.333 -0.331 15.27715 15.23980 -8.42389
 5.30 5.20 -0.323 -0.323 -0.322 -0.322 -0.319 15.47714 15.43983 -8.22382
 5.30 5.40 -0.308 -0.308 -0.308 -0.307 -0.304 15.67714 15.63987 -8.02375
 5.30 5.60 -0.288 -0.288 -0.288 -0.287 -0.284 15.87714 15.83992 -7.82370
 5.30 5.80 -0.261 -0.261 -0.261 -0.260 -0.256 16.07715 16.03999 -7.62367
 5.30 6.00 -0.226 -0.226 -0.225 -0.224 -0.220 16.27715 16.24005 -7.42366
 5.30 6.25 -0.165 -0.165 -0.164 -0.163 -0.158 16.52703 16.49009 -7.17369
 5.30 6.50 -0.082 -0.082 -0.081 -0.079 -0.074 16.77692 16.74013 -6.92372
 5.30 6.75  0.026  0.026  0.027  0.029  0.035 17.02680 16.99021 -6.67358
 5.30 7.00  0.161  0.161  0.162  0.164  0.170 17.27669 17.24030 -6.42343
 5.30 7.25  0.324  0.325  0.325  0.327  0.334 17.52659 17.49041 -6.17339
 5.30 7.50  0.504  0.505  0.505  0.507  0.514 17.77648 17.74052 -5.92336
 5.30 7.75  0.706  0.707  0.707  0.709  0.715 18.02636 17.99065 -5.67316
 5.30 8.00  0.922  0.922  0.922  0.924  0.929 18.27623 18.24080 -5.42285
