
 ROSSELAND MASS ABSORPTION COEFFICENTS
 logT logP  0km/s  1km/s  2km/s  4km/s  8km/s  log Ne   log Na  log rho IPloCM-1
 3.32-2.00 -5.104 -5.090 -5.069 -5.038 -5.000  5.46330 10.53970-13.12119
 3.32-1.50 -5.141 -5.125 -5.104 -5.069 -5.032  5.87518 11.04060-12.62033
 3.32-1.00 -5.190 -5.173 -5.150 -5.115 -5.077  6.27692 11.54345-12.11748
 3.32-0.50 -5.235 -5.218 -5.194 -5.160 -5.122  6.68332 12.05192-11.60924
 3.32 0.00 -5.261 -5.244 -5.221 -5.187 -5.148  7.10857 12.57310-11.08788
 3.32 0.50 -5.267 -5.250 -5.227 -5.193 -5.154  7.54133 13.11428-10.54668
 3.32 1.00 -5.266 -5.249 -5.226 -5.191 -5.153  7.94562 13.66783 -9.99311
 3.32 1.25 -5.262 -5.246 -5.223 -5.188 -5.150  8.13076 13.94284 -9.71809
 3.32 1.50 -5.257 -5.240 -5.217 -5.184 -5.146  8.30771 14.21590 -9.44503
 3.32 1.75 -5.246 -5.229 -5.207 -5.175 -5.138  8.47670 14.48487 -9.17611
 3.32 2.00 -5.230 -5.214 -5.193 -5.161 -5.125  8.64296 14.75059 -8.91045
 3.32 2.25 -5.207 -5.192 -5.171 -5.141 -5.107  8.80716 15.01287 -8.64816
 3.32 2.50 -5.178 -5.163 -5.143 -5.115 -5.082  8.97137 15.27254 -8.38849
 3.32 2.75 -5.139 -5.124 -5.106 -5.078 -5.047  9.13793 15.52993 -8.13117
 3.32 3.00 -5.091 -5.078 -5.061 -5.034 -5.005  9.30449 15.78562 -7.87550
 3.32 3.20 -5.045 -5.033 -5.016 -4.991 -4.963  9.43770 15.98910 -7.67191
 3.32 3.40 -4.994 -4.983 -4.967 -4.943 -4.916  9.57085 16.19195 -7.46897
 3.32 3.60 -4.936 -4.925 -4.911 -4.890 -4.864  9.70244 16.39424 -7.26665
 3.32 3.80 -4.872 -4.863 -4.850 -4.830 -4.806  9.83045 16.59613 -7.06476
 3.32 4.00 -4.802 -4.795 -4.784 -4.766 -4.744  9.95569 16.79762 -6.86328
 3.32 4.20 -4.738 -4.731 -4.720 -4.702 -4.680 10.07680 16.99869 -6.66218
 3.32 4.40 -4.668 -4.661 -4.650 -4.633 -4.610 10.19479 17.19957 -6.46128
 3.32 4.60 -4.595 -4.588 -4.578 -4.562 -4.539 10.30957 17.40031 -6.26057
 3.32 4.80 -4.520 -4.513 -4.503 -4.486 -4.464 10.42174 17.60095 -6.05997
 3.32 5.00 -4.438 -4.431 -4.422 -4.405 -4.382 10.53161 17.80148 -5.85949
 3.32 5.20 -4.349 -4.342 -4.332 -4.317 -4.294 10.63947 18.00188 -5.65914
 3.32 5.40 -4.250 -4.243 -4.234 -4.219 -4.197 10.74586 18.20221 -5.45885
 3.32 5.60 -4.138 -4.132 -4.123 -4.109 -4.088 10.85084 18.40242 -5.25861
 3.32 5.80 -4.010 -4.005 -3.997 -3.984 -3.964 10.95487 18.60258 -5.05840
 3.32 6.00 -3.864 -3.859 -3.852 -3.839 -3.821 11.05805 18.80271 -4.85824
 3.32 6.25 -3.647 -3.643 -3.638 -3.627 -3.610 11.18616 19.05286 -4.60812
 3.32 6.50 -3.383 -3.380 -3.375 -3.367 -3.353 11.31345 19.30298 -4.35803
 3.32 6.75 -3.059 -3.057 -3.055 -3.048 -3.037 11.44007 19.55306 -4.10797
 3.32 7.00 -2.857 -2.854 -2.852 -2.846 -2.838 11.56608 19.80312 -3.85792
 3.32 7.25 -2.751 -2.748 -2.746 -2.741 -2.733 11.69164 20.05316 -3.60788
 3.32 7.50 -2.648 -2.647 -2.644 -2.640 -2.633 11.81657 20.30320 -3.35783
 3.32 7.75 -2.549 -2.547 -2.546 -2.542 -2.536 11.94070 20.55323 -3.10774
 3.32 8.00 -2.454 -2.452 -2.450 -2.446 -2.441 12.06408 20.80325 -2.85761
 3.34-2.00 -5.035 -5.023 -5.004 -4.975 -4.938  5.53995 10.51930-13.14164
 3.34-1.50 -5.047 -5.033 -5.012 -4.979 -4.939  5.97672 11.01953-12.64130
 3.34-1.00 -5.071 -5.054 -5.031 -4.995 -4.953  6.39498 11.52048-12.14044
 3.34-0.50 -5.102 -5.083 -5.059 -5.021 -4.979  6.79969 12.02325-11.63771
 3.34 0.00 -5.125 -5.106 -5.081 -5.043 -5.000  7.20303 12.53135-11.12965
 3.34 0.50 -5.117 -5.098 -5.073 -5.034 -4.992  7.62076 13.05192-10.60889
 3.34 1.00 -5.072 -5.053 -5.028 -4.989 -4.946  8.05154 13.59273-10.06824
 3.34 1.25 -5.042 -5.023 -4.997 -4.960 -4.918  8.25995 13.86943 -9.79154
 3.34 1.50 -5.012 -4.993 -4.967 -4.931 -4.889  8.46135 14.14613 -9.51485
 3.34 1.75 -4.982 -4.963 -4.938 -4.902 -4.862  8.64953 14.42130 -9.23963
 3.34 2.00 -4.953 -4.935 -4.911 -4.875 -4.837  8.82872 14.69469 -8.96618
 3.34 2.25 -4.923 -4.905 -4.882 -4.847 -4.809  8.99884 14.96383 -8.69711
 3.34 2.50 -4.891 -4.873 -4.851 -4.818 -4.781  9.16495 15.22968 -8.43133
 3.34 2.75 -4.854 -4.837 -4.815 -4.785 -4.749  9.32766 15.49211 -8.16887
 3.34 3.00 -4.811 -4.795 -4.774 -4.745 -4.712  9.49038 15.75189 -7.90904
 3.34 3.20 -4.771 -4.755 -4.736 -4.708 -4.675  9.62112 15.95796 -7.70291
 3.34 3.40 -4.724 -4.711 -4.693 -4.667 -4.636  9.75186 16.16296 -7.49788
 3.34 3.60 -4.673 -4.660 -4.643 -4.620 -4.590  9.88260 16.36696 -7.29390
 3.34 3.80 -4.614 -4.603 -4.589 -4.567 -4.540 10.01330 16.57026 -7.09066
 3.34 4.00 -4.550 -4.542 -4.530 -4.510 -4.485 10.14395 16.77291 -6.88807
 3.34 4.20 -4.493 -4.485 -4.474 -4.454 -4.429 10.27136 16.97500 -6.68601
 3.34 4.40 -4.433 -4.425 -4.413 -4.396 -4.371 10.39632 17.17669 -6.48433
 3.34 4.60 -4.374 -4.366 -4.356 -4.338 -4.313 10.51829 17.37799 -6.28301
 3.34 4.80 -4.315 -4.308 -4.298 -4.280 -4.255 10.63695 17.57905 -6.08193
 3.34 5.00 -4.256 -4.248 -4.239 -4.221 -4.196 10.75274 17.77988 -5.88107
 3.34 5.20 -4.196 -4.189 -4.180 -4.162 -4.138 10.86550 17.98052 -5.68042
 3.34 5.40 -4.135 -4.128 -4.118 -4.102 -4.077 10.97611 18.18104 -5.47988
 3.34 5.60 -4.071 -4.065 -4.056 -4.039 -4.016 11.08465 18.38147 -5.27944
 3.34 5.80 -4.006 -4.000 -3.991 -3.975 -3.953 11.19170 18.58183 -5.07906
 3.34 6.00 -3.940 -3.934 -3.925 -3.911 -3.888 11.29732 18.78212 -4.87877
 3.34 6.25 -3.855 -3.850 -3.842 -3.827 -3.806 11.42767 19.03241 -4.62857
 3.34 6.50 -3.770 -3.764 -3.756 -3.742 -3.721 11.55666 19.28262 -4.37841
 3.34 6.75 -3.681 -3.677 -3.669 -3.656 -3.637 11.68463 19.53275 -4.12825
 3.34 7.00 -3.594 -3.589 -3.582 -3.570 -3.551 11.81171 19.78283 -3.87811
 3.34 7.25 -3.506 -3.501 -3.495 -3.483 -3.465 11.93807 20.03284 -3.62805
 3.34 7.50 -3.417 -3.413 -3.406 -3.396 -3.379 12.06371 20.28285 -3.37799
 3.34 7.75 -3.329 -3.325 -3.318 -3.308 -3.293 12.18870 20.53292 -3.12790
 3.34 8.00 -3.240 -3.236 -3.230 -3.220 -3.207 12.31302 20.78305 -2.87778
 3.36-2.00 -4.959 -4.950 -4.933 -4.905 -4.870  5.62603 10.49927-13.16172
 3.36-1.50 -4.982 -4.971 -4.951 -4.920 -4.882  6.05077 10.99930-12.66154
 3.36-1.00 -4.988 -4.974 -4.953 -4.918 -4.876  6.48558 11.49969-12.16134
 3.36-0.50 -4.994 -4.977 -4.953 -4.915 -4.870  6.90779 12.00043-11.66035
 3.36 0.00 -4.997 -4.979 -4.951 -4.911 -4.866  7.31576 12.50338-11.15758
 3.36 0.50 -4.978 -4.958 -4.930 -4.889 -4.842  7.71875 13.01157-10.64937
 3.36 1.00 -4.914 -4.893 -4.865 -4.823 -4.777  8.13162 13.53275-10.12819
 3.36 1.25 -4.863 -4.842 -4.814 -4.773 -4.727  8.34522 13.80130 -9.85962
 3.36 1.50 -4.805 -4.784 -4.756 -4.716 -4.671  8.55883 14.07372 -9.58720
 3.36 1.75 -4.743 -4.723 -4.696 -4.656 -4.613  8.76754 14.35054 -9.31044
 3.36 2.00 -4.686 -4.665 -4.638 -4.600 -4.557  8.97063 14.62737 -9.03367
 3.36 2.25 -4.630 -4.610 -4.585 -4.549 -4.507  9.16035 14.90241 -8.75855
 3.36 2.50 -4.582 -4.562 -4.537 -4.502 -4.463  9.34084 15.17551 -8.48532
 3.36 2.75 -4.533 -4.515 -4.491 -4.458 -4.419  9.51182 15.44454 -8.21641
 3.36 3.00 -4.486 -4.470 -4.448 -4.416 -4.378  9.67779 15.71029 -7.95078
 3.36 3.20 -4.446 -4.431 -4.409 -4.379 -4.344  9.80700 15.92031 -7.74074
 3.36 3.40 -4.404 -4.389 -4.370 -4.341 -4.308  9.93601 16.12867 -7.53234
 3.36 3.60 -4.356 -4.344 -4.326 -4.299 -4.267 10.06491 16.33542 -7.32553
 3.36 3.80 -4.304 -4.293 -4.278 -4.253 -4.224 10.19374 16.54099 -7.11992
 3.36 4.00 -4.247 -4.238 -4.225 -4.204 -4.177 10.32243 16.74546 -6.91542
 3.36 4.20 -4.194 -4.186 -4.174 -4.153 -4.127 10.45091 16.94901 -6.71195
 3.36 4.40 -4.138 -4.130 -4.118 -4.099 -4.074 10.57893 17.15190 -6.50912
 3.36 4.60 -4.082 -4.075 -4.064 -4.045 -4.020 10.70569 17.35417 -6.30684
 3.36 4.80 -4.026 -4.020 -4.009 -3.991 -3.967 10.82990 17.55602 -6.10494
 3.36 5.00 -3.969 -3.963 -3.952 -3.935 -3.910 10.95192 17.75747 -5.90344
 3.36 5.20 -3.911 -3.905 -3.895 -3.878 -3.854 11.07053 17.95855 -5.70229
 3.36 5.40 -3.852 -3.845 -3.837 -3.820 -3.797 11.18652 18.15945 -5.50137
 3.36 5.60 -3.789 -3.784 -3.775 -3.760 -3.737 11.29980 18.36021 -5.30066
 3.36 5.80 -3.726 -3.721 -3.713 -3.697 -3.675 11.41083 18.56087 -5.10009
 3.36 6.00 -3.661 -3.656 -3.648 -3.634 -3.612 11.51983 18.76140 -4.89963
 3.36 6.25 -3.577 -3.572 -3.566 -3.552 -3.532 11.65366 19.01188 -4.64918
 3.36 6.50 -3.492 -3.488 -3.481 -3.469 -3.450 11.78540 19.26221 -4.39881
 3.36 6.75 -3.405 -3.402 -3.396 -3.384 -3.365 11.91545 19.51242 -4.14849
 3.36 7.00 -3.319 -3.315 -3.309 -3.298 -3.281 12.04415 19.76260 -3.89825
 3.36 7.25 -3.231 -3.227 -3.222 -3.212 -3.196 12.17177 20.01278 -3.64821
 3.36 7.50 -3.144 -3.140 -3.135 -3.125 -3.111 12.29842 20.26293 -3.39816
 3.36 7.75 -3.056 -3.053 -3.047 -3.038 -3.025 12.42426 20.51301 -3.14805
 3.36 8.00 -2.968 -2.965 -2.961 -2.953 -2.941 12.54925 20.76305 -2.89791
 3.38-2.00 -4.817 -4.809 -4.793 -4.767 -4.734  5.80455 10.47929-13.18177
 3.38-1.50 -4.887 -4.877 -4.859 -4.831 -4.793  6.16820 10.97923-12.68173
 3.38-1.00 -4.918 -4.907 -4.887 -4.855 -4.814  6.56949 11.47943-12.18158
 3.38-0.50 -4.918 -4.905 -4.882 -4.845 -4.800  6.99392 11.97964-11.68131
 3.38 0.00 -4.900 -4.884 -4.858 -4.818 -4.769  7.41631 12.48073-11.18032
 3.38 0.50 -4.859 -4.840 -4.811 -4.768 -4.718  7.82653 12.98363-10.67737
 3.38 1.00 -4.774 -4.752 -4.722 -4.678 -4.628  8.23045 13.49248-10.16851
 3.38 1.25 -4.711 -4.689 -4.660 -4.615 -4.566  8.43450 13.75150 -9.90940
 3.38 1.50 -4.635 -4.613 -4.583 -4.540 -4.490  8.64068 14.01452 -9.64628
 3.38 1.75 -4.549 -4.528 -4.498 -4.456 -4.409  8.85238 14.28398 -9.37693
 3.38 2.00 -4.460 -4.438 -4.410 -4.370 -4.324  9.06408 14.55703 -9.10397
 3.38 2.25 -4.372 -4.352 -4.324 -4.286 -4.241  9.27201 14.83381 -8.82717
 3.38 2.50 -4.291 -4.272 -4.246 -4.210 -4.167  9.47523 15.11059 -8.55037
 3.38 2.75 -4.218 -4.200 -4.177 -4.142 -4.102  9.66540 15.38544 -8.27551
 3.38 3.00 -4.155 -4.138 -4.115 -4.083 -4.045  9.84628 15.65820 -8.00274
 3.38 3.20 -4.106 -4.090 -4.070 -4.040 -4.003  9.98344 15.87330 -7.78769
 3.38 3.40 -4.060 -4.047 -4.027 -3.999 -3.964 10.11715 16.08630 -7.57473
 3.38 3.60 -4.013 -4.002 -3.984 -3.957 -3.925 10.24728 16.29709 -7.36395
 3.38 3.80 -3.964 -3.955 -3.940 -3.915 -3.885 10.37578 16.50602 -7.15501
 3.38 4.00 -3.914 -3.906 -3.894 -3.872 -3.844 10.50338 16.71332 -6.94769
 3.38 4.20 -3.868 -3.860 -3.849 -3.829 -3.801 10.63066 16.91922 -6.74184
 3.38 4.40 -3.819 -3.812 -3.801 -3.783 -3.757 10.75745 17.12406 -6.53701
 3.38 4.60 -3.770 -3.763 -3.753 -3.735 -3.711 10.88391 17.32788 -6.33313
 3.38 4.80 -3.720 -3.714 -3.705 -3.688 -3.662 11.00988 17.53098 -6.12992
 3.38 5.00 -3.668 -3.662 -3.653 -3.636 -3.612 11.13513 17.73344 -5.92738
 3.38 5.20 -3.615 -3.609 -3.601 -3.585 -3.561 11.25815 17.93534 -5.72549
 3.38 5.40 -3.559 -3.554 -3.545 -3.530 -3.507 11.37913 18.13689 -5.52395
 3.38 5.60 -3.500 -3.496 -3.488 -3.474 -3.451 11.49765 18.33816 -5.32271
 3.38 5.80 -3.439 -3.436 -3.428 -3.414 -3.393 11.61346 18.53922 -5.12165
 3.38 6.00 -3.377 -3.373 -3.366 -3.352 -3.332 11.72689 18.74005 -4.92082
 3.38 6.25 -3.296 -3.292 -3.286 -3.273 -3.255 11.86534 18.99075 -4.67010
 3.38 6.50 -3.214 -3.209 -3.204 -3.193 -3.175 12.00087 19.24130 -4.41953
 3.38 6.75 -3.129 -3.125 -3.120 -3.109 -3.094 12.13381 19.49179 -4.16903
 3.38 7.00 -3.043 -3.039 -3.035 -3.025 -3.010 12.26482 19.74218 -3.91865
 3.38 7.25 -2.957 -2.954 -2.949 -2.940 -2.926 12.39432 19.99236 -3.66852
 3.38 7.50 -2.870 -2.867 -2.863 -2.854 -2.842 12.52244 20.24254 -3.41839
 3.38 7.75 -2.783 -2.781 -2.777 -2.769 -2.759 12.64945 20.49272 -3.16819
 3.38 8.00 -2.697 -2.695 -2.691 -2.684 -2.674 12.77525 20.74288 -2.91793
 3.40-2.00 -4.624 -4.616 -4.603 -4.580 -4.548  6.04532 10.45924-13.20176
 3.40-1.50 -4.726 -4.717 -4.702 -4.674 -4.640  6.37365 10.95918-12.70180
 3.40-1.00 -4.800 -4.791 -4.773 -4.743 -4.703  6.71875 11.45924-12.20169
 3.40-0.50 -4.835 -4.823 -4.802 -4.768 -4.724  7.09621 11.95933-11.70158
 3.40 0.00 -4.823 -4.809 -4.785 -4.746 -4.697  7.50474 12.45969-11.20121
 3.40 0.50 -4.767 -4.750 -4.724 -4.681 -4.628  7.92210 12.96080-10.70006
 3.40 1.00 -4.660 -4.641 -4.611 -4.566 -4.513  8.33264 13.46419-10.19675
 3.40 1.25 -4.584 -4.564 -4.535 -4.489 -4.435  8.53520 13.71797 -9.94298
 3.40 1.50 -4.492 -4.470 -4.440 -4.394 -4.342  8.73775 13.97396 -9.68698
 3.40 1.75 -4.389 -4.367 -4.337 -4.293 -4.242  8.94164 14.23398 -9.42697
 3.40 2.00 -4.276 -4.255 -4.226 -4.183 -4.134  9.14706 14.49817 -9.16279
 3.40 2.25 -4.162 -4.142 -4.115 -4.075 -4.028  9.35722 14.76853 -8.89238
 3.40 2.50 -4.050 -4.032 -4.007 -3.969 -3.924  9.56738 15.04218 -8.61870
 3.40 2.75 -3.946 -3.930 -3.906 -3.872 -3.830  9.77384 15.31911 -8.34180
 3.40 3.00 -3.853 -3.839 -3.817 -3.786 -3.747  9.97571 15.59605 -8.06490
 3.40 3.20 -3.786 -3.773 -3.754 -3.724 -3.688 10.12779 15.81576 -7.84519
 3.40 3.40 -3.727 -3.715 -3.698 -3.670 -3.636 10.27404 16.03391 -7.62704
 3.40 3.60 -3.672 -3.661 -3.647 -3.621 -3.589 10.41384 16.24989 -7.41107
 3.40 3.80 -3.619 -3.611 -3.597 -3.576 -3.546 10.54882 16.46333 -7.19766
 3.40 4.00 -3.569 -3.562 -3.552 -3.532 -3.504 10.68015 16.67468 -6.98632
 3.40 4.20 -3.526 -3.520 -3.509 -3.491 -3.464 10.80830 16.88387 -6.77708
 3.40 4.40 -3.481 -3.476 -3.467 -3.449 -3.424 10.93522 17.09153 -6.56938
 3.40 4.60 -3.438 -3.434 -3.424 -3.408 -3.385 11.06121 17.29775 -6.36315
 3.40 4.80 -3.397 -3.391 -3.382 -3.367 -3.344 11.18664 17.50291 -6.15801
 3.40 5.00 -3.351 -3.346 -3.338 -3.323 -3.300 11.31133 17.70706 -5.95390
 3.40 5.20 -3.305 -3.300 -3.293 -3.278 -3.256 11.43559 17.91032 -5.75066
 3.40 5.40 -3.255 -3.250 -3.243 -3.230 -3.209 11.55886 18.11296 -5.54804
 3.40 5.60 -3.201 -3.198 -3.191 -3.178 -3.158 11.68076 18.31502 -5.34603
 3.40 5.80 -3.146 -3.142 -3.135 -3.123 -3.104 11.80056 18.51670 -5.14441
 3.40 6.00 -3.088 -3.084 -3.078 -3.066 -3.048 11.91840 18.71800 -4.94310
 3.40 6.25 -3.011 -3.008 -3.002 -2.991 -2.975 12.06200 18.96918 -4.69174
 3.40 6.50 -2.932 -2.929 -2.924 -2.914 -2.898 12.20222 19.22011 -4.44069
 3.40 6.75 -2.851 -2.847 -2.843 -2.834 -2.819 12.33910 19.47093 -4.18988
 3.40 7.00 -2.767 -2.765 -2.761 -2.752 -2.739 12.47334 19.72156 -3.93930
 3.40 7.25 -2.683 -2.681 -2.676 -2.669 -2.657 12.60530 19.97190 -3.68904
 3.40 7.50 -2.599 -2.596 -2.592 -2.586 -2.575 12.73536 20.22220 -3.43878
 3.40 7.75 -2.514 -2.512 -2.508 -2.502 -2.492 12.86393 20.47247 -3.18849
 3.40 8.00 -2.430 -2.428 -2.424 -2.419 -2.410 12.99087 20.72272 -2.93817
 3.42-2.00 -4.429 -4.422 -4.411 -4.389 -4.361  6.27370 10.43917-13.22170
 3.42-1.50 -4.534 -4.526 -4.512 -4.487 -4.455  6.61045 10.93922-12.72170
 3.42-1.00 -4.630 -4.621 -4.604 -4.576 -4.539  6.93707 11.43933-12.22170
 3.42-0.50 -4.698 -4.686 -4.668 -4.635 -4.594  7.27068 11.93932-11.72170
 3.42 0.00 -4.718 -4.705 -4.684 -4.646 -4.599  7.62870 12.43949-11.22149
 3.42 0.50 -4.678 -4.663 -4.639 -4.597 -4.543  8.01870 12.93987-10.72102
 3.42 1.00 -4.568 -4.551 -4.524 -4.479 -4.422  8.42700 13.44122-10.21976
 3.42 1.25 -4.484 -4.467 -4.439 -4.392 -4.335  8.63116 13.69270 -9.96827
 3.42 1.50 -4.380 -4.362 -4.333 -4.288 -4.231  8.83531 13.94512 -9.71580
 3.42 1.75 -4.261 -4.243 -4.214 -4.170 -4.115  9.03805 14.19949 -9.46141
 3.42 2.00 -4.129 -4.110 -4.082 -4.038 -3.987  9.24080 14.45637 -9.20454
 3.42 2.25 -3.993 -3.975 -3.948 -3.908 -3.859  9.44488 14.71770 -8.94324
 3.42 2.50 -3.857 -3.839 -3.815 -3.776 -3.730  9.65031 14.98340 -8.67757
 3.42 2.75 -3.726 -3.711 -3.689 -3.655 -3.612  9.85906 15.25538 -8.40554
 3.42 3.00 -3.604 -3.591 -3.571 -3.540 -3.501 10.06781 15.52994 -8.13094
 3.42 3.20 -3.515 -3.503 -3.485 -3.457 -3.421 10.23174 15.75137 -7.90953
 3.42 3.40 -3.434 -3.424 -3.408 -3.383 -3.350 10.39245 15.97279 -7.68812
 3.42 3.60 -3.360 -3.352 -3.338 -3.316 -3.286 10.54758 16.19328 -7.46764
 3.42 3.80 -3.295 -3.288 -3.276 -3.256 -3.228 10.69530 16.41151 -7.24942
 3.42 4.00 -3.237 -3.230 -3.221 -3.203 -3.178 10.83734 16.62798 -7.03297
 3.42 4.20 -3.187 -3.181 -3.173 -3.156 -3.133 10.97301 16.84166 -6.81932
 3.42 4.40 -3.141 -3.136 -3.128 -3.113 -3.090 11.10503 17.05330 -6.60771
 3.42 4.60 -3.099 -3.095 -3.086 -3.073 -3.051 11.23341 17.26285 -6.39815
 3.42 4.80 -3.059 -3.055 -3.049 -3.035 -3.014 11.35979 17.47074 -6.19024
 3.42 5.00 -3.019 -3.015 -3.009 -2.996 -2.976 11.48473 17.67715 -5.98380
 3.42 5.20 -2.979 -2.976 -2.969 -2.957 -2.938 11.60900 17.88234 -5.77863
 3.42 5.40 -2.937 -2.933 -2.927 -2.915 -2.897 11.73234 18.08659 -5.57440
 3.42 5.60 -2.891 -2.887 -2.882 -2.870 -2.853 11.85489 18.28993 -5.37105
 3.42 5.80 -2.841 -2.839 -2.833 -2.822 -2.806 11.97649 18.49264 -5.16833
 3.42 6.00 -2.789 -2.786 -2.781 -2.771 -2.755 12.09691 18.69478 -4.96617
 3.42 6.25 -2.720 -2.717 -2.713 -2.702 -2.688 12.24469 18.94682 -4.71411
 3.42 6.50 -2.647 -2.644 -2.639 -2.631 -2.617 12.38952 19.19839 -4.46256
 3.42 6.75 -2.570 -2.567 -2.563 -2.555 -2.543 12.53073 19.44961 -4.21145
 3.42 7.00 -2.490 -2.489 -2.484 -2.477 -2.466 12.66885 19.70053 -3.96059
 3.42 7.25 -2.410 -2.408 -2.405 -2.398 -2.387 12.80399 19.95117 -3.70986
 3.42 7.50 -2.328 -2.326 -2.324 -2.317 -2.308 12.93666 20.20167 -3.45930
 3.42 7.75 -2.246 -2.244 -2.241 -2.236 -2.227 13.06736 20.45210 -3.20888
 3.42 8.00 -2.164 -2.162 -2.160 -2.155 -2.148 13.19590 20.70243 -2.95861
 3.44-2.00 -4.269 -4.263 -4.251 -4.231 -4.204  6.44716 10.41913-13.24177
 3.44-1.50 -4.351 -4.344 -4.331 -4.307 -4.277  6.81981 10.91918-12.74184
 3.44-1.00 -4.441 -4.432 -4.418 -4.391 -4.356  7.16465 11.41930-12.24169
 3.44-0.50 -4.519 -4.510 -4.493 -4.462 -4.422  7.49290 11.91924-11.74184
 3.44 0.00 -4.562 -4.550 -4.530 -4.494 -4.448  7.82007 12.41930-11.24162
 3.44 0.50 -4.549 -4.535 -4.512 -4.470 -4.417  8.16376 12.91944-10.74160
 3.44 1.00 -4.461 -4.446 -4.419 -4.374 -4.314  8.53643 13.41996-10.24094
 3.44 1.25 -4.382 -4.366 -4.340 -4.293 -4.233  8.73306 13.67056 -9.99036
 3.44 1.50 -4.280 -4.264 -4.238 -4.191 -4.132  8.93247 13.92158 -9.73945
 3.44 1.75 -4.155 -4.139 -4.113 -4.068 -4.010  9.13385 14.17339 -9.48761
 3.44 2.00 -4.014 -3.998 -3.973 -3.930 -3.875  9.33586 14.42635 -9.23456
 3.44 2.25 -3.862 -3.846 -3.822 -3.782 -3.730  9.53802 14.68162 -8.97932
 3.44 2.50 -3.705 -3.691 -3.668 -3.630 -3.582  9.74076 14.93977 -8.72125
 3.44 2.75 -3.552 -3.538 -3.517 -3.484 -3.441  9.94514 15.20286 -8.45815
 3.44 3.00 -3.403 -3.391 -3.373 -3.343 -3.305 10.15076 15.47041 -8.19058
 3.44 3.20 -3.293 -3.283 -3.267 -3.240 -3.205 10.31670 15.68931 -7.97171
 3.44 3.40 -3.191 -3.182 -3.168 -3.144 -3.112 10.48264 15.90921 -7.75182
 3.44 3.60 -3.097 -3.089 -3.077 -3.056 -3.028 10.64706 16.13011 -7.53090
 3.44 3.80 -3.012 -3.006 -2.996 -2.977 -2.952 10.80715 16.35126 -7.30971
 3.44 4.00 -2.936 -2.931 -2.923 -2.908 -2.885 10.96350 16.57241 -7.08852
 3.44 4.20 -2.872 -2.868 -2.860 -2.846 -2.826 11.11179 16.79062 -6.87031
 3.44 4.40 -2.816 -2.812 -2.806 -2.793 -2.773 11.25456 17.00688 -6.65407
 3.44 4.60 -2.767 -2.764 -2.757 -2.746 -2.727 11.39132 17.22090 -6.44008
 3.44 4.80 -2.724 -2.721 -2.715 -2.704 -2.687 11.52358 17.43266 -6.22833
 3.44 5.00 -2.684 -2.681 -2.675 -2.664 -2.648 11.65234 17.64247 -6.01854
 3.44 5.20 -2.647 -2.643 -2.638 -2.628 -2.612 11.77825 17.85033 -5.81066
 3.44 5.40 -2.608 -2.605 -2.601 -2.590 -2.575 11.90256 18.05683 -5.60415
 3.44 5.60 -2.568 -2.565 -2.561 -2.551 -2.536 12.02563 18.26205 -5.39900
 3.44 5.80 -2.526 -2.523 -2.519 -2.510 -2.496 12.14779 18.46635 -5.19479
 3.44 6.00 -2.480 -2.478 -2.474 -2.465 -2.451 12.26881 18.66978 -4.99140
 3.44 6.25 -2.419 -2.418 -2.413 -2.405 -2.392 12.41864 18.92302 -4.73803
 3.44 6.50 -2.354 -2.352 -2.348 -2.340 -2.329 12.56632 19.17551 -4.48545
 3.44 6.75 -2.285 -2.283 -2.279 -2.272 -2.261 12.71119 19.42749 -4.23357
 3.44 7.00 -2.211 -2.209 -2.206 -2.200 -2.190 12.85321 19.67897 -3.98213
 3.44 7.25 -2.135 -2.134 -2.130 -2.125 -2.116 12.99194 19.92994 -3.73101
 3.44 7.50 -2.058 -2.056 -2.054 -2.048 -2.040 13.12775 20.18070 -3.48017
 3.44 7.75 -1.980 -1.979 -1.975 -1.970 -1.963 13.26090 20.43136 -3.22957
 3.44 8.00 -1.901 -1.900 -1.897 -1.892 -1.886 13.39129 20.68188 -2.97923
 3.46-2.00 -4.156 -4.149 -4.139 -4.119 -4.094  6.55485 10.39915-13.26185
 3.46-1.50 -4.207 -4.201 -4.188 -4.165 -4.136  6.96965 10.89911-12.76195
 3.46-1.00 -4.271 -4.264 -4.248 -4.223 -4.189  7.35372 11.39915-12.26178
 3.46-0.50 -4.335 -4.326 -4.309 -4.280 -4.240  7.70714 11.89916-11.76170
 3.46 0.00 -4.377 -4.366 -4.347 -4.313 -4.268  8.03902 12.39933-11.26169
 3.46 0.50 -4.374 -4.361 -4.339 -4.299 -4.247  8.36361 12.89927-10.76170
 3.46 1.00 -4.307 -4.292 -4.266 -4.221 -4.162  8.69758 13.39950-10.26146
 3.46 1.25 -4.241 -4.226 -4.200 -4.153 -4.091  8.87341 13.64974-10.01117
 3.46 1.50 -4.153 -4.137 -4.110 -4.063 -4.001  9.05538 13.90015 -9.76070
 3.46 1.75 -4.037 -4.023 -3.996 -3.950 -3.888  9.24469 14.15094 -9.50996
 3.46 2.00 -3.901 -3.886 -3.862 -3.818 -3.759  9.43839 14.40226 -9.25877
 3.46 2.25 -3.746 -3.733 -3.709 -3.669 -3.615  9.63548 14.65454 -9.00650
 3.46 2.50 -3.582 -3.569 -3.549 -3.512 -3.462  9.83487 14.90822 -8.75276
 3.46 2.75 -3.413 -3.402 -3.383 -3.350 -3.306 10.03573 15.16472 -8.49622
 3.46 3.00 -3.246 -3.235 -3.219 -3.191 -3.151 10.23830 15.42455 -8.23635
 3.46 3.20 -3.117 -3.109 -3.094 -3.068 -3.033 10.40210 15.63643 -8.02445
 3.46 3.40 -2.995 -2.987 -2.974 -2.951 -2.921 10.56625 15.85112 -7.80976
 3.46 3.60 -2.881 -2.874 -2.863 -2.843 -2.816 10.73075 16.06983 -7.59106
 3.46 3.80 -2.776 -2.771 -2.761 -2.745 -2.721 10.89535 16.29046 -7.37045
 3.46 4.00 -2.681 -2.676 -2.668 -2.654 -2.634 11.05994 16.51108 -7.14985
 3.46 4.20 -2.598 -2.595 -2.588 -2.575 -2.556 11.21939 16.73170 -6.92925
 3.46 4.40 -2.525 -2.522 -2.516 -2.505 -2.489 11.37457 16.95229 -6.70869
 3.46 4.60 -2.462 -2.459 -2.454 -2.444 -2.428 11.52392 17.17139 -6.48961
 3.46 4.80 -2.408 -2.406 -2.401 -2.391 -2.377 11.66668 17.38745 -6.27353
 3.46 5.00 -2.360 -2.358 -2.353 -2.345 -2.331 11.80414 17.60141 -6.05953
 3.46 5.20 -2.319 -2.316 -2.312 -2.303 -2.290 11.93606 17.81292 -5.84802
 3.46 5.40 -2.280 -2.278 -2.273 -2.265 -2.253 12.06468 18.02262 -5.63833
 3.46 5.60 -2.241 -2.240 -2.235 -2.227 -2.215 12.19019 18.23050 -5.43046
 3.46 5.80 -2.203 -2.201 -2.197 -2.190 -2.178 12.31379 18.43700 -5.22396
 3.46 6.00 -2.163 -2.161 -2.158 -2.151 -2.140 12.43569 18.64227 -5.01873
 3.46 6.25 -2.110 -2.109 -2.105 -2.099 -2.088 12.58665 18.89743 -4.76365
 3.46 6.50 -2.054 -2.052 -2.049 -2.043 -2.033 12.73560 19.15137 -4.50976
 3.46 6.75 -1.993 -1.991 -1.988 -1.982 -1.973 12.88265 19.40429 -4.25677
 3.46 7.00 -1.928 -1.926 -1.923 -1.918 -1.908 13.02735 19.65648 -4.00450
 3.46 7.25 -1.858 -1.857 -1.854 -1.849 -1.841 13.16906 19.90805 -3.75281
 3.46 7.50 -1.787 -1.786 -1.783 -1.779 -1.770 13.30792 20.15927 -3.50155
 3.46 7.75 -1.714 -1.712 -1.710 -1.706 -1.699 13.44387 20.41029 -3.25060
 3.46 8.00 -1.640 -1.638 -1.637 -1.632 -1.626 13.57692 20.66105 -3.00000
 3.48-2.00 -4.087 -4.081 -4.070 -4.052 -4.028  6.60746 10.37876-13.28216
 3.48-1.50 -4.108 -4.102 -4.089 -4.068 -4.040  7.05956 10.87875-12.78225
 3.48-1.00 -4.142 -4.135 -4.120 -4.095 -4.062  7.48401 11.37876-12.28208
 3.48-0.50 -4.178 -4.168 -4.153 -4.123 -4.085  7.87835 11.87881-11.78225
 3.48 0.00 -4.198 -4.188 -4.168 -4.135 -4.089  8.24080 12.37894-11.28208
 3.48 0.50 -4.183 -4.171 -4.149 -4.111 -4.059  8.57761 12.87892-10.78199
 3.48 1.00 -4.118 -4.104 -4.079 -4.035 -3.977  8.90184 13.37912-10.28191
 3.48 1.25 -4.059 -4.045 -4.018 -3.973 -3.911  9.06493 13.62920-10.03185
 3.48 1.50 -3.980 -3.965 -3.939 -3.892 -3.830  9.22943 13.87927 -9.78173
 3.48 1.75 -3.878 -3.864 -3.838 -3.792 -3.729  9.39965 14.12961 -9.53137
 3.48 2.00 -3.756 -3.741 -3.717 -3.673 -3.612  9.57507 14.38021 -9.28075
 3.48 2.25 -3.613 -3.599 -3.576 -3.535 -3.479  9.75751 14.63120 -9.02973
 3.48 2.50 -3.455 -3.444 -3.422 -3.385 -3.333  9.94522 14.88281 -8.77806
 3.48 2.75 -3.287 -3.276 -3.258 -3.225 -3.179 10.13771 15.13579 -8.52513
 3.48 3.00 -3.114 -3.104 -3.089 -3.060 -3.020 10.33385 15.39058 -8.27043
 3.48 3.20 -2.975 -2.967 -2.953 -2.927 -2.891 10.49287 15.59678 -8.06422
 3.48 3.40 -2.839 -2.832 -2.819 -2.798 -2.766 10.65358 15.80540 -7.85556
 3.48 3.60 -2.708 -2.702 -2.692 -2.673 -2.646 10.81656 16.01735 -7.64362
 3.48 3.80 -2.585 -2.579 -2.570 -2.554 -2.531 10.98057 16.23270 -7.42832
 3.48 4.00 -2.469 -2.465 -2.458 -2.444 -2.424 11.14458 16.45056 -7.21049
 3.48 4.20 -2.367 -2.364 -2.358 -2.346 -2.329 11.30799 16.67172 -6.98925
 3.48 4.40 -2.275 -2.273 -2.267 -2.258 -2.242 11.47052 16.89288 -6.76800
 3.48 4.60 -2.195 -2.193 -2.188 -2.179 -2.166 11.63021 17.11378 -6.54706
 3.48 4.80 -2.125 -2.123 -2.119 -2.111 -2.098 11.78420 17.33374 -6.32716
 3.48 5.00 -2.064 -2.062 -2.058 -2.050 -2.039 11.93349 17.55279 -6.10824
 3.48 5.20 -2.013 -2.010 -2.007 -2.000 -1.988 12.07561 17.76851 -5.89243
 3.48 5.40 -1.965 -1.964 -1.961 -1.954 -1.943 12.21274 17.98212 -5.67873
 3.48 5.60 -1.924 -1.922 -1.919 -1.912 -1.902 12.34469 18.19356 -5.46730
 3.48 5.80 -1.885 -1.882 -1.880 -1.873 -1.863 12.47286 18.40312 -5.25781
 3.48 6.00 -1.846 -1.845 -1.842 -1.835 -1.826 12.59792 18.61098 -5.05002
 3.48 6.25 -1.799 -1.796 -1.793 -1.789 -1.779 12.75099 18.86861 -4.79234
 3.48 6.50 -1.749 -1.747 -1.744 -1.738 -1.730 12.90130 19.12450 -4.53641
 3.48 6.75 -1.696 -1.694 -1.691 -1.686 -1.678 13.04972 19.37901 -4.28191
 3.48 7.00 -1.638 -1.638 -1.635 -1.630 -1.622 13.19590 19.63246 -4.02849
 3.48 7.25 -1.578 -1.576 -1.574 -1.569 -1.562 13.33988 19.88507 -3.77597
 3.48 7.50 -1.514 -1.513 -1.510 -1.506 -1.499 13.48130 20.13704 -3.52404
 3.48 7.75 -1.447 -1.447 -1.444 -1.440 -1.434 13.61968 20.38857 -3.27248
 3.48 8.00 -1.379 -1.378 -1.376 -1.372 -1.366 13.75519 20.63959 -3.02136
 3.50-2.00 -4.054 -4.049 -4.041 -4.026 -4.007  6.61574 10.35908-13.30199
 3.50-1.50 -4.051 -4.044 -4.034 -4.015 -3.988  7.09656 10.85902-12.80189
 3.50-1.00 -4.056 -4.049 -4.035 -4.011 -3.980  7.55618 11.35908-12.30181
 3.50-0.50 -4.063 -4.054 -4.037 -4.010 -3.971  7.98780 11.85914-11.80189
 3.50 0.00 -4.052 -4.042 -4.023 -3.990 -3.945  8.38952 12.35927-11.30173
 3.50 0.50 -4.009 -3.997 -3.975 -3.937 -3.885  8.75869 12.85920-10.80189
 3.50 1.00 -3.923 -3.910 -3.886 -3.843 -3.785  9.10003 13.35927-10.30164
 3.50 1.25 -3.860 -3.846 -3.822 -3.778 -3.718  9.26271 13.60931-10.05163
 3.50 1.50 -3.783 -3.769 -3.743 -3.699 -3.638  9.42488 13.85938 -9.80162
 3.50 1.75 -3.687 -3.673 -3.648 -3.603 -3.543  9.58677 14.10955 -9.55144
 3.50 2.00 -3.575 -3.561 -3.537 -3.495 -3.435  9.74865 14.35984 -9.30112
 3.50 2.25 -3.445 -3.432 -3.410 -3.368 -3.313  9.91536 14.61028 -9.05067
 3.50 2.50 -3.301 -3.289 -3.269 -3.232 -3.181 10.08636 14.86100 -8.79997
 3.50 2.75 -3.145 -3.134 -3.115 -3.082 -3.036 10.26372 15.11240 -8.54859
 3.50 3.00 -2.979 -2.970 -2.954 -2.924 -2.884 10.44654 15.36474 -8.29628
 3.50 3.20 -2.842 -2.833 -2.819 -2.793 -2.758 10.59681 15.56777 -8.09326
 3.50 3.40 -2.704 -2.696 -2.684 -2.661 -2.630 10.75010 15.77226 -7.88876
 3.50 3.60 -2.565 -2.559 -2.548 -2.529 -2.503 10.90656 15.97878 -7.68222
 3.50 3.80 -2.430 -2.424 -2.416 -2.399 -2.377 11.06544 16.18829 -7.47270
 3.50 4.00 -2.299 -2.295 -2.287 -2.274 -2.255 11.22634 16.40054 -7.26043
 3.50 4.20 -2.180 -2.176 -2.170 -2.158 -2.142 11.38976 16.61720 -7.04371
 3.50 4.40 -2.069 -2.066 -2.061 -2.051 -2.037 11.55317 16.83576 -6.82512
 3.50 4.60 -1.969 -1.967 -1.963 -1.954 -1.941 11.71595 17.05652 -6.60439
 3.50 4.80 -1.882 -1.880 -1.877 -1.868 -1.858 11.87653 17.27804 -6.38293
 3.50 5.00 -1.804 -1.803 -1.799 -1.793 -1.781 12.03503 17.49955 -6.16147
 3.50 5.20 -1.738 -1.737 -1.733 -1.727 -1.717 12.18733 17.71896 -5.94204
 3.50 5.40 -1.679 -1.678 -1.674 -1.668 -1.660 12.33461 17.93669 -5.72427
 3.50 5.60 -1.628 -1.627 -1.623 -1.618 -1.609 12.47604 18.15227 -5.50869
 3.50 5.80 -1.582 -1.581 -1.577 -1.572 -1.563 12.61192 18.36540 -5.29559
 3.50 6.00 -1.540 -1.539 -1.536 -1.531 -1.523 12.74320 18.57646 -5.08455
 3.50 6.25 -1.492 -1.490 -1.488 -1.483 -1.475 12.90156 18.83733 -4.82356
 3.50 6.50 -1.444 -1.444 -1.441 -1.436 -1.428 13.05538 19.09587 -4.56495
 3.50 6.75 -1.397 -1.396 -1.394 -1.389 -1.382 13.20568 19.35254 -4.30837
 3.50 7.00 -1.347 -1.346 -1.344 -1.339 -1.332 13.35315 19.60767 -4.05330
 3.50 7.25 -1.294 -1.293 -1.291 -1.287 -1.280 13.49860 19.86141 -3.79945
 3.50 7.50 -1.239 -1.238 -1.235 -1.232 -1.225 13.64157 20.11428 -3.54653
 3.50 7.75 -1.180 -1.179 -1.177 -1.173 -1.167 13.78181 20.36660 -3.29426
 3.50 8.00 -1.119 -1.118 -1.117 -1.112 -1.106 13.91939 20.61826 -3.04273
 3.52-2.00 -4.040 -4.036 -4.030 -4.019 -4.006  6.60595 10.33885-13.32203
 3.52-1.50 -4.027 -4.023 -4.014 -3.999 -3.978  7.09864 10.83891-12.82189
 3.52-1.00 -4.011 -4.005 -3.992 -3.971 -3.944  7.58331 11.33905-12.32194
 3.52-0.50 -3.990 -3.982 -3.966 -3.940 -3.904  8.04883 11.83904-11.82189
 3.52 0.00 -3.951 -3.941 -3.923 -3.891 -3.847  8.48714 12.33905-11.32185
 3.52 0.50 -3.874 -3.862 -3.841 -3.803 -3.752  8.89520 12.83916-10.82189
 3.52 1.00 -3.754 -3.740 -3.717 -3.675 -3.617  9.27068 13.33925-10.32175
 3.52 1.25 -3.678 -3.664 -3.640 -3.596 -3.537  9.44635 13.58927-10.07168
 3.52 1.50 -3.590 -3.576 -3.551 -3.507 -3.448  9.61616 13.83929 -9.82160
 3.52 1.75 -3.490 -3.476 -3.452 -3.408 -3.349  9.78020 14.08935 -9.57154
 3.52 2.00 -3.378 -3.365 -3.341 -3.299 -3.243  9.94236 14.33945 -9.32148
 3.52 2.25 -3.253 -3.241 -3.219 -3.180 -3.127 10.10312 14.58967 -9.07132
 3.52 2.50 -3.120 -3.109 -3.089 -3.053 -3.003 10.26387 14.84004 -8.82102
 3.52 2.75 -2.976 -2.965 -2.947 -2.914 -2.869 10.42787 15.09072 -8.57036
 3.52 3.00 -2.824 -2.814 -2.799 -2.770 -2.729 10.59517 15.34183 -8.31921
 3.52 3.20 -2.695 -2.688 -2.673 -2.648 -2.612 10.73323 15.54326 -8.11777
 3.52 3.40 -2.563 -2.556 -2.544 -2.522 -2.490 10.87477 15.74545 -7.91556
 3.52 3.60 -2.429 -2.423 -2.411 -2.392 -2.365 11.02007 15.94870 -7.71230
 3.52 3.80 -2.293 -2.287 -2.278 -2.261 -2.239 11.16917 16.15387 -7.50711
 3.52 4.00 -2.157 -2.152 -2.145 -2.132 -2.112 11.32181 16.36097 -7.29999
 3.52 4.20 -2.027 -2.023 -2.017 -2.006 -1.989 11.47867 16.57152 -7.08945
 3.52 4.40 -1.901 -1.898 -1.893 -1.883 -1.870 11.63760 16.78493 -6.87605
 3.52 4.60 -1.785 -1.783 -1.779 -1.770 -1.758 11.79891 17.00234 -6.65866
 3.52 4.80 -1.681 -1.678 -1.674 -1.667 -1.656 11.96105 17.22213 -6.43888
 3.52 5.00 -1.584 -1.582 -1.579 -1.572 -1.562 12.12320 17.44264 -6.21839
 3.52 5.20 -1.501 -1.500 -1.497 -1.490 -1.482 12.28203 17.66363 -5.99741
 3.52 5.40 -1.427 -1.426 -1.423 -1.418 -1.409 12.43774 17.88461 -5.77644
 3.52 5.60 -1.363 -1.361 -1.359 -1.354 -1.345 12.58890 18.10434 -5.55669
 3.52 5.80 -1.306 -1.305 -1.302 -1.298 -1.289 12.73405 18.32132 -5.33968
 3.52 6.00 -1.256 -1.255 -1.253 -1.247 -1.240 12.87408 18.53631 -5.12465
 3.52 6.25 -1.201 -1.200 -1.197 -1.193 -1.186 13.04102 18.80152 -4.85952
 3.52 6.50 -1.151 -1.150 -1.148 -1.143 -1.137 13.20140 19.06371 -4.59739
 3.52 6.75 -1.105 -1.103 -1.102 -1.097 -1.090 13.35613 19.32307 -4.33795
 3.52 7.00 -1.059 -1.058 -1.056 -1.052 -1.046 13.50664 19.58035 -4.08061
 3.52 7.25 -1.013 -1.012 -1.009 -1.005 -0.999 13.65396 19.83597 -3.82512
 3.52 7.50 -0.965 -0.962 -0.961 -0.956 -0.951 13.79824 20.09026 -3.57090
 3.52 7.75 -0.913 -0.912 -0.910 -0.905 -0.900 13.93990 20.34359 -3.31751
 3.52 8.00 -0.860 -0.859 -0.857 -0.853 -0.847 14.07882 20.59583 -3.06510
 3.54-2.00 -4.015 -4.012 -4.009 -4.002 -3.992  6.60260 10.31890-13.34199
 3.54-1.50 -4.012 -4.009 -4.003 -3.992 -3.979  7.08955 10.81889-12.84194
 3.54-1.00 -3.994 -3.989 -3.980 -3.964 -3.944  7.58127 11.31890-12.34199
 3.54-0.50 -3.957 -3.951 -3.938 -3.916 -3.885  8.06781 11.81895-11.84194
 3.54 0.00 -3.894 -3.884 -3.867 -3.838 -3.797  8.53782 12.31911-11.34189
 3.54 0.50 -3.786 -3.774 -3.754 -3.717 -3.668  8.98127 12.81908-10.84194
 3.54 1.00 -3.628 -3.615 -3.592 -3.551 -3.495  9.39445 13.31911-10.34180
 3.54 1.25 -3.533 -3.521 -3.497 -3.454 -3.397  9.58858 13.56916-10.09172
 3.54 1.50 -3.429 -3.415 -3.391 -3.347 -3.288  9.77466 13.81921 -9.84164
 3.54 1.75 -3.315 -3.302 -3.277 -3.235 -3.177  9.95226 14.06927 -9.59162
 3.54 2.00 -3.192 -3.180 -3.156 -3.115 -3.061 10.12353 14.31931 -9.34161
 3.54 2.25 -3.063 -3.051 -3.030 -2.991 -2.940 10.28877 14.56943 -9.09151
 3.54 2.50 -2.928 -2.918 -2.898 -2.864 -2.815 10.45117 14.81961 -8.84134
 3.54 2.75 -2.789 -2.779 -2.761 -2.730 -2.687 10.61112 15.06989 -8.59105
 3.54 3.00 -2.645 -2.636 -2.621 -2.593 -2.554 10.77107 15.32036 -8.34056
 3.54 3.20 -2.526 -2.518 -2.504 -2.478 -2.444 10.90061 15.52106 -8.13986
 3.54 3.40 -2.404 -2.397 -2.385 -2.362 -2.331 11.03177 15.72217 -7.93874
 3.54 3.60 -2.278 -2.272 -2.261 -2.241 -2.214 11.16532 15.92381 -7.73711
 3.54 3.80 -2.149 -2.144 -2.135 -2.118 -2.094 11.30260 16.12646 -7.53445
 3.54 4.00 -2.018 -2.014 -2.006 -1.993 -1.972 11.44326 16.33021 -7.33068
 3.54 4.20 -1.888 -1.885 -1.878 -1.866 -1.849 11.58841 16.53614 -7.12473
 3.54 4.40 -1.759 -1.756 -1.750 -1.740 -1.726 11.73742 16.74444 -6.91640
 3.54 4.60 -1.634 -1.631 -1.627 -1.618 -1.605 11.89138 16.95593 -6.70492
 3.54 4.80 -1.515 -1.513 -1.509 -1.502 -1.490 12.04850 17.17079 -6.49009
 3.54 5.00 -1.403 -1.401 -1.398 -1.391 -1.382 12.20710 17.38828 -6.27262
 3.54 5.20 -1.303 -1.302 -1.299 -1.293 -1.284 12.36690 17.60945 -6.05143
 3.54 5.40 -1.213 -1.211 -1.209 -1.204 -1.195 12.52670 17.83063 -5.83025
 3.54 5.60 -1.132 -1.132 -1.129 -1.124 -1.116 12.68456 18.05156 -5.60931
 3.54 5.80 -1.063 -1.062 -1.059 -1.055 -1.047 12.83754 18.27161 -5.38927
 3.54 6.00 -1.001 -1.000 -0.997 -0.993 -0.986 12.98659 18.49080 -5.17012
 3.54 6.25 -0.934 -0.933 -0.931 -0.927 -0.920 13.16401 18.76051 -4.90040
 3.54 6.50 -0.878 -0.877 -0.873 -0.870 -0.863 13.33365 19.02695 -4.63395
 3.54 6.75 -0.826 -0.826 -0.824 -0.819 -0.813 13.49541 19.28999 -4.37091
 3.54 7.00 -0.780 -0.779 -0.777 -0.773 -0.767 13.65118 19.55035 -4.11059
 3.54 7.25 -0.736 -0.735 -0.733 -0.729 -0.722 13.80190 19.80832 -3.85276
 3.54 7.50 -0.692 -0.691 -0.689 -0.685 -0.679 13.94851 20.06446 -3.59671
 3.54 7.75 -0.647 -0.646 -0.645 -0.641 -0.634 14.09198 20.31925 -3.34188
 3.54 8.00 -0.601 -0.600 -0.598 -0.594 -0.588 14.23198 20.57252 -3.08847
 3.56-2.00 -3.943 -3.941 -3.938 -3.932 -3.925  6.65118 10.29885-13.36211
 3.56-1.50 -3.976 -3.973 -3.969 -3.962 -3.951  7.09934 10.79886-12.86201
 3.56-1.00 -3.976 -3.972 -3.966 -3.956 -3.942  7.57588 11.29885-12.36211
 3.56-0.50 -3.947 -3.942 -3.932 -3.916 -3.894  8.06408 11.79886-11.86201
 3.56 0.00 -3.877 -3.870 -3.855 -3.831 -3.799  8.55121 12.29885-11.36201
 3.56 0.50 -3.747 -3.737 -3.718 -3.685 -3.641  9.02407 12.79893-10.86201
 3.56 1.00 -3.553 -3.542 -3.519 -3.480 -3.428  9.47144 13.29907-10.36191
 3.56 1.25 -3.440 -3.426 -3.404 -3.363 -3.307  9.68383 13.54907-10.11196
 3.56 1.50 -3.313 -3.300 -3.276 -3.234 -3.178  9.88829 13.79907 -9.86201
 3.56 1.75 -3.181 -3.168 -3.145 -3.104 -3.048 10.08426 14.04918 -9.61191
 3.56 2.00 -3.043 -3.030 -3.007 -2.967 -2.912 10.27207 14.29929 -9.36181
 3.56 2.25 -2.900 -2.888 -2.867 -2.829 -2.779 10.45124 14.54928 -9.11175
 3.56 2.50 -2.755 -2.745 -2.725 -2.691 -2.643 10.62366 14.79927 -8.86170
 3.56 2.75 -2.610 -2.601 -2.583 -2.552 -2.510 10.78956 15.04943 -8.61151
 3.56 3.00 -2.464 -2.456 -2.441 -2.412 -2.375 10.95207 15.29973 -8.36121
 3.56 3.20 -2.347 -2.339 -2.326 -2.300 -2.266 11.07960 15.50007 -8.16090
 3.56 3.40 -2.228 -2.222 -2.210 -2.188 -2.156 11.20714 15.70059 -7.96042
 3.56 3.60 -2.109 -2.103 -2.092 -2.072 -2.044 11.33506 15.90138 -7.75966
 3.56 3.80 -1.987 -1.982 -1.973 -1.955 -1.931 11.46427 16.10274 -7.55827
 3.56 4.00 -1.863 -1.859 -1.852 -1.837 -1.816 11.59472 16.30471 -7.35625
 3.56 4.20 -1.740 -1.735 -1.729 -1.716 -1.698 11.72863 16.50783 -7.15311
 3.56 4.40 -1.614 -1.611 -1.605 -1.595 -1.579 11.86585 16.71248 -6.94847
 3.56 4.60 -1.490 -1.487 -1.483 -1.474 -1.460 12.00719 16.91921 -6.74175
 3.56 4.80 -1.368 -1.365 -1.362 -1.354 -1.342 12.15311 17.12895 -6.53204
 3.56 5.00 -1.248 -1.247 -1.243 -1.237 -1.226 12.30298 17.34144 -6.31957
 3.56 5.20 -1.138 -1.135 -1.132 -1.127 -1.117 12.45910 17.55831 -6.10268
 3.56 5.40 -1.033 -1.031 -1.028 -1.023 -1.015 12.61537 17.77702 -5.88396
 3.56 5.60 -0.938 -0.936 -0.934 -0.929 -0.921 12.77176 17.99780 -5.66317
 3.56 5.80 -0.854 -0.852 -0.850 -0.845 -0.838 12.92817 18.21927 -5.44168
 3.56 6.00 -0.778 -0.776 -0.774 -0.770 -0.763 13.08458 18.44075 -5.22019
 3.56 6.25 -0.697 -0.696 -0.694 -0.689 -0.683 13.27123 18.71465 -4.94631
 3.56 6.50 -0.627 -0.627 -0.625 -0.620 -0.614 13.45087 18.98588 -4.67510
 3.56 6.75 -0.569 -0.567 -0.566 -0.561 -0.556 13.62149 19.25301 -4.40795
 3.56 7.00 -0.518 -0.516 -0.514 -0.510 -0.504 13.78476 19.51693 -4.14400
 3.56 7.25 -0.471 -0.470 -0.468 -0.464 -0.458 13.94101 19.77775 -3.88318
 3.56 7.50 -0.428 -0.427 -0.425 -0.421 -0.415 14.09167 20.03623 -3.62470
 3.56 7.75 -0.387 -0.386 -0.383 -0.380 -0.373 14.23796 20.29297 -3.36795
 3.56 8.00 -0.345 -0.345 -0.343 -0.338 -0.332 14.37949 20.54778 -3.11312
 3.58-2.00 -3.781 -3.780 -3.776 -3.773 -3.766  6.80889 10.27875-13.38216
 3.58-1.50 -3.873 -3.872 -3.868 -3.862 -3.854  7.18469 10.77880-12.88207
 3.58-1.00 -3.923 -3.920 -3.916 -3.908 -3.897  7.60617 11.27898-12.38206
 3.58-0.50 -3.925 -3.921 -3.914 -3.903 -3.887  8.06670 11.77887-11.88207
 3.58 0.00 -3.873 -3.867 -3.858 -3.839 -3.816  8.54851 12.27898-11.38206
 3.58 0.50 -3.747 -3.738 -3.723 -3.697 -3.662  9.03383 12.77888-10.88207
 3.58 1.00 -3.532 -3.521 -3.502 -3.468 -3.422  9.50813 13.27898-10.38206
 3.58 1.25 -3.399 -3.388 -3.366 -3.330 -3.281  9.73642 13.52900-10.13206
 3.58 1.50 -3.252 -3.240 -3.218 -3.179 -3.127  9.95790 13.77902 -9.88207
 3.58 1.75 -3.100 -3.087 -3.064 -3.026 -2.974 10.17143 14.02912 -9.63196
 3.58 2.00 -2.940 -2.928 -2.906 -2.867 -2.816 10.37694 14.27921 -9.38185
 3.58 2.25 -2.780 -2.768 -2.748 -2.711 -2.662 10.57384 14.52919 -9.13179
 3.58 2.50 -2.619 -2.609 -2.589 -2.556 -2.509 10.76245 14.77916 -8.88173
 3.58 2.75 -2.461 -2.451 -2.434 -2.404 -2.361 10.94233 15.02926 -8.63165
 3.58 3.00 -2.306 -2.296 -2.281 -2.253 -2.214 11.11528 15.27944 -8.38153
 3.58 3.20 -2.182 -2.174 -2.160 -2.135 -2.101 11.24856 15.47962 -8.18140
 3.58 3.40 -2.061 -2.053 -2.041 -2.018 -1.987 11.37947 15.67987 -7.98120
 3.58 3.60 -1.940 -1.933 -1.923 -1.902 -1.875 11.50767 15.88025 -7.78083
 3.58 3.80 -1.819 -1.813 -1.804 -1.786 -1.762 11.63491 16.08094 -7.58006
 3.58 4.00 -1.698 -1.694 -1.686 -1.671 -1.648 11.76215 16.28194 -7.37893
 3.58 4.20 -1.578 -1.575 -1.567 -1.554 -1.535 11.89012 16.48359 -7.17728
 3.58 4.40 -1.457 -1.454 -1.448 -1.437 -1.420 12.01904 16.68613 -6.97478
 3.58 4.60 -1.336 -1.334 -1.329 -1.319 -1.304 12.14998 16.88989 -6.77110
 3.58 4.80 -1.217 -1.214 -1.210 -1.201 -1.189 12.28476 17.09572 -6.56531
 3.58 5.00 -1.097 -1.096 -1.092 -1.085 -1.074 12.42292 17.30363 -6.35744
 3.58 5.20 -0.983 -0.981 -0.978 -0.971 -0.961 12.56655 17.51509 -6.14591
 3.58 5.40 -0.872 -0.870 -0.868 -0.862 -0.853 12.71389 17.72939 -5.93156
 3.58 5.60 -0.768 -0.766 -0.764 -0.758 -0.750 12.86620 17.94777 -5.71319
 3.58 5.80 -0.672 -0.671 -0.668 -0.663 -0.656 13.02071 18.16822 -5.49279
 3.58 6.00 -0.584 -0.583 -0.581 -0.576 -0.569 13.17522 18.38881 -5.27221
 3.58 6.25 -0.488 -0.487 -0.484 -0.480 -0.474 13.36613 18.66464 -4.99639
 3.58 6.50 -0.405 -0.403 -0.401 -0.398 -0.391 13.55413 18.94047 -4.72056
 3.58 6.75 -0.335 -0.334 -0.331 -0.327 -0.322 13.73324 19.21184 -4.44914
 3.58 7.00 -0.275 -0.273 -0.271 -0.268 -0.262 13.90499 19.48001 -4.18092
 3.58 7.25 -0.222 -0.221 -0.219 -0.215 -0.209 14.06836 19.74449 -3.91651
 3.58 7.50 -0.177 -0.176 -0.174 -0.169 -0.164 14.22479 20.00604 -3.65502
 3.58 7.75 -0.135 -0.134 -0.132 -0.128 -0.122 14.37531 20.26515 -3.39587
 3.58 8.00 -0.097 -0.095 -0.094 -0.090 -0.083 14.51956 20.52166 -3.13924
 3.60-2.00 -3.539 -3.537 -3.535 -3.530 -3.523  7.06595 10.25864-13.40230
 3.60-1.50 -3.681 -3.679 -3.675 -3.670 -3.662  7.38417 10.75876-12.90205
 3.60-1.00 -3.789 -3.786 -3.783 -3.776 -3.766  7.73304 11.25888-12.40209
 3.60-0.50 -3.850 -3.847 -3.842 -3.833 -3.820  8.12548 11.75884-11.90205
 3.60 0.00 -3.845 -3.840 -3.833 -3.819 -3.801  8.56455 12.25888-11.40209
 3.60 0.50 -3.750 -3.743 -3.732 -3.713 -3.686  9.03543 12.75884-10.90205
 3.60 1.00 -3.545 -3.536 -3.521 -3.494 -3.458  9.51706 13.25888-10.40209
 3.60 1.25 -3.405 -3.395 -3.378 -3.347 -3.307  9.75538 13.50889-10.15207
 3.60 1.50 -3.243 -3.233 -3.214 -3.181 -3.138  9.99074 13.75891 -9.90205
 3.60 1.75 -3.071 -3.061 -3.042 -3.007 -2.961 10.21936 14.00901 -9.65202
 3.60 2.00 -2.891 -2.879 -2.860 -2.826 -2.779 10.44138 14.25912 -9.40198
 3.60 2.25 -2.711 -2.700 -2.681 -2.647 -2.602 10.65526 14.50909 -9.15184
 3.60 2.50 -2.530 -2.520 -2.501 -2.469 -2.424 10.86106 14.75906 -8.90170
 3.60 2.75 -2.355 -2.345 -2.328 -2.298 -2.257 11.05820 15.00921 -8.65168
 3.60 3.00 -2.183 -2.174 -2.158 -2.130 -2.093 11.24699 15.25936 -8.40165
 3.60 3.20 -2.049 -2.041 -2.027 -2.002 -1.967 11.39152 15.45945 -8.20157
 3.60 3.40 -1.918 -1.911 -1.898 -1.875 -1.843 11.53156 15.65955 -8.00144
 3.60 3.60 -1.791 -1.784 -1.773 -1.752 -1.722 11.66678 15.85973 -7.80124
 3.60 3.80 -1.665 -1.659 -1.649 -1.631 -1.605 11.79875 16.06016 -7.60087
 3.60 4.00 -1.542 -1.537 -1.528 -1.512 -1.488 11.92829 16.26079 -7.40034
 3.60 4.20 -1.419 -1.415 -1.408 -1.394 -1.372 12.05528 16.46164 -7.19946
 3.60 4.40 -1.299 -1.295 -1.289 -1.276 -1.258 12.18227 16.66292 -6.99809
 3.60 4.60 -1.179 -1.176 -1.171 -1.160 -1.143 12.30948 16.86486 -6.79607
 3.60 4.80 -1.060 -1.058 -1.053 -1.043 -1.029 12.43761 17.06814 -6.59278
 3.60 5.00 -0.942 -0.941 -0.936 -0.929 -0.916 12.56667 17.27277 -6.38817
 3.60 5.20 -0.827 -0.826 -0.822 -0.815 -0.804 12.69968 17.47992 -6.18105
 3.60 5.40 -0.715 -0.714 -0.711 -0.704 -0.694 12.83612 17.68968 -5.97134
 3.60 5.60 -0.607 -0.606 -0.603 -0.598 -0.589 12.97733 17.90295 -5.75809
 3.60 5.80 -0.506 -0.504 -0.502 -0.497 -0.488 13.12284 18.11948 -5.54156
 3.60 6.00 -0.410 -0.409 -0.407 -0.402 -0.394 13.27114 18.33826 -5.32276
 3.60 6.25 -0.302 -0.301 -0.299 -0.294 -0.288 13.46043 18.61507 -5.04590
 3.60 6.50 -0.206 -0.206 -0.204 -0.199 -0.193 13.64972 18.89187 -4.76904
 3.60 6.75 -0.125 -0.124 -0.122 -0.117 -0.111 13.83416 19.16661 -4.49428
 3.60 7.00 -0.054 -0.053 -0.050 -0.046 -0.041 14.01368 19.43917 -4.22170
 3.60 7.25  0.005  0.006  0.009  0.013  0.019 14.18433 19.70753 -3.95333
 3.60 7.50  0.056  0.058  0.060  0.064  0.071 14.34752 19.97262 -3.68825
 3.60 7.75  0.101  0.102  0.105  0.109  0.115 14.50338 20.23472 -3.42618
 3.60 8.00  0.140  0.141  0.144  0.148  0.155 14.65186 20.49374 -3.16724
 3.62-2.00 -3.249 -3.247 -3.243 -3.239 -3.232  7.37493 10.23830-13.42262
 3.62-1.50 -3.421 -3.419 -3.415 -3.410 -3.401  7.66314 10.73854-12.92227
 3.62-1.00 -3.572 -3.569 -3.566 -3.559 -3.549  7.96553 11.23880-12.42228
 3.62-0.50 -3.688 -3.685 -3.681 -3.672 -3.660  8.29226 11.73878-11.92227
 3.62 0.00 -3.747 -3.743 -3.737 -3.726 -3.710  8.65744 12.23880-11.42216
 3.62 0.50 -3.713 -3.707 -3.699 -3.684 -3.662  9.07078 12.73878-10.92227
 3.62 1.00 -3.551 -3.544 -3.533 -3.512 -3.484  9.52608 13.23880-10.42205
 3.62 1.25 -3.421 -3.414 -3.400 -3.377 -3.344  9.76347 13.48883-10.17216
 3.62 1.50 -3.264 -3.255 -3.240 -3.214 -3.178 10.00087 13.73886 -9.92227
 3.62 1.75 -3.085 -3.076 -3.059 -3.031 -2.993 10.23736 13.98883 -9.67216
 3.62 2.00 -2.891 -2.882 -2.865 -2.835 -2.795 10.47246 14.23880 -9.42205
 3.62 2.25 -2.693 -2.683 -2.666 -2.636 -2.596 10.70062 14.48887 -9.17197
 3.62 2.50 -2.492 -2.483 -2.466 -2.437 -2.397 10.92242 14.73894 -8.92191
 3.62 2.75 -2.298 -2.289 -2.272 -2.244 -2.206 11.13598 14.98899 -8.67186
 3.62 3.00 -2.106 -2.097 -2.082 -2.055 -2.018 11.34143 15.23905 -8.42182
 3.62 3.20 -1.959 -1.951 -1.936 -1.911 -1.877 11.49942 15.43914 -8.22174
 3.62 3.40 -1.814 -1.807 -1.794 -1.771 -1.738 11.65203 15.63926 -8.02162
 3.62 3.60 -1.675 -1.668 -1.657 -1.635 -1.605 11.79891 15.83940 -7.82147
 3.62 3.80 -1.539 -1.533 -1.523 -1.503 -1.476 11.94074 16.03958 -7.62128
 3.62 4.00 -1.408 -1.402 -1.392 -1.375 -1.350 12.07809 16.23980 -7.42102
 3.62 4.20 -1.279 -1.275 -1.266 -1.250 -1.228 12.21092 16.44030 -7.22056
 3.62 4.40 -1.154 -1.150 -1.142 -1.129 -1.109 12.34136 16.64111 -7.01984
 3.62 4.60 -1.030 -1.027 -1.021 -1.009 -0.991 12.46906 16.84226 -6.81874
 3.62 4.80 -0.909 -0.906 -0.901 -0.890 -0.875 12.59581 17.04412 -6.61687
 3.62 5.00 -0.790 -0.788 -0.783 -0.775 -0.760 12.72255 17.24674 -6.41420
 3.62 5.20 -0.674 -0.672 -0.668 -0.660 -0.648 12.85018 17.45094 -6.21006
 3.62 5.40 -0.559 -0.558 -0.554 -0.548 -0.536 12.97895 17.65704 -6.00403
 3.62 5.60 -0.449 -0.448 -0.445 -0.439 -0.430 13.11023 17.86571 -5.79538
 3.62 5.80 -0.345 -0.343 -0.340 -0.335 -0.326 13.24570 18.07766 -5.58335
 3.62 6.00 -0.245 -0.244 -0.242 -0.236 -0.228 13.38453 18.29248 -5.36846
 3.62 6.25 -0.131 -0.130 -0.127 -0.122 -0.115 13.56548 18.56680 -5.09422
 3.62 6.50 -0.027 -0.026 -0.023 -0.019 -0.012 13.74803 18.84230 -4.81873
 3.62 6.75  0.064  0.065  0.068  0.072  0.079 13.93166 19.11855 -4.54240
 3.62 7.00  0.145  0.146  0.147  0.153  0.159 14.11528 19.39480 -4.26608
 3.62 7.25  0.213  0.214  0.216  0.221  0.228 14.29124 19.66698 -3.99394
 3.62 7.50  0.272  0.273  0.275  0.280  0.287 14.46090 19.93606 -3.72492
 3.62 7.75  0.322  0.322  0.325  0.330  0.336 14.62236 20.20149 -3.45949
 3.62 8.00  0.363  0.366  0.368  0.373  0.380 14.77627 20.46345 -3.19750
 3.64-2.00 -2.931 -2.928 -2.925 -2.919 -2.912  7.70372 10.21775-13.44334
 3.64-1.50 -3.125 -3.122 -3.119 -3.113 -3.104  7.97598 10.71817-12.94271
 3.64-1.00 -3.303 -3.299 -3.296 -3.288 -3.278  8.25551 11.21854-12.44249
 3.64-0.50 -3.454 -3.451 -3.447 -3.438 -3.425  8.54593 11.71867-11.94233
 3.64 0.00 -3.562 -3.558 -3.553 -3.542 -3.527  8.85576 12.21880-11.44213
 3.64 0.50 -3.592 -3.588 -3.581 -3.566 -3.548  9.19783 12.71883-10.94195
 3.64 1.00 -3.500 -3.495 -3.485 -3.469 -3.444  9.58603 13.21880-10.44213
 3.64 1.25 -3.401 -3.395 -3.383 -3.364 -3.336  9.79929 13.46882-10.19204
 3.64 1.50 -3.266 -3.259 -3.247 -3.225 -3.195 10.02160 13.71883 -9.94195
 3.64 1.75 -3.100 -3.092 -3.079 -3.056 -3.023 10.25350 13.96882 -9.69198
 3.64 2.00 -2.911 -2.903 -2.889 -2.865 -2.831 10.48643 14.21880 -9.44201
 3.64 2.25 -2.708 -2.700 -2.685 -2.660 -2.625 10.71995 14.46885 -9.19198
 3.64 2.50 -2.497 -2.489 -2.474 -2.447 -2.412 10.95347 14.71892 -8.94195
 3.64 2.75 -2.286 -2.276 -2.262 -2.237 -2.201 11.18017 14.96899 -8.69192
 3.64 3.00 -2.076 -2.068 -2.054 -2.028 -1.993 11.40088 15.21906 -8.44189
 3.64 3.20 -1.914 -1.905 -1.892 -1.868 -1.835 11.57144 15.41910 -8.24192
 3.64 3.40 -1.755 -1.748 -1.735 -1.711 -1.679 11.73682 15.61915 -8.04194
 3.64 3.60 -1.601 -1.594 -1.582 -1.560 -1.530 11.89675 15.81922 -7.84189
 3.64 3.80 -1.452 -1.447 -1.435 -1.414 -1.386 12.05108 16.01937 -7.64169
 3.64 4.00 -1.308 -1.303 -1.292 -1.273 -1.247 12.20003 16.21959 -7.44141
 3.64 4.20 -1.169 -1.164 -1.155 -1.138 -1.113 12.34305 16.41985 -7.24111
 3.64 4.40 -1.033 -1.029 -1.021 -1.007 -0.984 12.48169 16.62024 -7.04069
 3.64 4.60 -0.902 -0.899 -0.892 -0.879 -0.859 12.61563 16.82085 -6.84008
 3.64 4.80 -0.775 -0.773 -0.766 -0.755 -0.737 12.74657 17.02193 -6.63900
 3.64 5.00 -0.651 -0.648 -0.644 -0.633 -0.618 12.87541 17.22350 -6.43747
 3.64 5.20 -0.530 -0.528 -0.524 -0.516 -0.502 13.00216 17.42594 -6.23508
 3.64 5.40 -0.413 -0.411 -0.407 -0.400 -0.387 13.12891 17.62962 -6.03148
 3.64 5.60 -0.299 -0.298 -0.295 -0.288 -0.277 13.25617 17.83498 -5.82616
 3.64 5.80 -0.192 -0.190 -0.187 -0.181 -0.171 13.38506 18.04301 -5.61810
 3.64 6.00 -0.088 -0.087 -0.084 -0.078 -0.069 13.51548 18.25358 -5.40749
 3.64 6.25  0.032  0.033  0.035  0.041  0.050 13.68454 18.52235 -5.13871
 3.64 6.50  0.141  0.142  0.146  0.150  0.159 13.85793 18.79491 -4.86614
 3.64 6.75  0.240  0.241  0.244  0.249  0.257 14.03705 19.07170 -4.58931
 3.64 7.00  0.327  0.329  0.331  0.336  0.344 14.21617 19.34850 -4.31247
 3.64 7.25  0.403  0.405  0.407  0.412  0.420 14.39311 19.62350 -4.03747
 3.64 7.50  0.470  0.470  0.473  0.478  0.486 14.56726 19.89653 -3.76447
 3.64 7.75  0.525  0.526  0.529  0.534  0.542 14.73307 20.16541 -3.49556
 3.64 8.00  0.572  0.573  0.576  0.581  0.590 14.89237 20.43088 -3.23003
 3.66-2.00 -2.598 -2.596 -2.593 -2.587 -2.579  8.03822 10.19590-13.46496
 3.66-1.50 -2.809 -2.806 -2.803 -2.796 -2.786  8.30147 10.69723-12.96377
 3.66-1.00 -3.005 -3.003 -2.998 -2.990 -2.978  8.56867 11.19783-12.46306
 3.66-0.50 -3.181 -3.177 -3.172 -3.162 -3.149  8.84161 11.69836-11.96257
 3.66 0.00 -3.319 -3.315 -3.309 -3.299 -3.282  9.12320 12.19866-11.46231
 3.66 0.50 -3.392 -3.388 -3.380 -3.366 -3.347  9.42029 12.69871-10.96218
 3.66 1.00 -3.360 -3.355 -3.346 -3.329 -3.306  9.74406 13.19893-10.46218
 3.66 1.25 -3.295 -3.289 -3.279 -3.261 -3.236  9.92089 13.44886-10.21218
 3.66 1.50 -3.196 -3.189 -3.179 -3.160 -3.132 10.10890 13.69880 -9.96218
 3.66 1.75 -3.063 -3.056 -3.044 -3.023 -2.995 10.31057 13.94886 -9.71212
 3.66 2.00 -2.901 -2.895 -2.882 -2.860 -2.829 10.52283 14.19893 -9.46206
 3.66 2.25 -2.715 -2.707 -2.694 -2.671 -2.640 10.74667 14.44891 -9.21212
 3.66 2.50 -2.513 -2.504 -2.491 -2.467 -2.435 10.97410 14.69888 -8.96218
 3.66 2.75 -2.299 -2.291 -2.277 -2.253 -2.221 11.20417 14.94891 -8.71214
 3.66 3.00 -2.081 -2.074 -2.060 -2.036 -2.003 11.43425 15.19893 -8.46206
 3.66 3.20 -1.908 -1.900 -1.887 -1.863 -1.832 11.61408 15.39895 -8.26194
 3.66 3.40 -1.737 -1.729 -1.717 -1.694 -1.663 11.79041 15.59896 -8.06183
 3.66 3.60 -1.569 -1.562 -1.550 -1.528 -1.498 11.96238 15.79900 -7.86176
 3.66 3.80 -1.407 -1.400 -1.388 -1.368 -1.339 12.12878 15.99908 -7.66172
 3.66 4.00 -1.248 -1.243 -1.232 -1.211 -1.184 12.29004 16.19921 -7.46168
 3.66 4.20 -1.095 -1.090 -1.081 -1.062 -1.037 12.44543 16.39939 -7.26149
 3.66 4.40 -0.948 -0.943 -0.934 -0.918 -0.894 12.59552 16.59966 -7.06118
 3.66 4.60 -0.806 -0.801 -0.793 -0.779 -0.757 12.73994 16.80007 -6.86078
 3.66 4.80 -0.668 -0.664 -0.658 -0.645 -0.625 12.87953 17.00073 -6.66021
 3.66 5.00 -0.535 -0.532 -0.526 -0.515 -0.498 13.01494 17.20167 -6.45942
 3.66 5.20 -0.407 -0.405 -0.400 -0.390 -0.374 13.14594 17.40307 -6.25797
 3.66 5.40 -0.283 -0.281 -0.277 -0.268 -0.255 13.27524 17.60521 -6.05572
 3.66 5.60 -0.164 -0.162 -0.159 -0.152 -0.139 13.40272 17.80841 -5.85245
 3.66 5.80 -0.052 -0.049 -0.047 -0.039 -0.029 13.52965 18.01356 -5.64738
 3.66 6.00  0.056  0.058  0.060  0.067  0.078 13.65658 18.22063 -5.44045
 3.66 6.25  0.183  0.185  0.188  0.193  0.203 13.81817 18.48400 -5.17697
 3.66 6.50  0.300  0.302  0.304  0.310  0.319 13.98259 18.75182 -4.90904
 3.66 6.75  0.405  0.406  0.409  0.415  0.424 14.15278 19.02599 -4.63494
 3.66 7.00  0.499  0.500  0.503  0.508  0.518 14.32490 19.30146 -4.35952
 3.66 7.25  0.581  0.582  0.584  0.590  0.599 14.49859 19.57780 -4.08320
 3.66 7.50  0.651  0.653  0.656  0.661  0.671 14.67228 19.85412 -3.80688
 3.66 7.75  0.712  0.714  0.717  0.722  0.732 14.83974 20.12629 -3.53473
 3.66 8.00  0.764  0.766  0.768  0.774  0.783 15.00303 20.39568 -3.26536
 3.68-2.00 -2.263 -2.261 -2.257 -2.251 -2.242  8.36530 10.17231-13.48865
 3.68-1.50 -2.484 -2.482 -2.477 -2.471 -2.460  8.62449 10.67514-12.98590
 3.68-1.00 -2.694 -2.691 -2.687 -2.678 -2.667  8.88536 11.17667-12.48413
 3.68-0.50 -2.886 -2.882 -2.877 -2.866 -2.853  9.14922 11.67770-11.98338
 3.68 0.00 -3.046 -3.042 -3.035 -3.023 -3.006  9.41747 12.17811-11.48267
 3.68 0.50 -3.146 -3.141 -3.133 -3.119 -3.099  9.69276 12.67852-10.98255
 3.68 1.00 -3.151 -3.145 -3.135 -3.120 -3.095  9.98046 13.17869-10.48228
 3.68 1.25 -3.109 -3.103 -3.093 -3.075 -3.049 10.13185 13.42874-10.23219
 3.68 1.50 -3.037 -3.031 -3.021 -3.002 -2.974 10.29003 13.67879 -9.98213
 3.68 1.75 -2.937 -2.930 -2.918 -2.898 -2.870 10.45770 13.92888 -9.73214
 3.68 2.00 -2.811 -2.804 -2.791 -2.770 -2.740 10.63558 14.17898 -9.48214
 3.68 2.25 -2.658 -2.651 -2.638 -2.616 -2.586 10.82648 14.42893 -9.23214
 3.68 2.50 -2.485 -2.478 -2.464 -2.443 -2.411 11.02857 14.67888 -8.98213
 3.68 2.75 -2.293 -2.286 -2.272 -2.249 -2.217 11.24352 14.92893 -8.73207
 3.68 3.00 -2.088 -2.080 -2.067 -2.043 -2.013 11.46404 15.17898 -8.48201
 3.68 3.20 -1.917 -1.908 -1.895 -1.872 -1.842 11.64427 15.37898 -8.28206
 3.68 3.40 -1.743 -1.735 -1.722 -1.699 -1.668 11.82450 15.57897 -8.08211
 3.68 3.60 -1.568 -1.561 -1.549 -1.526 -1.496 12.00345 15.77903 -7.88211
 3.68 3.80 -1.395 -1.388 -1.377 -1.355 -1.326 12.17885 15.97915 -7.68202
 3.68 4.00 -1.225 -1.220 -1.207 -1.188 -1.159 12.35122 16.17926 -7.48188
 3.68 4.20 -1.060 -1.054 -1.044 -1.025 -0.998 12.51783 16.37937 -7.28169
 3.68 4.40 -0.899 -0.893 -0.885 -0.867 -0.841 12.67941 16.57947 -7.08144
 3.68 4.60 -0.743 -0.739 -0.730 -0.714 -0.691 12.83556 16.77962 -6.88117
 3.68 4.80 -0.593 -0.590 -0.581 -0.567 -0.546 12.98618 16.97993 -6.68084
 3.68 5.00 -0.448 -0.444 -0.438 -0.425 -0.406 13.13162 17.18041 -6.48044
 3.68 5.20 -0.309 -0.307 -0.301 -0.290 -0.273 13.27134 17.38130 -6.27965
 3.68 5.40 -0.176 -0.174 -0.169 -0.160 -0.145 13.40725 17.58270 -6.07839
 3.68 5.60 -0.049 -0.047 -0.043 -0.035 -0.021 13.53887 17.78470 -5.87645
 3.68 5.80  0.069  0.071  0.075  0.083  0.095 13.66828 17.98787 -5.67322
 3.68 6.00  0.185  0.186  0.190  0.197  0.208 13.79664 18.19229 -5.46865
 3.68 6.25  0.319  0.321  0.324  0.331  0.342 13.95613 18.45135 -5.20958
 3.68 6.50  0.444  0.446  0.448  0.456  0.465 14.11561 18.71441 -4.94654
 3.68 6.75  0.558  0.559  0.562  0.569  0.579 14.27853 18.98362 -4.67736
 3.68 7.00  0.658  0.660  0.664  0.669  0.679 14.44373 19.25648 -4.40450
 3.68 7.25  0.747  0.748  0.751  0.757  0.767 14.61231 19.53329 -4.12764
 3.68 7.50  0.823  0.824  0.827  0.834  0.844 14.78089 19.81010 -3.85078
 3.68 7.75  0.888  0.889  0.892  0.899  0.908 14.94693 20.08474 -3.57619
 3.68 8.00  0.943  0.944  0.948  0.954  0.964 15.11126 20.35793 -3.30312
 3.70-2.00 -1.931 -1.929 -1.926 -1.919 -1.910  8.67952 10.14426-13.51656
 3.70-1.50 -2.160 -2.156 -2.153 -2.146 -2.135  8.93937 10.65060-13.01037
 3.70-1.00 -2.378 -2.375 -2.371 -2.361 -2.349  9.19811 11.15412-12.50682
 3.70-0.50 -2.581 -2.577 -2.571 -2.561 -2.546  9.45743 11.65619-12.00476
 3.70 0.00 -2.756 -2.752 -2.744 -2.732 -2.714  9.71900 12.15746-11.50362
 3.70 0.50 -2.876 -2.870 -2.862 -2.847 -2.826  9.98385 12.65801-11.00296
 3.70 1.00 -2.905 -2.899 -2.888 -2.871 -2.846 10.25431 13.15836-10.50252
 3.70 1.25 -2.877 -2.871 -2.860 -2.841 -2.815 10.39302 13.40849-10.25242
 3.70 1.50 -2.822 -2.816 -2.804 -2.784 -2.756 10.53504 13.65858-10.00235
 3.70 1.75 -2.741 -2.734 -2.722 -2.701 -2.673 10.68173 13.90862 -9.75229
 3.70 2.00 -2.638 -2.631 -2.619 -2.597 -2.568 10.83417 14.15866 -9.50224
 3.70 2.25 -2.516 -2.508 -2.495 -2.473 -2.443 10.99458 14.40871 -9.25221
 3.70 2.50 -2.375 -2.368 -2.354 -2.332 -2.300 11.16406 14.65877 -9.00218
 3.70 2.75 -2.216 -2.208 -2.195 -2.173 -2.141 11.34555 14.90887 -8.75214
 3.70 3.00 -2.043 -2.035 -2.022 -1.999 -1.967 11.53807 15.15897 -8.50210
 3.70 3.20 -1.892 -1.884 -1.870 -1.847 -1.816 11.70192 15.35893 -8.30210
 3.70 3.40 -1.732 -1.725 -1.712 -1.689 -1.658 11.87026 15.55889 -8.10209
 3.70 3.60 -1.567 -1.559 -1.546 -1.524 -1.493 12.04386 15.75888 -7.90207
 3.70 3.80 -1.396 -1.389 -1.377 -1.355 -1.325 12.21933 15.95891 -7.70203
 3.70 4.00 -1.224 -1.218 -1.206 -1.184 -1.155 12.39480 16.15897 -7.50197
 3.70 4.20 -1.052 -1.046 -1.035 -1.014 -0.986 12.56783 16.35902 -7.30191
 3.70 4.40 -0.882 -0.875 -0.865 -0.847 -0.820 12.73836 16.55910 -7.10183
 3.70 4.60 -0.715 -0.710 -0.701 -0.683 -0.658 12.90512 16.75924 -6.90171
 3.70 4.80 -0.552 -0.548 -0.539 -0.524 -0.501 13.06634 16.95950 -6.70148
 3.70 5.00 -0.394 -0.391 -0.383 -0.370 -0.348 13.22272 17.15987 -6.50114
 3.70 5.20 -0.243 -0.241 -0.234 -0.222 -0.203 13.37314 17.36040 -6.30057
 3.70 5.40 -0.098 -0.095 -0.090 -0.080 -0.062 13.51862 17.56121 -6.09969
 3.70 5.60  0.038  0.041  0.046  0.054  0.071 13.65874 17.76241 -5.89846
 3.70 5.80  0.168  0.170  0.174  0.183  0.197 13.79474 17.96444 -5.69651
 3.70 6.00  0.293  0.294  0.298  0.306  0.319 13.92742 18.16732 -5.49377
 3.70 6.25  0.436  0.438  0.441  0.449  0.461 14.08857 18.42316 -5.23785
 3.70 6.50  0.570  0.572  0.575  0.582  0.594 14.24920 18.68205 -4.97881
 3.70 6.75  0.694  0.694  0.699  0.706  0.717 14.40952 18.94635 -4.71456
 3.70 7.00  0.804  0.806  0.808  0.816  0.826 14.56984 19.21511 -4.44587
 3.70 7.25  0.900  0.901  0.905  0.911  0.924 14.73316 19.48993 -4.17113
 3.70 7.50  0.983  0.985  0.988  0.995  1.006 14.89647 19.76552 -3.89551
 3.70 7.75  1.053  1.054  1.058  1.064  1.076 15.05906 20.04137 -3.61961
 3.70 8.00  1.111  1.113  1.116  1.123  1.135 15.22115 20.31765 -3.34323
 3.73-2.00 -1.451 -1.449 -1.445 -1.439 -1.428  9.10721 10.08565-13.57528
 3.73-1.50 -1.681 -1.678 -1.674 -1.668 -1.655  9.37931 10.60390-13.05710
 3.73-1.00 -1.905 -1.902 -1.898 -1.889 -1.877  9.64296 11.11461-12.54638
 3.73-0.50 -2.117 -2.114 -2.108 -2.098 -2.083  9.90249 11.62076-12.04020
 3.73 0.00 -2.305 -2.301 -2.294 -2.281 -2.263 10.16077 12.12418-11.53671
 3.73 0.50 -2.445 -2.440 -2.431 -2.416 -2.395 10.41929 12.62624-11.03471
 3.73 1.00 -2.502 -2.496 -2.485 -2.466 -2.441 10.67943 13.12743-10.53358
 3.73 1.25 -2.490 -2.483 -2.471 -2.452 -2.424 10.81054 13.37781-10.28318
 3.73 1.50 -2.451 -2.444 -2.431 -2.411 -2.382 10.94265 13.62808-10.03287
 3.73 1.75 -2.386 -2.379 -2.367 -2.345 -2.316 11.07621 13.87825 -9.78269
 3.73 2.00 -2.304 -2.296 -2.284 -2.261 -2.230 11.21165 14.12840 -9.53254
 3.73 2.25 -2.204 -2.196 -2.183 -2.160 -2.128 11.34990 14.37855 -9.28242
 3.73 2.50 -2.092 -2.084 -2.070 -2.048 -2.016 11.49164 14.62870 -9.03231
 3.73 2.75 -1.967 -1.960 -1.946 -1.923 -1.891 11.63826 14.87871 -8.78220
 3.73 3.00 -1.833 -1.826 -1.812 -1.789 -1.757 11.79085 15.12872 -8.53210
 3.73 3.20 -1.718 -1.711 -1.697 -1.673 -1.641 11.91882 15.32874 -8.33211
 3.73 3.40 -1.596 -1.589 -1.575 -1.551 -1.519 12.05254 15.52878 -8.13212
 3.73 3.60 -1.465 -1.458 -1.445 -1.421 -1.389 12.19297 15.72885 -7.93209
 3.73 3.80 -1.327 -1.319 -1.307 -1.283 -1.251 12.34045 15.92895 -7.73202
 3.73 4.00 -1.181 -1.174 -1.161 -1.138 -1.107 12.49415 16.12905 -7.53195
 3.73 4.20 -1.026 -1.019 -1.007 -0.985 -0.954 12.65604 16.32903 -7.33194
 3.73 4.40 -0.864 -0.859 -0.847 -0.826 -0.796 12.82018 16.52901 -7.13194
 3.73 4.60 -0.699 -0.693 -0.683 -0.663 -0.635 12.98663 16.72904 -6.93191
 3.73 4.80 -0.530 -0.525 -0.516 -0.498 -0.472 13.15370 16.92917 -6.73181
 3.73 5.00 -0.362 -0.358 -0.350 -0.333 -0.309 13.32077 17.12937 -6.53165
 3.73 5.20 -0.197 -0.193 -0.186 -0.171 -0.149 13.48336 17.32962 -6.33140
 3.73 5.40 -0.035 -0.032 -0.027 -0.014  0.007 13.64239 17.52999 -6.13099
 3.73 5.60  0.118  0.121  0.126  0.138  0.156 13.79697 17.73054 -5.93039
 3.73 5.80  0.265  0.267  0.272  0.282  0.299 13.94629 17.93151 -5.72940
 3.73 6.00  0.406  0.409  0.412  0.421  0.438 14.09096 18.13290 -5.52798
 3.73 6.25  0.567  0.569  0.573  0.582  0.597 14.26460 18.38600 -5.27491
 3.73 6.50  0.718  0.720  0.724  0.733  0.748 14.43281 18.64098 -5.02000
 3.73 6.75  0.858  0.859  0.863  0.872  0.886 14.59600 18.89928 -4.76165
 3.73 7.00  0.985  0.987  0.990  0.999  1.013 14.75717 19.16137 -4.49949
 3.73 7.25  1.097  1.099  1.104  1.112  1.125 14.91727 19.42948 -4.23142
 3.73 7.50  1.195  1.197  1.201  1.209  1.222 15.07628 19.70157 -3.95940
 3.73 7.75  1.276  1.278  1.281  1.289  1.303 15.23443 19.97664 -3.68438
 3.73 8.00  1.342  1.345  1.348  1.357  1.370 15.39164 20.25503 -3.40605
 3.76-2.00 -1.012 -1.010 -1.006 -0.999 -0.988  9.45010  9.98892-13.67203
 3.76-1.50 -1.227 -1.225 -1.221 -1.214 -1.201  9.75974 10.53122-13.12977
 3.76-1.00 -1.445 -1.443 -1.438 -1.431 -1.418 10.04454 11.05919-12.60189
 3.76-0.50 -1.655 -1.654 -1.648 -1.639 -1.625 10.31492 11.57588-12.08513
 3.76 0.00 -1.847 -1.843 -1.837 -1.826 -1.809 10.57761 12.08565-11.57528
 3.76 0.50 -1.996 -1.992 -1.984 -1.970 -1.949 10.83664 12.59140-11.06956
 3.76 1.00 -2.071 -2.066 -2.056 -2.039 -2.014 11.09447 13.09482-10.56623
 3.76 1.25 -2.073 -2.066 -2.056 -2.037 -2.010 11.22333 13.34576-10.31522
 3.76 1.50 -2.048 -2.041 -2.030 -2.009 -1.980 11.35218 13.59649-10.06444
 3.76 1.75 -1.998 -1.992 -1.979 -1.958 -1.928 11.48157 13.84712 -9.81382
 3.76 2.00 -1.929 -1.922 -1.910 -1.888 -1.856 11.61151 14.09760 -9.56336
 3.76 2.25 -1.844 -1.836 -1.824 -1.801 -1.770 11.74230 14.34787 -9.31308
 3.76 2.50 -1.746 -1.739 -1.726 -1.704 -1.671 11.87419 14.59813 -9.06283
 3.76 2.75 -1.639 -1.632 -1.619 -1.596 -1.564 12.00770 14.84839 -8.81260
 3.76 3.00 -1.525 -1.518 -1.505 -1.482 -1.449 12.14333 15.09864 -8.56241
 3.76 3.20 -1.428 -1.421 -1.408 -1.385 -1.352 12.25409 15.29866 -8.36236
 3.76 3.40 -1.328 -1.321 -1.308 -1.284 -1.251 12.36733 15.49867 -8.16231
 3.76 3.60 -1.223 -1.215 -1.203 -1.179 -1.146 12.48331 15.69874 -7.96224
 3.76 3.80 -1.112 -1.105 -1.092 -1.069 -1.036 12.60318 15.89887 -7.76217
 3.76 4.00 -0.998 -0.990 -0.978 -0.954 -0.923 12.72705 16.09899 -7.56209
 3.76 4.20 -0.875 -0.868 -0.856 -0.832 -0.801 12.85656 16.29895 -7.36209
 3.76 4.40 -0.746 -0.740 -0.728 -0.706 -0.674 12.99154 16.49892 -7.16208
 3.76 4.60 -0.609 -0.604 -0.592 -0.572 -0.541 13.13297 16.69890 -6.96203
 3.76 4.80 -0.465 -0.460 -0.449 -0.430 -0.400 13.28020 16.89892 -6.76190
 3.76 5.00 -0.315 -0.310 -0.301 -0.282 -0.255 13.43201 17.09899 -6.56177
 3.76 5.20 -0.157 -0.153 -0.146 -0.129 -0.104 13.58971 17.29914 -6.36164
 3.76 5.40  0.002  0.005  0.012  0.027  0.049 13.74742 17.49939 -6.16150
 3.76 5.60  0.161  0.164  0.169  0.183  0.204 13.90490 17.69975 -5.96127
 3.76 5.80  0.317  0.319  0.324  0.336  0.356 14.06142 17.90029 -5.76078
 3.76 6.00  0.471  0.473  0.478  0.488  0.507 14.21696 18.10106 -5.56004
 3.76 6.25  0.648  0.650  0.655  0.665  0.683 14.40419 18.35260 -5.30846
 3.76 6.50  0.817  0.819  0.824  0.834  0.851 14.58546 18.60509 -5.05586
 3.76 6.75  0.975  0.976  0.981  0.990  1.007 14.75951 18.85971 -4.80126
 3.76 7.00  1.121  1.123  1.127  1.137  1.153 14.92824 19.11694 -4.54409
 3.76 7.25  1.252  1.254  1.258  1.268  1.283 15.09233 19.37856 -4.28247
 3.76 7.50  1.369  1.371  1.375  1.384  1.400 15.25285 19.64454 -4.01646
 3.76 7.75  1.467  1.469  1.472  1.483  1.497 15.41076 19.91569 -3.74532
 3.76 8.00  1.548  1.549  1.554  1.563  1.579 15.56573 20.19173 -3.46929
 3.79-2.00 -0.686 -0.684 -0.680 -0.673 -0.661  9.64865  9.86201-13.79888
 3.79-1.50 -0.834 -0.832 -0.828 -0.821 -0.808 10.03623 10.41863-13.24238
 3.79-1.00 -1.018 -1.016 -1.012 -1.004 -0.991 10.37402 10.97132-12.68973
 3.79-0.50 -1.211 -1.209 -1.204 -1.196 -1.182 10.67596 11.50961-12.15132
 3.79 0.00 -1.391 -1.389 -1.384 -1.373 -1.358 10.95617 12.03423-11.62672
 3.79 0.50 -1.538 -1.535 -1.528 -1.516 -1.497 11.22402 12.54888-11.11205
 3.79 1.00 -1.622 -1.618 -1.609 -1.594 -1.571 11.48544 13.05767-10.60345
 3.79 1.25 -1.632 -1.628 -1.618 -1.602 -1.576 11.61469 13.31037-10.35067
 3.79 1.50 -1.621 -1.615 -1.605 -1.586 -1.559 11.74351 13.56241-10.09854
 3.79 1.75 -1.585 -1.579 -1.569 -1.549 -1.520 11.87197 13.81400 -9.84691
 3.79 2.00 -1.530 -1.525 -1.513 -1.493 -1.464 12.00043 14.06521 -9.59568
 3.79 2.25 -1.460 -1.453 -1.441 -1.421 -1.390 12.12907 14.31609 -9.34480
 3.79 2.50 -1.376 -1.369 -1.358 -1.336 -1.306 12.25792 14.56679 -9.09415
 3.79 2.75 -1.282 -1.276 -1.264 -1.242 -1.212 12.38719 14.81738 -8.84367
 3.79 3.00 -1.181 -1.174 -1.163 -1.141 -1.111 12.51706 15.06781 -8.59329
 3.79 3.20 -1.095 -1.089 -1.077 -1.056 -1.024 12.62174 15.26798 -8.39304
 3.79 3.40 -1.007 -1.000 -0.989 -0.966 -0.935 12.72729 15.46813 -8.19284
 3.79 3.60 -0.915 -0.909 -0.896 -0.875 -0.842 12.83382 15.66828 -7.99267
 3.79 3.80 -0.820 -0.813 -0.801 -0.779 -0.747 12.94188 15.86842 -7.79254
 3.79 4.00 -0.722 -0.715 -0.704 -0.681 -0.649 13.05154 16.06856 -7.59244
 3.79 4.20 -0.619 -0.613 -0.601 -0.578 -0.546 13.16346 16.26860 -7.39237
 3.79 4.40 -0.512 -0.507 -0.495 -0.473 -0.442 13.27811 16.46865 -7.19230
 3.79 4.60 -0.401 -0.395 -0.384 -0.363 -0.331 13.39587 16.66872 -6.99223
 3.79 4.80 -0.283 -0.278 -0.267 -0.248 -0.218 13.51777 16.86883 -6.79217
 3.79 5.00 -0.162 -0.156 -0.147 -0.128 -0.099 13.64375 17.06893 -6.59210
 3.79 5.20 -0.031 -0.026 -0.019 -0.001  0.026 13.77519 17.26901 -6.39201
 3.79 5.40  0.104  0.108  0.115  0.131  0.156 13.91115 17.46910 -6.19190
 3.79 5.60  0.243  0.246  0.253  0.268  0.292 14.05260 17.66925 -5.99174
 3.79 5.80  0.387  0.390  0.396  0.410  0.431 14.19768 17.86958 -5.79147
 3.79 6.00  0.534  0.536  0.541  0.554  0.574 14.34478 18.07004 -5.59108
 3.79 6.25  0.710  0.712  0.717  0.729  0.749 14.53089 18.32082 -5.34028
 3.79 6.50  0.886  0.887  0.892  0.904  0.923 14.71700 18.57206 -5.08895
 3.79 6.75  1.053  1.056  1.060  1.072  1.091 14.89895 18.82448 -4.83650
 3.79 7.00  1.215  1.217  1.222  1.234  1.251 15.07700 19.07846 -4.58253
 3.79 7.25  1.364  1.366  1.371  1.382  1.400 15.24879 19.33523 -4.32571
 3.79 7.50  1.500  1.503  1.507  1.518  1.536 15.41547 19.59539 -4.06550
 3.79 7.75  1.618  1.621  1.625  1.635  1.654 15.57744 19.86097 -3.79991
 3.79 8.00  1.720  1.722  1.726  1.737  1.754 15.73456 20.13130 -3.52959
 3.82-2.00 -0.549 -0.546 -0.542 -0.534 -0.521  9.69819  9.77517-13.88572
 3.82-1.50 -0.592 -0.590 -0.586 -0.576 -0.562 10.16227 10.30298-13.35793
 3.82-1.00 -0.682 -0.680 -0.676 -0.666 -0.653 10.58377 10.85199-12.80911
 3.82-0.50 -0.814 -0.812 -0.808 -0.799 -0.785 10.95197 11.40926-12.25181
 3.82 0.00 -0.959 -0.956 -0.951 -0.942 -0.928 11.27485 11.95713-11.70377
 3.82 0.50 -1.084 -1.081 -1.076 -1.064 -1.048 11.56738 12.48996-11.17095
 3.82 1.00 -1.163 -1.158 -1.152 -1.138 -1.118 11.84217 13.01072-10.65053
 3.82 1.25 -1.177 -1.173 -1.165 -1.151 -1.128 11.97557 13.26741-10.39364
 3.82 1.50 -1.173 -1.168 -1.161 -1.145 -1.120 12.10721 13.52258-10.13835
 3.82 1.75 -1.150 -1.145 -1.137 -1.120 -1.094 12.23742 13.77667 -9.88437
 3.82 2.00 -1.109 -1.105 -1.095 -1.078 -1.051 12.36680 14.02979 -9.63134
 3.82 2.25 -1.054 -1.049 -1.039 -1.020 -0.993 12.49551 14.28200 -9.37905
 3.82 2.50 -0.985 -0.980 -0.970 -0.951 -0.924 12.62397 14.53365 -9.12732
 3.82 2.75 -0.905 -0.900 -0.890 -0.871 -0.843 12.75225 14.78487 -8.87604
 3.82 3.00 -0.818 -0.813 -0.803 -0.783 -0.755 12.88053 15.03583 -8.62507
 3.82 3.20 -0.743 -0.737 -0.727 -0.707 -0.679 12.98327 15.23647 -8.42447
 3.82 3.40 -0.664 -0.658 -0.648 -0.628 -0.600 13.08616 15.43698 -8.22398
 3.82 3.60 -0.582 -0.577 -0.567 -0.546 -0.517 13.18939 15.63734 -8.02361
 3.82 3.80 -0.498 -0.493 -0.481 -0.461 -0.432 13.29328 15.83760 -7.82331
 3.82 4.00 -0.410 -0.405 -0.395 -0.374 -0.344 13.39777 16.03782 -7.62306
 3.82 4.20 -0.319 -0.315 -0.304 -0.282 -0.252 13.50301 16.23804 -7.42283
 3.82 4.40 -0.227 -0.221 -0.211 -0.190 -0.160 13.60931 16.43824 -7.22265
 3.82 4.60 -0.130 -0.124 -0.114 -0.094 -0.063 13.71684 16.63839 -7.02252
 3.82 4.80 -0.028 -0.023 -0.014  0.006  0.035 13.82623 16.83852 -6.82242
 3.82 5.00  0.075  0.079  0.089  0.108  0.137 13.93752 17.03862 -6.62233
 3.82 5.20  0.185  0.189  0.197  0.216  0.243 14.05138 17.23870 -6.42224
 3.82 5.40  0.299  0.303  0.310  0.327  0.354 14.16815 17.43878 -6.22216
 3.82 5.60  0.417  0.420  0.426  0.442  0.468 14.28829 17.63891 -6.02204
 3.82 5.80  0.538  0.541  0.548  0.562  0.586 14.41232 17.83913 -5.82185
 3.82 6.00  0.665  0.667  0.673  0.686  0.707 14.53995 18.03941 -5.62160
 3.82 6.25  0.819  0.822  0.827  0.840  0.860 14.70548 18.28984 -5.37119
 3.82 6.50  0.977  0.980  0.985  0.998  1.018 14.87518 18.54045 -5.12056
 3.82 6.75  1.138  1.140  1.145  1.158  1.178 15.04934 18.79169 -4.86933
 3.82 7.00  1.298  1.300  1.306  1.318  1.339 15.22350 19.04375 -4.61726
 3.82 7.25  1.454  1.456  1.461  1.472  1.493 15.39623 19.29743 -4.36358
 3.82 7.50  1.602  1.604  1.609  1.621  1.641 15.56714 19.55328 -4.10774
 3.82 7.75  1.737  1.738  1.743  1.755  1.774 15.73269 19.81337 -3.84766
 3.82 8.00  1.857  1.859  1.863  1.875  1.894 15.89404 20.07701 -3.58403
 3.85-2.00 -0.519 -0.517 -0.513 -0.503 -0.488  9.68467  9.73102-13.92996
 3.85-1.50 -0.513 -0.511 -0.507 -0.496 -0.480 10.17696 10.23754-13.42331
 3.85-1.00 -0.516 -0.513 -0.508 -0.498 -0.482 10.65543 10.75565-12.90553
 3.85-0.50 -0.541 -0.538 -0.534 -0.525 -0.509 11.10209 11.29358-12.36734
 3.85 0.00 -0.597 -0.595 -0.590 -0.581 -0.567 11.49872 11.84899-11.81192
 3.85 0.50 -0.666 -0.663 -0.658 -0.648 -0.633 11.84392 12.40346-11.25759
 3.85 1.00 -0.714 -0.711 -0.705 -0.693 -0.675 12.15076 12.94433-10.71670
 3.85 1.25 -0.722 -0.719 -0.712 -0.700 -0.681 12.29452 13.20910-10.45190
 3.85 1.50 -0.718 -0.715 -0.708 -0.694 -0.674 12.43393 13.47085-10.19010
 3.85 1.75 -0.701 -0.697 -0.690 -0.675 -0.653 12.56982 13.72998 -9.93095
 3.85 2.00 -0.671 -0.666 -0.659 -0.644 -0.621 12.70329 13.98704 -9.67387
 3.85 2.25 -0.627 -0.623 -0.615 -0.600 -0.576 12.83489 14.24234 -9.41859
 3.85 2.50 -0.573 -0.569 -0.561 -0.544 -0.520 12.96525 14.49638 -9.16456
 3.85 2.75 -0.510 -0.505 -0.497 -0.480 -0.455 13.09468 14.74941 -8.91150
 3.85 3.00 -0.437 -0.432 -0.424 -0.407 -0.382 13.22350 15.00173 -8.65916
 3.85 3.20 -0.373 -0.369 -0.360 -0.343 -0.317 13.32604 15.20317 -8.45774
 3.85 3.40 -0.306 -0.302 -0.293 -0.275 -0.250 13.42859 15.40437 -8.25657
 3.85 3.60 -0.235 -0.230 -0.221 -0.203 -0.177 13.53114 15.60538 -8.05563
 3.85 3.80 -0.160 -0.155 -0.146 -0.128 -0.101 13.63372 15.80624 -7.85485
 3.85 4.00 -0.083 -0.079 -0.069 -0.051 -0.023 13.73632 16.00690 -7.65423
 3.85 4.20 -0.002  0.002  0.011  0.030  0.057 13.83923 16.20719 -7.45380
 3.85 4.40  0.080  0.084  0.094  0.112  0.141 13.94248 16.40746 -7.25344
 3.85 4.60  0.166  0.171  0.180  0.199  0.227 14.04619 16.60771 -7.05314
 3.85 4.80  0.255  0.260  0.269  0.287  0.316 14.15070 16.80796 -6.85288
 3.85 5.00  0.347  0.352  0.360  0.378  0.407 14.25600 17.00817 -6.65267
 3.85 5.20  0.444  0.448  0.456  0.474  0.502 14.36236 17.20832 -6.45254
 3.85 5.40  0.544  0.548  0.555  0.571  0.598 14.47005 17.40846 -6.25242
 3.85 5.60  0.646  0.650  0.657  0.672  0.697 14.57927 17.60863 -6.05231
 3.85 5.80  0.753  0.756  0.762  0.776  0.801 14.69056 17.80883 -5.85220
 3.85 6.00  0.862  0.865  0.870  0.883  0.906 14.80394 18.00903 -5.65208
 3.85 6.25  0.996  0.999  1.005  1.017  1.039 14.94941 18.25925 -5.40183
 3.85 6.50  1.135  1.137  1.142  1.155  1.176 15.09899 18.50947 -5.15144
 3.85 6.75  1.275  1.278  1.283  1.295  1.316 15.25352 18.76009 -4.90079
 3.85 7.00  1.418  1.421  1.426  1.438  1.460 15.41145 19.01115 -4.64975
 3.85 7.25  1.564  1.566  1.571  1.584  1.605 15.57329 19.26300 -4.39793
 3.85 7.50  1.708  1.711  1.716  1.729  1.750 15.73512 19.51601 -4.14497
 3.85 7.75  1.847  1.849  1.855  1.867  1.887 15.89611 19.77163 -3.88940
 3.85 8.00  1.978  1.980  1.985  1.997  2.017 16.05652 20.02938 -3.63171
 3.88-2.00 -0.520 -0.518 -0.513 -0.505 -0.490  9.65753  9.69827-13.96257
 3.88-1.50 -0.503 -0.500 -0.495 -0.484 -0.467 10.15594 10.19948-13.46130
 3.88-1.00 -0.477 -0.474 -0.468 -0.456 -0.438 10.65138 10.70381-12.95703
 3.88-0.50 -0.438 -0.434 -0.429 -0.417 -0.399 11.13767 11.21564-12.44539
 3.88 0.00 -0.391 -0.387 -0.382 -0.372 -0.355 11.60108 11.74398-11.91686
 3.88 0.50 -0.350 -0.349 -0.344 -0.333 -0.317 12.02119 12.29314-11.36775
 3.88 1.00 -0.321 -0.318 -0.313 -0.303 -0.286 12.38846 12.85046-10.81051
 3.88 1.25 -0.305 -0.302 -0.297 -0.285 -0.269 12.55390 13.12568-10.53527
 3.88 1.50 -0.285 -0.282 -0.276 -0.265 -0.248 12.71037 13.39794-10.26297
 3.88 1.75 -0.260 -0.257 -0.252 -0.240 -0.221 12.85925 13.66598 -9.99491
 3.88 2.00 -0.229 -0.227 -0.220 -0.207 -0.188 13.00260 13.93064 -9.73025
 3.88 2.25 -0.192 -0.189 -0.182 -0.169 -0.149 13.14146 14.19200 -9.46897
 3.88 2.50 -0.147 -0.144 -0.137 -0.124 -0.103 13.27715 14.45087 -9.21014
 3.88 2.75 -0.096 -0.092 -0.086 -0.071 -0.050 13.41035 14.70765 -8.95333
 3.88 3.00 -0.037 -0.034 -0.026 -0.013  0.008 13.54183 14.96284 -8.69810
 3.88 3.20  0.014  0.016  0.024  0.038  0.061 13.64603 15.16601 -8.49493
 3.88 3.40  0.068  0.073  0.080  0.095  0.117 13.74966 15.36860 -8.29233
 3.88 3.60  0.128  0.132  0.140  0.155  0.178 13.85269 15.57066 -8.09026
 3.88 3.80  0.191  0.195  0.203  0.219  0.242 13.95544 15.77237 -7.88854
 3.88 4.00  0.257  0.262  0.269  0.285  0.309 14.05805 15.97373 -7.68719
 3.88 4.20  0.327  0.331  0.339  0.356  0.381 14.16054 16.17477 -7.48619
 3.88 4.40  0.400  0.403  0.412  0.428  0.454 14.26304 16.37562 -7.28537
 3.88 4.60  0.475  0.479  0.488  0.505  0.530 14.36562 16.57628 -7.08468
 3.88 4.80  0.554  0.558  0.567  0.583  0.609 14.46844 16.77683 -6.88408
 3.88 5.00  0.636  0.640  0.647  0.664  0.690 14.57148 16.97727 -6.68361
 3.88 5.20  0.721  0.725  0.732  0.748  0.775 14.67493 17.17759 -6.48331
 3.88 5.40  0.809  0.812  0.819  0.835  0.860 14.77891 17.37787 -6.28306
 3.88 5.60  0.900  0.903  0.910  0.925  0.950 14.88355 17.57811 -6.08288
 3.88 5.80  0.995  0.998  1.004  1.018  1.041 14.98921 17.77832 -5.88272
 3.88 6.00  1.092  1.095  1.100  1.113  1.135 15.09587 17.97850 -5.68256
 3.88 6.25  1.213  1.214  1.220  1.233  1.255 15.23110 18.22868 -5.43232
 3.88 6.50  1.336  1.338  1.343  1.355  1.377 15.36866 18.47886 -5.18204
 3.88 6.75  1.460  1.462  1.467  1.480  1.502 15.50915 18.72920 -4.93172
 3.88 7.00  1.587  1.589  1.595  1.607  1.629 15.65244 18.97973 -4.68131
 3.88 7.25  1.717  1.720  1.725  1.738  1.760 15.79903 19.23056 -4.43049
 3.88 7.50  1.850  1.853  1.858  1.871  1.891 15.94758 19.48187 -4.17914
 3.88 7.75  1.983  1.984  1.990  2.002  2.023 16.09740 19.73445 -3.92651
 3.88 8.00  2.112  2.114  2.120  2.131  2.151 16.24871 19.98802 -3.67285
 3.91-2.00 -0.527 -0.525 -0.521 -0.513 -0.501  9.62818  9.66783-13.99311
 3.91-1.50 -0.510 -0.508 -0.503 -0.493 -0.477 10.12775 10.16791-13.49295
 3.91-1.00 -0.480 -0.478 -0.472 -0.460 -0.440 10.62685 10.66904-12.99183
 3.91-0.50 -0.426 -0.424 -0.417 -0.404 -0.382 11.12353 11.17173-12.48919
 3.91 0.00 -0.336 -0.333 -0.327 -0.313 -0.293 11.61426 11.68006-11.98088
 3.91 0.50 -0.208 -0.205 -0.199 -0.187 -0.169 12.08778 12.20140-11.45955
 3.91 1.00 -0.061 -0.058 -0.053 -0.043 -0.025 12.52569 12.74382-10.91721
 3.91 1.25  0.006  0.009  0.014  0.025  0.041 12.72495 13.02221-10.63881
 3.91 1.50  0.068  0.071  0.076  0.087  0.104 12.91153 13.30060-10.36041
 3.91 1.75  0.124  0.126  0.132  0.142  0.159 13.08491 13.57758-10.08336
 3.91 2.00  0.175  0.178  0.183  0.194  0.211 13.24797 13.85285 -9.80799
 3.91 2.25  0.222  0.225  0.230  0.242  0.259 13.40180 14.12346 -9.53741
 3.91 2.50  0.270  0.272  0.278  0.289  0.307 13.54900 14.39058 -9.27035
 3.91 2.75  0.317  0.321  0.326  0.338  0.356 13.69086 14.65412 -9.00685
 3.91 3.00  0.368  0.371  0.377  0.389  0.408 13.82885 14.91482 -8.74618
 3.91 3.20  0.411  0.414  0.421  0.433  0.451 13.93698 15.12149 -8.53951
 3.91 3.40  0.457  0.460  0.466  0.479  0.498 14.04371 15.32697 -8.33403
 3.91 3.60  0.506  0.508  0.515  0.528  0.548 14.14911 15.53134 -8.12969
 3.91 3.80  0.557  0.560  0.567  0.581  0.601 14.25368 15.73492 -7.92615
 3.91 4.00  0.612  0.615  0.622  0.636  0.658 14.35755 15.93777 -7.72331
 3.91 4.20  0.670  0.673  0.681  0.694  0.717 14.46089 16.13995 -7.52103
 3.91 4.40  0.731  0.734  0.742  0.756  0.778 14.56392 16.34173 -7.31916
 3.91 4.60  0.795  0.799  0.806  0.821  0.844 14.66660 16.54319 -7.11769
 3.91 4.80  0.862  0.867  0.873  0.888  0.912 14.76918 16.74441 -6.91650
 3.91 5.00  0.933  0.936  0.944  0.959  0.983 14.87175 16.94537 -6.71557
 3.91 5.20  1.007  1.010  1.017  1.032  1.056 14.97444 17.14605 -6.51490
 3.91 5.40  1.084  1.087  1.094  1.109  1.132 15.07726 17.34661 -6.31434
 3.91 5.60  1.164  1.168  1.174  1.188  1.211 15.18026 17.54708 -6.11386
 3.91 5.80  1.249  1.251  1.257  1.270  1.293 15.28364 17.74749 -5.91344
 3.91 6.00  1.336  1.338  1.343  1.355  1.378 15.38739 17.94783 -5.71309
 3.91 6.25  1.444  1.447  1.451  1.464  1.485 15.51819 18.19813 -5.46285
 3.91 6.50  1.556  1.558  1.563  1.575  1.596 15.65021 18.44840 -5.21261
 3.91 6.75  1.668  1.670  1.675  1.687  1.708 15.78377 18.69865 -4.96231
 3.91 7.00  1.783  1.785  1.790  1.801  1.823 15.91898 18.94890 -4.71198
 3.91 7.25  1.901  1.903  1.908  1.920  1.941 16.05621 19.19927 -4.46162
 3.91 7.50  2.022  2.024  2.029  2.041  2.062 16.19507 19.44979 -4.21120
 3.91 7.75  2.145  2.147  2.152  2.163  2.184 16.33529 19.70075 -3.96022
 3.91 8.00  2.269  2.271  2.276  2.287  2.307 16.47698 19.95207 -3.70885
 3.94-2.00 -0.531 -0.530 -0.528 -0.521 -0.512  9.59846  9.63739-14.02351
 3.94-1.50 -0.520 -0.518 -0.514 -0.505 -0.491 10.09830 10.13767-13.52331
 3.94-1.00 -0.495 -0.493 -0.488 -0.476 -0.457 10.59791 10.63789-13.02305
 3.94-0.50 -0.446 -0.443 -0.436 -0.423 -0.400 11.09726 11.13862-12.52244
 3.94 0.00 -0.351 -0.348 -0.340 -0.326 -0.301 11.59494 11.64068-12.02032
 3.94 0.50 -0.197 -0.193 -0.185 -0.171 -0.148 12.08778 12.14675-11.51414
 3.94 1.00  0.021  0.025  0.031  0.044  0.065 12.56785 12.66361-10.99740
 3.94 1.25  0.145  0.148  0.154  0.167  0.186 12.79753 12.92947-10.73158
 3.94 1.50  0.269  0.271  0.277  0.289  0.308 13.01787 13.20003-10.46105
 3.94 1.75  0.382  0.384  0.390  0.401  0.419 13.22457 13.47716-10.18397
 3.94 2.00  0.482  0.484  0.489  0.500  0.517 13.41863 13.75450 -9.90658
 3.94 2.25  0.565  0.567  0.572  0.584  0.600 13.59868 14.03196 -9.62901
 3.94 2.50  0.637  0.639  0.645  0.655  0.672 13.76753 14.30942 -9.35145
 3.94 2.75  0.698  0.701  0.706  0.716  0.734 13.92605 14.58223 -9.07870
 3.94 3.00  0.755  0.757  0.762  0.773  0.790 14.07701 14.85163 -8.80939
 3.94 3.20  0.797  0.799  0.805  0.816  0.834 14.19314 15.06411 -8.59689
 3.94 3.40  0.839  0.842  0.847  0.859  0.877 14.30638 15.27461 -8.38636
 3.94 3.60  0.882  0.885  0.890  0.901  0.921 14.41686 15.48318 -8.17778
 3.94 3.80  0.925  0.928  0.934  0.946  0.965 14.52552 15.69026 -7.97069
 3.94 4.00  0.971  0.975  0.980  0.992  1.011 14.63256 15.89597 -7.76498
 3.94 4.20  1.020  1.022  1.028  1.040  1.060 14.73829 16.10047 -7.56046
 3.94 4.40  1.070  1.072  1.079  1.091  1.112 14.84318 16.30416 -7.35677
 3.94 4.60  1.122  1.125  1.132  1.145  1.165 14.94726 16.50708 -7.15386
 3.94 4.80  1.179  1.182  1.188  1.201  1.223 15.05088 16.70950 -6.95148
 3.94 5.00  1.238  1.241  1.247  1.260  1.283 15.15412 16.91142 -6.74958
 3.94 5.20  1.300  1.303  1.309  1.323  1.345 15.25699 17.11292 -6.54807
 3.94 5.40  1.367  1.369  1.375  1.388  1.411 15.35985 17.31414 -6.34685
 3.94 5.60  1.436  1.438  1.444  1.457  1.479 15.46272 17.51510 -6.14589
 3.94 5.80  1.509  1.511  1.517  1.530  1.551 15.56559 17.71589 -5.94511
 3.94 6.00  1.586  1.587  1.592  1.604  1.625 15.66848 17.91651 -5.74449
 3.94 6.25  1.682  1.684  1.690  1.701  1.721 15.79765 18.16703 -5.49390
 3.94 6.50  1.783  1.786  1.790  1.801  1.821 15.92737 18.41747 -5.24344
 3.94 6.75  1.884  1.886  1.891  1.901  1.921 16.05797 18.66789 -4.99310
 3.94 7.00  1.987  1.990  1.994  2.006  2.026 16.18949 18.91824 -4.74280
 3.94 7.25  2.096  2.098  2.102  2.114  2.134 16.32218 19.16844 -4.49255
 3.94 7.50  2.207  2.210  2.214  2.226  2.245 16.45591 19.41863 -4.24230
 3.94 7.75  2.322  2.324  2.329  2.339  2.359 16.59062 19.66899 -3.99198
 3.94 8.00  2.439  2.441  2.445  2.456  2.475 16.72632 19.91945 -3.74160
 3.97-2.00 -0.530 -0.528 -0.526 -0.521 -0.513  9.57031  9.60584-14.05517
 3.97-1.50 -0.525 -0.523 -0.520 -0.513 -0.502 10.06893 10.10687-13.55408
 3.97-1.00 -0.508 -0.506 -0.502 -0.492 -0.475 10.56832 10.60756-13.05335
 3.97-0.50 -0.470 -0.467 -0.461 -0.448 -0.427 11.06781 11.10789-12.55300
 3.97 0.00 -0.388 -0.386 -0.377 -0.362 -0.337 11.56714 11.60863-12.05237
 3.97 0.50 -0.238 -0.235 -0.227 -0.209 -0.183 12.06521 12.11025-11.55068
 3.97 1.00 -0.005 -0.002  0.005  0.021  0.048 12.55955 12.61543-11.04556
 3.97 1.25  0.139  0.143  0.151  0.167  0.191 12.80318 12.87092-10.79009
 3.97 1.50  0.300  0.304  0.311  0.326  0.350 13.04297 13.12937-10.53165
 3.97 1.75  0.465  0.469  0.475  0.489  0.512 13.27593 13.39295-10.26796
 3.97 2.00  0.625  0.628  0.635  0.648  0.669 13.50065 13.66125 -9.99957
 3.97 2.25  0.767  0.771  0.776  0.789  0.808 13.71273 13.93619 -9.72477
 3.97 2.50  0.891  0.893  0.900  0.911  0.930 13.91254 14.21299 -9.44806
 3.97 2.75  0.992  0.994  1.000  1.011  1.029 14.09797 14.49115 -9.16992
 3.97 3.00  1.076  1.079  1.084  1.095  1.113 14.27161 14.76930 -8.89177
 3.97 3.20  1.132  1.135  1.140  1.151  1.169 14.40216 14.98884 -8.67221
 3.97 3.40  1.184  1.186  1.191  1.203  1.220 14.52741 15.20632 -8.45469
 3.97 3.60  1.230  1.233  1.237  1.249  1.266 14.64752 15.42138 -8.23960
 3.97 3.80  1.274  1.276  1.282  1.293  1.311 14.76405 15.63401 -8.02698
 3.97 4.00  1.317  1.319  1.325  1.336  1.355 14.87737 15.84454 -7.81645
 3.97 4.20  1.359  1.362  1.368  1.379  1.397 14.98809 16.05303 -7.60790
 3.97 4.40  1.404  1.405  1.411  1.423  1.441 15.09699 16.26007 -7.40082
 3.97 4.60  1.448  1.451  1.456  1.467  1.487 15.20415 16.46573 -7.19514
 3.97 4.80  1.495  1.498  1.503  1.515  1.535 15.31021 16.67040 -6.99047
 3.97 5.00  1.544  1.548  1.553  1.564  1.584 15.41531 16.87413 -6.78675
 3.97 5.20  1.597  1.600  1.605  1.617  1.637 15.51961 17.07704 -6.58385
 3.97 5.40  1.653  1.655  1.661  1.672  1.691 15.62352 17.27941 -6.38149
 3.97 5.60  1.711  1.714  1.719  1.730  1.750 15.72697 17.48130 -6.17959
 3.97 5.80  1.774  1.776  1.780  1.792  1.811 15.83028 17.68287 -5.97801
 3.97 6.00  1.839  1.841  1.845  1.856  1.875 15.93359 17.88412 -5.77676
 3.97 6.25  1.924  1.926  1.930  1.941  1.959 16.06277 18.13526 -5.52566
 3.97 6.50  2.013  2.016  2.020  2.029  2.047 16.19201 18.38614 -5.27482
 3.97 6.75  2.102  2.104  2.109  2.118  2.137 16.32167 18.63685 -5.02417
 3.97 7.00  2.196  2.198  2.202  2.213  2.230 16.45179 18.88739 -4.77366
 3.97 7.25  2.294  2.296  2.300  2.310  2.328 16.58267 19.13779 -4.52328
 3.97 7.50  2.396  2.398  2.401  2.412  2.430 16.71425 19.38810 -4.27295
 3.97 7.75  2.502  2.503  2.508  2.517  2.535 16.84658 19.63835 -4.02264
 3.97 8.00  2.610  2.612  2.616  2.626  2.643 16.97964 19.88852 -3.77237
 4.00-2.00 -0.513 -0.513 -0.511 -0.507 -0.500  9.54962  9.56797-14.09297
 4.00-1.50 -0.518 -0.517 -0.514 -0.508 -0.498 10.04415 10.07335-13.58771
 4.00-1.00 -0.512 -0.510 -0.507 -0.498 -0.485 10.54058 10.57657-13.08439
 4.00-0.50 -0.488 -0.484 -0.479 -0.469 -0.450 11.03902 11.07809-12.58303
 4.00 0.00 -0.425 -0.423 -0.415 -0.401 -0.377 11.53820 11.57864-12.08228
 4.00 0.50 -0.298 -0.294 -0.285 -0.267 -0.240 12.03743 12.07918-11.58170
 4.00 1.00 -0.078 -0.073 -0.065 -0.045 -0.015 12.53567 12.58093-11.08003
 4.00 1.25  0.067  0.072  0.080  0.100  0.130 12.78375 12.83261-10.82833
 4.00 1.50  0.236  0.241  0.250  0.269  0.298 13.03060 13.08529-10.57561
 4.00 1.75  0.421  0.425  0.433  0.451  0.480 13.27510 13.34014-10.32077
 4.00 2.00  0.615  0.619  0.627  0.644  0.671 13.51627 13.59770-10.06324
 4.00 2.25  0.806  0.809  0.817  0.832  0.857 13.75114 13.85993 -9.80102
 4.00 2.50  0.985  0.989  0.995  1.010  1.033 13.97836 14.12678 -9.53417
 4.00 2.75  1.144  1.147  1.153  1.167  1.188 14.19368 14.40041 -9.26046
 4.00 3.00  1.280  1.283  1.289  1.302  1.322 14.39707 14.67660 -8.98422
 4.00 3.20  1.370  1.372  1.378  1.390  1.410 14.54913 14.89926 -8.76157
 4.00 3.40  1.447  1.450  1.455  1.467  1.486 14.69347 15.12192 -8.53892
 4.00 3.60  1.513  1.515  1.520  1.532  1.551 14.82987 15.34360 -8.31728
 4.00 3.80  1.569  1.572  1.576  1.588  1.607 14.95986 15.56289 -8.09807
 4.00 4.00  1.621  1.622  1.628  1.639  1.657 15.08422 15.78032 -7.88074
 4.00 4.20  1.667  1.668  1.673  1.684  1.702 15.20367 15.99477 -7.66633
 4.00 4.40  1.710  1.712  1.717  1.727  1.746 15.31968 16.20705 -7.45406
 4.00 4.60  1.752  1.754  1.759  1.770  1.789 15.43241 16.41712 -7.24398
 4.00 4.80  1.794  1.797  1.801  1.812  1.831 15.54296 16.62543 -7.03564
 4.00 5.00  1.837  1.839  1.845  1.855  1.873 15.65157 16.83219 -6.82886
 4.00 5.20  1.882  1.885  1.889  1.900  1.918 15.75861 17.03765 -6.62339
 4.00 5.40  1.930  1.932  1.936  1.947  1.964 15.86462 17.24213 -6.41891
 4.00 5.60  1.980  1.981  1.985  1.996  2.013 15.96965 17.44567 -6.21539
 4.00 5.80  2.031  2.034  2.038  2.048  2.065 16.07411 17.64855 -6.01252
 4.00 6.00  2.087  2.089  2.093  2.102  2.119 16.17811 17.85083 -5.81023
 4.00 6.25  2.161  2.162  2.166  2.175  2.191 16.30754 18.10301 -5.55798
 4.00 6.50  2.239  2.240  2.243  2.252  2.268 16.43696 18.35468 -5.30627
 4.00 6.75  2.317  2.318  2.322  2.330  2.347 16.56644 18.60599 -5.05504
 4.00 7.00  2.401  2.402  2.405  2.414  2.431 16.69601 18.85697 -4.80410
 4.00 7.25  2.489  2.490  2.494  2.503  2.520 16.82602 19.10761 -4.55336
 4.00 7.50  2.582  2.584  2.588  2.596  2.612 16.95655 19.35813 -4.30277
 4.00 7.75  2.681  2.682  2.685  2.694  2.709 17.08805 19.60858 -4.05228
 4.00 8.00  2.783  2.785  2.789  2.796  2.812 17.22037 19.85896 -3.80189
 4.05-2.00 -0.492 -0.491 -0.488 -0.483 -0.475  9.50853  9.50920-14.15169
 4.05-1.50 -0.491 -0.489 -0.486 -0.480 -0.470 10.00732 10.01030-13.65053
 4.05-1.00 -0.489 -0.487 -0.484 -0.477 -0.465 10.50447 10.51335-13.14764
 4.05-0.50 -0.484 -0.481 -0.477 -0.468 -0.452 10.99917 11.01828-12.64264
 4.05 0.00 -0.458 -0.456 -0.450 -0.438 -0.417 11.49374 11.52362-12.13727
 4.05 0.50 -0.383 -0.381 -0.373 -0.358 -0.331 11.99016 12.02694-11.63414
 4.05 1.00 -0.222 -0.218 -0.208 -0.189 -0.156 12.48841 12.52840-11.13253
 4.05 1.25 -0.098 -0.094 -0.084 -0.063 -0.029 12.73777 12.77910-10.88194
 4.05 1.50  0.053  0.057  0.068  0.089  0.125 12.98713 13.02979-10.63134
 4.05 1.75  0.231  0.236  0.247  0.269  0.306 13.23615 13.28068-10.38044
 4.05 2.00  0.433  0.438  0.448  0.470  0.507 13.48473 13.53186-10.12913
 4.05 2.25  0.646  0.651  0.661  0.683  0.719 13.73218 13.78415 -9.87685
 4.05 2.50  0.868  0.872  0.881  0.903  0.936 13.97804 14.03782 -9.62324
 4.05 2.75  1.086  1.089  1.098  1.118  1.150 14.22077 14.29407 -9.36697
 4.05 3.00  1.298  1.301  1.309  1.327  1.356 14.45924 14.55352 -9.10746
 4.05 3.20  1.456  1.459  1.467  1.483  1.510 14.64460 14.76512 -8.89585
 4.05 3.40  1.602  1.605  1.612  1.627  1.652 14.82429 14.97972 -8.68126
 4.05 3.60  1.734  1.736  1.742  1.755  1.779 14.99709 15.19847 -8.46250
 4.05 3.80  1.848  1.849  1.855  1.868  1.889 15.16133 15.41958 -8.24139
 4.05 4.00  1.947  1.948  1.953  1.965  1.985 15.31765 15.64128 -8.01968
 4.05 4.20  2.029  2.030  2.035  2.046  2.064 15.46453 15.86335 -7.79759
 4.05 4.40  2.099  2.101  2.105  2.115  2.133 15.60416 16.08542 -7.57550
 4.05 4.60  2.160  2.161  2.165  2.175  2.192 15.73647 16.30613 -7.35481
 4.05 4.80  2.213  2.214  2.218  2.227  2.244 15.86314 16.52391 -7.13712
 4.05 5.00  2.261  2.263  2.267  2.276  2.292 15.98484 16.73957 -6.92154
 4.05 5.20  2.307  2.309  2.312  2.320  2.336 16.10229 16.95249 -6.70856
 4.05 5.40  2.351  2.352  2.355  2.364  2.378 16.21682 17.16341 -6.49759
 4.05 5.60  2.395  2.396  2.399  2.407  2.422 16.32861 17.37232 -6.28870
 4.05 5.80  2.439  2.441  2.443  2.451  2.464 16.43862 17.57967 -6.08141
 4.05 6.00  2.485  2.486  2.489  2.496  2.509 16.54704 17.78562 -5.87550
 4.05 6.25  2.544  2.545  2.548  2.554  2.567 16.68076 18.04136 -5.61963
 4.05 6.50  2.607  2.608  2.610  2.616  2.628 16.81338 18.29579 -5.36512
 4.05 6.75  2.671  2.672  2.674  2.681  2.693 16.94514 18.54923 -5.11175
 4.05 7.00  2.740  2.741  2.743  2.750  2.761 17.07664 18.80188 -4.85918
 4.05 7.25  2.815  2.816  2.819  2.825  2.837 17.20795 19.05386 -4.60726
 4.05 7.50  2.896  2.897  2.899  2.905  2.917 17.33925 19.30535 -4.35576
 4.05 7.75  2.982  2.983  2.985  2.991  3.002 17.47124 19.55650 -4.10451
 4.05 8.00  3.074  3.075  3.077  3.083  3.094 17.60369 19.80726 -3.85356
 4.10-2.00 -0.481 -0.479 -0.477 -0.469 -0.456  9.45924  9.45864-14.20232
 4.10-1.50 -0.477 -0.475 -0.472 -0.464 -0.450  9.95904  9.95871-13.70224
 4.10-1.00 -0.472 -0.470 -0.467 -0.458 -0.443 10.45894 10.45894-13.20197
 4.10-0.50 -0.465 -0.463 -0.458 -0.448 -0.431 10.95823 10.95957-12.70137
 4.10 0.00 -0.446 -0.444 -0.439 -0.427 -0.407 11.45652 11.46135-12.19970
 4.10 0.50 -0.404 -0.401 -0.395 -0.380 -0.355 11.95270 11.96497-11.69594
 4.10 1.00 -0.306 -0.303 -0.295 -0.276 -0.246 12.44700 12.47056-11.19044
 4.10 1.25 -0.224 -0.220 -0.211 -0.191 -0.157 12.69432 12.72307-10.93794
 4.10 1.50 -0.115 -0.111 -0.101 -0.079 -0.043 12.94186 12.97529-10.68571
 4.10 1.75  0.025  0.030  0.041  0.064  0.102 13.19023 13.22685-10.43412
 4.10 2.00  0.195  0.200  0.211  0.235  0.275 13.43886 13.47813-10.18283
 4.10 2.25  0.393  0.397  0.408  0.433  0.472 13.68769 13.72916 -9.93186
 4.10 2.50  0.609  0.613  0.624  0.648  0.688 13.93651 13.98019 -9.68089
 4.10 2.75  0.837  0.842  0.852  0.876  0.914 14.18489 14.23166 -9.42937
 4.10 3.00  1.073  1.077  1.087  1.109  1.146 14.43265 14.48373 -9.17718
 4.10 3.20  1.260  1.263  1.272  1.293  1.327 14.62957 14.68645 -8.97449
 4.10 3.40  1.444  1.447  1.456  1.474  1.507 14.82491 14.89044 -8.77058
 4.10 3.60  1.623  1.627  1.633  1.651  1.681 15.01825 15.09614 -8.56493
 4.10 3.80  1.794  1.797  1.804  1.819  1.846 15.20790 15.30457 -8.35647
 4.10 4.00  1.956  1.959  1.964  1.979  2.003 15.39375 15.51561 -8.14539
 4.10 4.20  2.103  2.105  2.111  2.122  2.144 15.57295 15.73099 -7.93004
 4.10 4.40  2.235  2.237  2.241  2.253  2.272 15.74534 15.94890 -7.71214
 4.10 4.60  2.351  2.352  2.356  2.366  2.384 15.90978 16.17002 -7.49100
 4.10 4.80  2.450  2.451  2.455  2.464  2.479 16.06546 16.39246 -7.26852
 4.10 5.00  2.536  2.536  2.539  2.548  2.562 16.21325 16.61490 -7.04605
 4.10 5.20  2.608  2.609  2.611  2.618  2.632 16.35257 16.83618 -6.82479
 4.10 5.40  2.671  2.671  2.674  2.681  2.693 16.48566 17.05626 -6.60479
 4.10 5.60  2.727  2.728  2.730  2.736  2.748 16.61255 17.27426 -6.38684
 4.10 5.80  2.779  2.780  2.782  2.787  2.799 16.73500 17.48944 -6.17163
 4.10 6.00  2.828  2.829  2.831  2.836  2.846 16.85352 17.70243 -5.95861
 4.10 6.25  2.887  2.888  2.890  2.895  2.904 16.99729 17.96548 -5.69550
 4.10 6.50  2.946  2.947  2.949  2.953  2.962 17.13767 18.22583 -5.43510
 4.10 6.75  3.006  3.007  3.008  3.013  3.022 17.27532 18.48385 -5.17704
 4.10 7.00  3.069  3.069  3.071  3.075  3.084 17.41145 18.74005 -4.92082
 4.10 7.25  3.135  3.136  3.138  3.142  3.151 17.54625 18.99466 -4.66620
 4.10 7.50  3.207  3.207  3.209  3.213  3.221 17.68097 19.24822 -4.41263
 4.10 7.75  3.285  3.285  3.286  3.290  3.298 17.81566 19.50111 -4.15973
 4.10 8.00  3.367  3.367  3.370  3.373  3.381 17.95032 19.75320 -3.90763
 4.15-2.00 -0.481 -0.479 -0.477 -0.471 -0.461  9.40926  9.40858-14.25236
 4.15-1.50 -0.470 -0.469 -0.465 -0.457 -0.442  9.90918  9.90859-13.75227
 4.15-1.00 -0.460 -0.458 -0.454 -0.442 -0.424 10.40926 10.40875-13.25228
 4.15-0.50 -0.450 -0.447 -0.442 -0.429 -0.408 10.90907 10.90870-12.75227
 4.15 0.00 -0.435 -0.433 -0.427 -0.412 -0.388 11.40892 11.40892-12.25205
 4.15 0.50 -0.406 -0.403 -0.396 -0.380 -0.354 11.90843 11.90934-11.75154
 4.15 1.00 -0.338 -0.335 -0.327 -0.309 -0.278 12.40722 12.41061-11.25042
 4.15 1.25 -0.280 -0.276 -0.267 -0.248 -0.214 12.65603 12.66179-10.99927
 4.15 1.50 -0.201 -0.198 -0.188 -0.167 -0.130 12.90434 12.91344-10.74763
 4.15 1.75 -0.097 -0.093 -0.083 -0.060 -0.021 13.15177 13.16597-10.49507
 4.15 2.00  0.029  0.032  0.043  0.067  0.108 13.39898 13.41863-10.24238
 4.15 2.25  0.182  0.187  0.197  0.222  0.265 13.64604 13.67138 -9.98961
 4.15 2.50  0.359  0.364  0.375  0.400  0.442 13.89310 13.92413 -9.73684
 4.15 2.75  0.562  0.567  0.577  0.602  0.643 14.14088 14.17622 -9.48470
 4.15 3.00  0.782  0.786  0.796  0.819  0.859 14.38881 14.42813 -9.23277
 4.15 3.20  0.969  0.973  0.983  1.004  1.042 14.58725 14.62955 -9.03139
 4.15 3.40  1.161  1.165  1.174  1.194  1.230 14.78569 14.83096 -8.83001
 4.15 3.60  1.355  1.359  1.367  1.385  1.418 14.98388 15.03259 -8.62840
 4.15 3.80  1.549  1.553  1.560  1.577  1.608 15.18119 15.23498 -8.42603
 4.15 4.00  1.740  1.743  1.750  1.765  1.793 15.37767 15.43807 -8.22294
 4.15 4.20  1.925  1.928  1.934  1.947  1.972 15.57212 15.64284 -8.01815
 4.15 4.40  2.105  2.108  2.113  2.125  2.147 15.76399 15.84957 -7.81141
 4.15 4.60  2.276  2.278  2.282  2.293  2.312 15.95250 16.05896 -7.60200
 4.15 4.80  2.435  2.438  2.441  2.450  2.467 16.13549 16.27174 -7.38922
 4.15 5.00  2.582  2.583  2.586  2.595  2.609 16.31302 16.48742 -7.17354
 4.15 5.20  2.711  2.712  2.714  2.721  2.734 16.48210 16.70766 -6.95333
 4.15 5.40  2.824  2.825  2.827  2.833  2.844 16.64354 16.92864 -6.73237
 4.15 5.60  2.921  2.922  2.924  2.930  2.939 16.79660 17.15034 -6.51068
 4.15 5.80  3.005  3.006  3.008  3.011  3.020 16.94176 17.37220 -6.28882
 4.15 6.00  3.079  3.080  3.081  3.085  3.092 17.07991 17.59406 -6.06697
 4.15 6.25  3.158  3.159  3.160  3.163  3.171 17.24331 17.86715 -5.79390
 4.15 6.50  3.231  3.232  3.233  3.236  3.242 17.39933 18.13704 -5.52404
 4.15 6.75  3.299  3.299  3.300  3.303  3.309 17.54922 18.40301 -5.25811
 4.15 7.00  3.365  3.365  3.366  3.369  3.375 17.69504 18.66586 -4.99525
 4.15 7.25  3.431  3.432  3.433  3.436  3.442 17.83753 18.92578 -4.73519
 4.15 7.50  3.502  3.502  3.503  3.505  3.511 17.97836 19.18356 -4.47730
 4.15 7.75  3.575  3.576  3.576  3.579  3.584 18.11834 19.43981 -4.22103
 4.15 8.00  3.653  3.654  3.655  3.657  3.662 18.25720 19.69434 -3.96658
 4.20-2.00 -0.486 -0.486 -0.484 -0.481 -0.475  9.35927  9.35870-14.30233
 4.20-1.50 -0.479 -0.477 -0.475 -0.471 -0.462  9.85920  9.85860-13.80244
 4.20-1.00 -0.466 -0.465 -0.462 -0.455 -0.442 10.35927 10.35870-13.30234
 4.20-0.50 -0.449 -0.447 -0.442 -0.432 -0.414 10.85914 10.85866-12.80244
 4.20 0.00 -0.427 -0.424 -0.419 -0.404 -0.380 11.35908 11.35870-12.30225
 4.20 0.50 -0.398 -0.395 -0.387 -0.370 -0.339 11.85896 11.85878-11.80217
 4.20 1.00 -0.350 -0.346 -0.338 -0.317 -0.281 12.35889 12.35908-11.30199
 4.20 1.25 -0.311 -0.307 -0.298 -0.276 -0.238 12.60868 12.60923-11.05184
 4.20 1.50 -0.255 -0.252 -0.242 -0.218 -0.177 12.85836 12.85938-10.80162
 4.20 1.75 -0.179 -0.175 -0.164 -0.139 -0.096 13.10795 13.10985-10.55115
 4.20 2.00 -0.081 -0.076 -0.065 -0.039  0.005 13.35736 13.36059-10.30042
 4.20 2.25  0.043  0.048  0.058  0.086  0.132 13.60624 13.61163-10.04932
 4.20 2.50  0.190  0.194  0.206  0.232  0.278 13.85461 13.86309 -9.79778
 4.20 2.75  0.362  0.367  0.377  0.403  0.447 14.10224 14.11542 -9.54552
 4.20 3.00  0.551  0.555  0.565  0.589  0.631 14.34947 14.36810 -9.29286
 4.20 3.20  0.716  0.720  0.730  0.752  0.792 14.54693 14.57049 -9.09041
 4.20 3.40  0.890  0.893  0.902  0.923  0.961 14.74438 14.77288 -8.88797
 4.20 3.60  1.072  1.074  1.083  1.102  1.137 14.94198 14.97512 -8.68571
 4.20 3.80  1.260  1.263  1.271  1.289  1.320 15.13972 15.17721 -8.48365
 4.20 4.00  1.454  1.457  1.463  1.479  1.507 15.33746 15.37931 -8.28158
 4.20 4.20  1.651  1.654  1.659  1.674  1.700 15.53500 15.58154 -8.07939
 4.20 4.40  1.849  1.850  1.856  1.869  1.892 15.73226 15.78400 -7.87700
 4.20 4.60  2.044  2.046  2.050  2.062  2.082 15.92880 15.98706 -7.67398
 4.20 4.80  2.235  2.238  2.241  2.251  2.269 16.12350 16.19162 -7.46939
 4.20 5.00  2.422  2.423  2.427  2.436  2.451 16.31639 16.39759 -7.26337
 4.20 5.20  2.601  2.602  2.605  2.612  2.626 16.50558 16.60643 -7.05449
 4.20 5.40  2.770  2.770  2.773  2.779  2.790 16.69040 16.81796 -6.84292
 4.20 5.60  2.924  2.924  2.926  2.931  2.941 16.86975 17.03318 -6.62772
 4.20 5.80  3.063  3.064  3.065  3.069  3.077 17.04165 17.25140 -6.40953
 4.20 6.00  3.187  3.188  3.189  3.192  3.199 17.20656 17.47144 -6.18950
 4.20 6.25  3.317  3.318  3.319  3.321  3.327 17.40033 17.74878 -5.91210
 4.20 6.50  3.429  3.429  3.430  3.432  3.437 17.58286 18.02612 -5.63470
 4.20 6.75  3.523  3.523  3.523  3.526  3.530 17.75428 18.30091 -5.35995
 4.20 7.00  3.608  3.608  3.609  3.611  3.615 17.91761 18.57322 -5.08772
 4.20 7.25  3.687  3.688  3.688  3.690  3.694 18.07389 18.84133 -4.81969
 4.20 7.50  3.765  3.765  3.766  3.767  3.771 18.22583 19.10619 -4.55486
 4.20 7.75  3.842  3.842  3.842  3.844  3.848 18.37510 19.36818 -4.29284
 4.20 8.00  3.921  3.921  3.922  3.924  3.927 18.52114 19.62716 -4.03376
 4.25-2.00 -0.481 -0.480 -0.479 -0.477 -0.471  9.30920  9.30856-14.35242
 4.25-1.50 -0.477 -0.477 -0.475 -0.472 -0.466  9.80922  9.80855-13.85232
 4.25-1.00 -0.471 -0.470 -0.469 -0.464 -0.456 10.30920 10.30857-13.35232
 4.25-0.50 -0.459 -0.458 -0.456 -0.450 -0.438 10.80916 10.80862-12.85232
 4.25 0.00 -0.440 -0.438 -0.434 -0.425 -0.409 11.30921 11.30878-12.35232
 4.25 0.50 -0.410 -0.407 -0.401 -0.388 -0.364 11.80909 11.80868-11.85232
 4.25 1.00 -0.363 -0.359 -0.352 -0.333 -0.301 12.30899 12.30878-11.35213
 4.25 1.25 -0.329 -0.326 -0.317 -0.295 -0.258 12.55894 12.55883-11.10207
 4.25 1.50 -0.284 -0.279 -0.270 -0.245 -0.203 12.80889 12.80889-10.85202
 4.25 1.75 -0.226 -0.222 -0.211 -0.184 -0.137 13.05883 13.05903-10.60194
 4.25 2.00 -0.150 -0.146 -0.134 -0.105 -0.054 13.30878 13.30920-10.35184
 4.25 2.25 -0.056 -0.051 -0.038 -0.009  0.043 13.55853 13.55939-10.10167
 4.25 2.50  0.059  0.064  0.076  0.107  0.161 13.80814 13.80963 -9.85140
 4.25 2.75  0.201  0.206  0.218  0.248  0.301 14.05761 14.06013 -9.60087
 4.25 3.00  0.363  0.368  0.380  0.408  0.458 14.30685 14.31091 -9.35008
 4.25 3.20  0.515  0.518  0.529  0.556  0.601 14.50595 14.51180 -9.14923
 4.25 3.40  0.674  0.678  0.688  0.712  0.754 14.70473 14.71300 -8.94809
 4.25 3.60  0.845  0.849  0.858  0.879  0.918 14.90304 14.91465 -8.74645
 4.25 3.80  1.024  1.027  1.035  1.054  1.088 15.10089 15.11674 -8.54432
 4.25 4.00  1.206  1.208  1.215  1.232  1.262 15.29842 15.31911 -8.34189
 4.25 4.20  1.395  1.396  1.403  1.418  1.445 15.49569 15.52170 -8.13922
 4.25 4.40  1.585  1.587  1.592  1.606  1.630 15.69279 15.72442 -7.93646
 4.25 4.60  1.780  1.783  1.787  1.799  1.819 15.88979 15.92719 -7.73367
 4.25 4.80  1.980  1.981  1.986  1.996  2.014 16.08666 16.13004 -7.53083
 4.25 5.00  2.180  2.181  2.184  2.193  2.208 16.28330 16.33304 -7.32790
 4.25 5.20  2.380  2.382  2.385  2.392  2.405 16.47904 16.53681 -7.12416
 4.25 5.40  2.576  2.577  2.579  2.586  2.597 16.67355 16.74155 -6.91945
 4.25 5.60  2.767  2.768  2.770  2.774  2.785 16.86619 16.94782 -6.71319
 4.25 5.80  2.951  2.951  2.954  2.957  2.965 17.05517 17.15668 -6.50430
 4.25 6.00  3.125  3.126  3.127  3.129  3.136 17.24055 17.36791 -6.29303
 4.25 6.25  3.321  3.321  3.322  3.325  3.330 17.46342 17.63734 -6.02367
 4.25 6.50  3.495  3.496  3.496  3.498  3.503 17.67642 17.91025 -5.75080
 4.25 6.75  3.641  3.642  3.642  3.644  3.648 17.87663 18.18700 -5.47401
 4.25 7.00  3.770  3.770  3.770  3.772  3.775 18.06595 18.46374 -5.19723
 4.25 7.25  3.878  3.878  3.878  3.881  3.883 18.24425 18.73880 -4.92208
 4.25 7.50  3.978  3.978  3.978  3.980  3.983 18.41447 19.01199 -4.64878
 4.25 7.75  4.069  4.069  4.070  4.071  4.073 18.57873 19.28135 -4.37946
 4.25 8.00  4.159  4.159  4.159  4.160  4.163 18.73632 19.54753 -4.11340
 4.30-2.00 -0.470 -0.470 -0.469 -0.465 -0.458  9.26055  9.25720-14.40373
 4.30-1.50 -0.468 -0.467 -0.466 -0.461 -0.455  9.75967  9.75808-13.90274
 4.30-1.00 -0.463 -0.463 -0.461 -0.456 -0.447 10.25935 10.25840-13.40252
 4.30-0.50 -0.456 -0.456 -0.454 -0.447 -0.438 10.75921 10.75853-12.90240
 4.30 0.00 -0.443 -0.442 -0.440 -0.433 -0.421 11.25912 11.25864-12.40230
 4.30 0.50 -0.421 -0.419 -0.415 -0.407 -0.391 11.75906 11.75869-11.90240
 4.30 1.00 -0.384 -0.382 -0.377 -0.365 -0.343 12.25912 12.25864-11.40219
 4.30 1.25 -0.357 -0.354 -0.349 -0.335 -0.308 12.50905 12.50870-11.15211
 4.30 1.50 -0.322 -0.319 -0.312 -0.295 -0.264 12.75899 12.75876-10.90205
 4.30 1.75 -0.275 -0.271 -0.263 -0.243 -0.206 13.00893 13.00882-10.65200
 4.30 2.00 -0.211 -0.208 -0.198 -0.174 -0.131 13.25888 13.25888-10.40198
 4.30 2.25 -0.132 -0.128 -0.117 -0.090 -0.042 13.50879 13.50896-10.15201
 4.30 2.50 -0.034 -0.028 -0.016  0.013  0.067 13.75869 13.75906 -9.90205
 4.30 2.75  0.083  0.088  0.100  0.132  0.188 14.00856 14.00919 -9.65180
 4.30 3.00  0.222  0.227  0.239  0.271  0.327 14.25840 14.25936 -9.40154
 4.30 3.20  0.349  0.353  0.366  0.396  0.450 14.45816 14.45959 -9.20133
 4.30 3.40  0.489  0.493  0.505  0.533  0.584 14.65783 14.65992 -9.00112
 4.30 3.60  0.645  0.648  0.658  0.684  0.730 14.85740 14.86035 -8.80076
 4.30 3.80  0.812  0.816  0.825  0.848  0.889 15.05679 15.06095 -8.60007
 4.30 4.00  0.988  0.991  0.998  1.018  1.055 15.25600 15.26174 -8.39914
 4.30 4.20  1.175  1.178  1.184  1.201  1.233 15.45478 15.46293 -8.19795
 4.30 4.40  1.365  1.367  1.372  1.387  1.414 15.65316 15.66451 -7.99641
 4.30 4.60  1.558  1.559  1.564  1.577  1.599 15.85109 15.86660 -7.79441
 4.30 4.80  1.754  1.756  1.760  1.770  1.789 16.04852 16.06916 -7.59191
 4.30 5.00  1.950  1.951  1.954  1.963  1.980 16.24551 16.27207 -7.38902
 4.30 5.20  2.151  2.153  2.156  2.163  2.177 16.44217 16.47515 -7.18589
 4.30 5.40  2.353  2.354  2.357  2.363  2.373 16.63829 16.67859 -6.98234
 4.30 5.60  2.556  2.556  2.559  2.563  2.573 16.83395 16.88244 -6.77844
 4.30 5.80  2.759  2.760  2.761  2.765  2.773 17.02873 17.08703 -6.57390
 4.30 6.00  2.956  2.957  2.957  2.961  2.967 17.22246 17.29248 -6.36856
 4.30 6.25  3.197  3.197  3.198  3.200  3.206 17.46099 17.55201 -6.10900
 4.30 6.50  3.424  3.424  3.425  3.426  3.431 17.69470 17.81478 -5.84619
 4.30 6.75  3.631  3.631  3.631  3.632  3.635 17.91985 18.08290 -5.57810
 4.30 7.00  3.816  3.816  3.816  3.818  3.820 18.13609 18.35449 -5.30654
 4.30 7.25  3.974  3.975  3.975  3.976  3.978 18.34067 18.63014 -5.03088
 4.30 7.50  4.116  4.116  4.116  4.117  4.119 18.53517 18.90580 -4.75523
 4.30 7.75  4.237  4.237  4.238  4.238  4.240 18.72025 19.18026 -4.48075
 4.30 8.00  4.350  4.350  4.351  4.351  4.352 18.89570 19.45393 -4.20705
 4.35-2.00 -0.446 -0.446 -0.444 -0.442 -0.437  9.22298  9.19452-14.46648
 4.35-1.50 -0.448 -0.448 -0.446 -0.442 -0.435  9.71809  9.69949-13.96138
 4.35-1.00 -0.448 -0.447 -0.446 -0.441 -0.432 10.21352 10.20439-13.45668
 4.35-0.50 -0.444 -0.443 -0.441 -0.435 -0.423 10.71088 10.70689-12.95390
 4.35 0.00 -0.434 -0.433 -0.431 -0.423 -0.410 11.20978 11.20817-12.45296
 4.35 0.50 -0.417 -0.415 -0.412 -0.404 -0.388 11.70936 11.70842-11.95234
 4.35 1.00 -0.387 -0.386 -0.382 -0.372 -0.354 12.20925 12.20871-11.45235
 4.35 1.25 -0.365 -0.364 -0.359 -0.349 -0.328 12.45913 12.45874-11.20235
 4.35 1.50 -0.340 -0.337 -0.333 -0.321 -0.298 12.70902 12.70876-10.95234
 4.35 1.75 -0.304 -0.302 -0.296 -0.282 -0.257 12.95900 12.95887-10.70222
 4.35 2.00 -0.259 -0.257 -0.251 -0.234 -0.204 13.20898 13.20898-10.45210
 4.35 2.25 -0.199 -0.196 -0.188 -0.169 -0.134 13.45891 13.45895-10.20203
 4.35 2.50 -0.122 -0.117 -0.109 -0.087 -0.047 13.70885 13.70893 -9.95195
 4.35 2.75 -0.022 -0.019 -0.009  0.015  0.060 13.95878 13.95909 -9.70184
 4.35 3.00  0.096  0.101  0.111  0.138  0.187 14.20871 14.20925 -9.45173
 4.35 3.20  0.209  0.214  0.225  0.252  0.302 14.40857 14.40932 -9.25166
 4.35 3.40  0.337  0.341  0.352  0.379  0.429 14.60842 14.60940 -9.05159
 4.35 3.60  0.478  0.482  0.492  0.519  0.568 14.80826 14.80953 -8.85148
 4.35 3.80  0.633  0.637  0.646  0.671  0.716 15.00809 15.00976 -8.65127
 4.35 4.00  0.799  0.801  0.810  0.832  0.875 15.20790 15.21005 -8.45100
 4.35 4.20  0.975  0.979  0.986  1.006  1.043 15.40755 15.41038 -8.25068
 4.35 4.40  1.160  1.162  1.168  1.185  1.217 15.60703 15.61080 -8.05026
 4.35 4.60  1.351  1.352  1.359  1.372  1.400 15.80635 15.81143 -7.84961
 4.35 4.80  1.548  1.549  1.554  1.566  1.588 16.00539 16.01244 -7.64858
 4.35 5.00  1.746  1.747  1.750  1.760  1.779 16.20412 16.21378 -7.44721
 4.35 5.20  1.951  1.951  1.954  1.962  1.978 16.40226 16.41554 -7.24547
 4.35 5.40  2.154  2.155  2.157  2.163  2.176 16.59986 16.61778 -7.04324
 4.35 5.60  2.358  2.359  2.360  2.366  2.375 16.79691 16.82058 -6.84045
 4.35 5.80  2.563  2.564  2.566  2.570  2.577 16.99328 17.02405 -6.63697
 4.35 6.00  2.767  2.767  2.769  2.772  2.777 17.18893 17.22814 -6.43286
 4.35 6.25  3.026  3.026  3.028  3.030  3.035 17.43237 17.48401 -6.17701
 4.35 6.50  3.278  3.278  3.278  3.280  3.283 17.67385 17.74131 -5.91973
 4.35 6.75  3.522  3.522  3.522  3.523  3.527 17.91193 18.00122 -5.65975
 4.35 7.00  3.753  3.753  3.753  3.754  3.757 18.14551 18.26411 -5.39675
 4.35 7.25  3.964  3.964  3.964  3.965  3.967 18.37138 18.53179 -5.12907
 4.35 7.50  4.156  4.156  4.156  4.157  4.158 18.58917 18.80264 -4.85824
 4.35 7.75  4.321  4.322  4.322  4.323  4.323 18.79662 19.07589 -4.58499
 4.35 8.00  4.472  4.472  4.473  4.474  4.474 18.99449 19.35180 -4.30910
 4.40-2.00 -0.438 -0.438 -0.438 -0.435 -0.431  9.17725  9.13988-14.52115
 4.40-1.50 -0.434 -0.434 -0.433 -0.431 -0.426  9.67678  9.64028-14.02073
 4.40-1.00 -0.430 -0.429 -0.428 -0.425 -0.419 10.17551 10.14176-13.51927
 4.40-0.50 -0.424 -0.424 -0.423 -0.418 -0.409 10.67247 10.64493-13.01606
 4.40 0.00 -0.419 -0.417 -0.415 -0.409 -0.396 11.16761 11.15014-12.51089
 4.40 0.50 -0.405 -0.404 -0.400 -0.391 -0.375 11.66304 11.65466-12.00634
 4.40 1.00 -0.379 -0.377 -0.373 -0.363 -0.343 12.16077 12.15715-11.50376
 4.40 1.25 -0.360 -0.359 -0.354 -0.343 -0.322 12.41003 12.40778-11.25319
 4.40 1.50 -0.336 -0.334 -0.330 -0.317 -0.294 12.65954 12.65820-11.00279
 4.40 1.75 -0.306 -0.304 -0.299 -0.286 -0.261 12.90940 12.90848-10.75246
 4.40 2.00 -0.269 -0.268 -0.262 -0.248 -0.221 13.15927 13.15866-10.50224
 4.40 2.25 -0.222 -0.220 -0.213 -0.198 -0.169 13.40907 13.40879-10.25219
 4.40 2.50 -0.164 -0.161 -0.155 -0.137 -0.105 13.65887 13.65887-10.00213
 4.40 2.75 -0.087 -0.084 -0.077 -0.057 -0.022 13.90876 13.90892 -9.75206
 4.40 3.00  0.007  0.009  0.017  0.038  0.076 14.15866 14.15897 -9.50197
 4.40 3.20  0.100  0.103  0.111  0.134  0.174 14.35859 14.35907 -9.30188
 4.40 3.40  0.208  0.211  0.220  0.242  0.283 14.55852 14.55919 -9.10179
 4.40 3.60  0.332  0.336  0.344  0.367  0.407 14.75846 14.75931 -8.90168
 4.40 3.80  0.475  0.478  0.486  0.507  0.548 14.95841 14.95944 -8.70156
 4.40 4.00  0.629  0.632  0.640  0.660  0.699 15.15836 15.15957 -8.50141
 4.40 4.20  0.799  0.803  0.809  0.828  0.864 15.35815 15.35972 -8.30126
 4.40 4.40  0.979  0.982  0.988  1.005  1.038 15.55788 15.55991 -8.10107
 4.40 4.60  1.166  1.168  1.174  1.189  1.218 15.75758 15.76017 -7.90081
 4.40 4.80  1.359  1.362  1.366  1.380  1.405 15.95725 15.96056 -7.70041
 4.40 5.00  1.556  1.558  1.562  1.572  1.594 16.15685 16.16107 -7.49990
 4.40 5.20  1.760  1.761  1.765  1.774  1.792 16.35618 16.36169 -7.29925
 4.40 5.40  1.965  1.966  1.969  1.976  1.990 16.55523 16.56254 -7.09836
 4.40 5.60  2.173  2.173  2.175  2.181  2.193 16.75401 16.76369 -6.89719
 4.40 5.80  2.382  2.383  2.385  2.389  2.398 16.95233 16.96539 -6.69552
 4.40 6.00  2.589  2.590  2.592  2.595  2.602 17.15014 17.16761 -6.49336
 4.40 6.25  2.855  2.855  2.856  2.859  2.865 17.39609 17.42144 -6.23963
 4.40 6.50  3.117  3.117  3.117  3.120  3.122 17.64058 17.67651 -5.98464
 4.40 6.75  3.380  3.380  3.381  3.383  3.385 17.88353 17.93294 -5.72815
 4.40 7.00  3.634  3.634  3.635  3.635  3.637 18.12418 18.19117 -5.46980
 4.40 7.25  3.878  3.878  3.878  3.879  3.882 18.36128 18.45191 -5.20901
 4.40 7.50  4.110  4.110  4.110  4.111  4.112 18.59384 18.71550 -4.94539
 4.40 7.75  4.319  4.319  4.320  4.321  4.321 18.81889 18.98291 -4.67800
 4.40 8.00  4.514  4.514  4.514  4.514  4.514 19.03743 19.25382 -4.40716
 4.45-2.00 -0.433 -0.432 -0.431 -0.429 -0.425  9.12743  9.08955-14.57138
 4.45-1.50 -0.429 -0.429 -0.428 -0.426 -0.420  9.62737  9.58950-14.07140
 4.45-1.00 -0.425 -0.425 -0.424 -0.421 -0.415 10.12743 10.08955-13.57122
 4.45-0.50 -0.419 -0.419 -0.418 -0.414 -0.407 10.62706 10.58995-13.07104
 4.45 0.00 -0.410 -0.410 -0.409 -0.404 -0.395 11.12646 11.09061-12.57025
 4.45 0.50 -0.396 -0.396 -0.394 -0.387 -0.375 11.62449 11.59262-12.06834
 4.45 1.00 -0.373 -0.372 -0.368 -0.360 -0.343 12.12057 12.09691-11.56416
 4.45 1.25 -0.355 -0.354 -0.350 -0.340 -0.321 12.36810 12.34949-11.31155
 4.45 1.50 -0.331 -0.330 -0.326 -0.314 -0.292 12.61563 12.60206-11.05894
 4.45 1.75 -0.303 -0.301 -0.296 -0.282 -0.258 12.86361 12.85415-10.80678
 4.45 2.00 -0.265 -0.263 -0.257 -0.243 -0.215 13.11193 13.10585-10.55502
 4.45 2.25 -0.222 -0.220 -0.213 -0.197 -0.166 13.36074 13.35699-10.30391
 4.45 2.50 -0.168 -0.166 -0.160 -0.141 -0.108 13.60991 13.60778-10.05315
 4.45 2.75 -0.104 -0.102 -0.094 -0.075 -0.039 13.85954 13.85823 -9.80270
 4.45 3.00 -0.027 -0.023 -0.016  0.004  0.041 14.10924 14.10857 -9.55238
 4.45 3.20  0.049  0.052  0.060  0.081  0.119 14.30901 14.30880 -9.35218
 4.45 3.40  0.137  0.141  0.148  0.169  0.208 14.50882 14.50899 -9.15201
 4.45 3.60  0.242  0.244  0.253  0.273  0.312 14.70871 14.70910 -8.95186
 4.45 3.80  0.363  0.367  0.374  0.394  0.431 14.90864 14.90917 -8.75173
 4.45 4.00  0.499  0.502  0.508  0.526  0.562 15.10857 15.10924 -8.55160
 4.45 4.20  0.655  0.658  0.664  0.681  0.714 15.30839 15.30941 -8.35148
 4.45 4.40  0.822  0.824  0.831  0.845  0.875 15.50820 15.50960 -8.15136
 4.45 4.60  1.002  1.004  1.009  1.022  1.049 15.70800 15.70980 -7.95119
 4.45 4.80  1.192  1.194  1.198  1.210  1.234 15.90779 15.91002 -7.75095
 4.45 5.00  1.386  1.388  1.391  1.401  1.423 16.10755 16.11025 -7.55068
 4.45 5.20  1.589  1.590  1.593  1.602  1.620 16.30723 16.31054 -7.35038
 4.45 5.40  1.794  1.795  1.798  1.805  1.820 16.50683 16.51089 -7.15003
 4.45 5.60  2.002  2.002  2.004  2.010  2.023 16.70634 16.71134 -6.94956
 4.45 5.80  2.211  2.212  2.213  2.219  2.229 16.90569 16.91203 -6.74885
 4.45 6.00  2.420  2.421  2.423  2.426  2.434 17.10483 17.11294 -6.54791
 4.45 6.25  2.688  2.690  2.691  2.693  2.700 17.35301 17.36473 -6.29618
 4.45 6.50  2.956  2.956  2.957  2.958  2.962 17.60032 17.61732 -6.04369
 4.45 6.75  3.228  3.228  3.229  3.230  3.234 17.84642 17.87104 -5.78993
 4.45 7.00  3.497  3.497  3.497  3.498  3.499 18.09096 18.12613 -5.53477
 4.45 7.25  3.763  3.763  3.763  3.765  3.766 18.33330 18.38309 -5.27784
 4.45 7.50  4.017  4.017  4.017  4.018  4.019 18.57287 18.64217 -5.01882
 4.45 7.75  4.257  4.257  4.257  4.257  4.258 18.80821 18.90405 -4.75692
 4.45 8.00  4.484  4.484  4.484  4.484  4.484 19.03981 19.16850 -4.49241
 4.50-2.00 -0.431 -0.431 -0.430 -0.428 -0.424  9.07737  9.03941-14.62142
 4.50-1.50 -0.426 -0.426 -0.425 -0.423 -0.418  9.57738  9.53945-14.12148
 4.50-1.00 -0.420 -0.420 -0.419 -0.417 -0.410 10.07737 10.03941-13.62142
 4.50-0.50 -0.414 -0.414 -0.413 -0.409 -0.402 10.57738 10.53958-13.12142
 4.50 0.00 -0.407 -0.406 -0.405 -0.400 -0.392 11.07737 11.03981-12.62124
 4.50 0.50 -0.396 -0.396 -0.394 -0.389 -0.378 11.57715 11.53983-12.12113
 4.50 1.00 -0.378 -0.377 -0.375 -0.368 -0.355 12.07664 12.04021-11.62051
 4.50 1.25 -0.363 -0.362 -0.359 -0.353 -0.337 12.32611 12.29083-11.36998
 4.50 1.50 -0.344 -0.342 -0.339 -0.331 -0.313 12.57530 12.54183-11.11919
 4.50 1.75 -0.315 -0.313 -0.310 -0.300 -0.280 12.82400 12.79338-10.86774
 4.50 2.00 -0.278 -0.276 -0.272 -0.261 -0.238 13.07225 13.04532-10.61583
 4.50 2.25 -0.231 -0.229 -0.225 -0.211 -0.185 13.31976 13.29778-10.36326
 4.50 2.50 -0.174 -0.172 -0.166 -0.151 -0.121 13.56726 13.55023-10.11070
 4.50 2.75 -0.109 -0.106 -0.100 -0.083 -0.049 13.81499 13.80265 -9.85823
 4.50 3.00 -0.032 -0.030 -0.022 -0.002  0.036 14.06296 14.05500 -9.60590
 4.50 3.20  0.036  0.039  0.047  0.068  0.109 14.26164 14.25619 -9.40471
 4.50 3.40  0.116  0.119  0.127  0.149  0.191 14.46058 14.45713 -9.20378
 4.50 3.60  0.206  0.210  0.218  0.241  0.282 14.65992 14.65784 -9.00312
 4.50 3.80  0.312  0.315  0.322  0.345  0.386 14.85952 14.85840 -8.80261
 4.50 4.00  0.430  0.432  0.440  0.461  0.500 15.05918 15.05881 -8.60223
 4.50 4.20  0.568  0.571  0.577  0.596  0.632 15.25887 15.25901 -8.40197
 4.50 4.40  0.718  0.720  0.726  0.743  0.774 15.45859 15.45921 -8.20172
 4.50 4.60  0.883  0.885  0.890  0.904  0.932 15.65839 15.65943 -8.00148
 4.50 4.80  1.061  1.062  1.067  1.079  1.102 15.85822 15.85969 -7.80125
 4.50 5.00  1.244  1.246  1.249  1.258  1.279 16.05805 16.05994 -7.60102
 4.50 5.20  1.442  1.443  1.446  1.454  1.472 16.25778 16.26017 -7.40082
 4.50 5.40  1.641  1.643  1.645  1.652  1.666 16.45745 16.46039 -7.20061
 4.50 5.60  1.846  1.847  1.849  1.855  1.867 16.65708 16.66065 -7.00035
 4.50 5.80  2.056  2.056  2.057  2.062  2.073 16.85665 16.86101 -6.79996
 4.50 6.00  2.265  2.265  2.267  2.271  2.279 17.05614 17.06145 -6.59946
 4.50 6.25  2.532  2.532  2.533  2.536  2.543 17.30535 17.31228 -6.34865
 4.50 6.50  2.797  2.797  2.798  2.800  2.805 17.55425 17.56348 -6.09751
 4.50 6.75  3.072  3.072  3.072  3.075  3.078 17.80238 17.81525 -5.84572
 4.50 7.00  3.345  3.345  3.346  3.347  3.350 18.04961 18.06782 -5.59312
 4.50 7.25  3.623  3.623  3.624  3.624  3.627 18.29551 18.32175 -5.33921
 4.50 7.50  3.895  3.895  3.895  3.895  3.897 18.53970 18.57726 -5.08376
 4.50 7.75  4.158  4.158  4.158  4.159  4.160 18.78106 18.83503 -4.82601
 4.50 8.00  4.406  4.406  4.406  4.406  4.407 19.01995 19.09482 -4.56623
 4.55-2.00 -0.432 -0.432 -0.431 -0.429 -0.425  9.02735  8.98954-14.67142
 4.55-1.50 -0.428 -0.428 -0.428 -0.426 -0.421  9.52737  9.48954-14.17147
 4.55-1.00 -0.424 -0.423 -0.423 -0.420 -0.415 10.02735  9.98958-13.67142
 4.55-0.50 -0.417 -0.415 -0.415 -0.412 -0.406 10.52737 10.48954-13.17140
 4.55 0.00 -0.407 -0.406 -0.405 -0.402 -0.395 11.02735 10.98958-12.67142
 4.55 0.50 -0.396 -0.395 -0.392 -0.389 -0.379 11.52737 11.48954-12.17134
 4.55 1.00 -0.379 -0.378 -0.377 -0.371 -0.358 12.02735 11.98972-11.67121
 4.55 1.25 -0.368 -0.368 -0.365 -0.359 -0.345 12.27726 12.23977-11.42115
 4.55 1.50 -0.354 -0.354 -0.351 -0.344 -0.328 12.52711 12.48982-11.17108
 4.55 1.75 -0.335 -0.334 -0.331 -0.323 -0.306 12.77688 12.74003-10.92090
 4.55 2.00 -0.308 -0.307 -0.303 -0.294 -0.275 13.02653 12.99038-10.67060
 4.55 2.25 -0.269 -0.268 -0.264 -0.253 -0.231 13.27608 13.24089-10.42011
 4.55 2.50 -0.218 -0.216 -0.211 -0.200 -0.176 13.52543 13.49164-10.16935
 4.55 2.75 -0.149 -0.147 -0.143 -0.129 -0.101 13.77437 13.74295 -9.91798
 4.55 3.00 -0.066 -0.064 -0.058 -0.043 -0.013 14.02284 13.99471 -9.66615
 4.55 3.20  0.010  0.012  0.019  0.035  0.068 14.22085 14.19668 -9.46419
 4.55 3.40  0.095  0.097  0.104  0.122  0.159 14.41885 14.39868 -9.26221
 4.55 3.60  0.188  0.190  0.197  0.216  0.255 14.61689 14.60070 -9.06021
 4.55 3.80  0.289  0.292  0.299  0.320  0.359 14.81502 14.80273 -8.85820
 4.55 4.00  0.401  0.404  0.412  0.433  0.474 15.01326 15.00475 -8.65620
 4.55 4.20  0.526  0.530  0.536  0.556  0.596 15.21183 15.20616 -8.45482
 4.55 4.40  0.663  0.666  0.672  0.691  0.728 15.41064 15.40728 -8.25373
 4.55 4.60  0.814  0.816  0.822  0.839  0.872 15.60975 15.60803 -8.05295
 4.55 4.80  0.978  0.980  0.985  0.998  1.027 15.80909 15.80857 -7.85236
 4.55 5.00  1.150  1.151  1.155  1.165  1.188 16.00860 16.00903 -7.65189
 4.55 5.20  1.334  1.335  1.338  1.347  1.367 16.20830 16.20945 -7.45154
 4.55 5.40  1.522  1.523  1.526  1.533  1.548 16.40800 16.40984 -7.25119
 4.55 5.60  1.717  1.719  1.720  1.726  1.739 16.60768 16.61015 -7.05084
 4.55 5.80  1.920  1.921  1.923  1.928  1.938 16.80730 16.81044 -6.85049
 4.55 6.00  2.123  2.124  2.125  2.128  2.137 17.00690 17.01073 -6.65014
 4.55 6.25  2.386  2.387  2.388  2.391  2.398 17.25639 17.26127 -6.39962
 4.55 6.50  2.648  2.649  2.649  2.652  2.657 17.50583 17.51202 -6.14899
 4.55 6.75  2.918  2.918  2.919  2.921  2.924 17.75487 17.76308 -5.89803
 4.55 7.00  3.190  3.191  3.191  3.192  3.195 18.00346 18.01452 -5.64666
 4.55 7.25  3.469  3.469  3.470  3.470  3.472 18.25136 18.26645 -5.39465
 4.55 7.50  3.744  3.745  3.745  3.746  3.747 18.49831 18.51917 -5.14176
 4.55 7.75  4.019  4.019  4.020  4.021  4.021 18.74349 18.77374 -4.88724
 4.55 8.00  4.285  4.285  4.285  4.286  4.286 18.98717 19.02979 -4.63134
 4.60-2.00 -0.428 -0.427 -0.427 -0.425 -0.421  8.97750  8.93952-14.72148
 4.60-1.50 -0.425 -0.425 -0.425 -0.424 -0.419  9.47741  9.43949-14.22149
 4.60-1.00 -0.423 -0.423 -0.422 -0.419 -0.415  9.97745  9.93957-13.72148
 4.60-0.50 -0.419 -0.419 -0.418 -0.415 -0.410 10.47741 10.43949-13.22141
 4.60 0.00 -0.413 -0.412 -0.411 -0.408 -0.402 10.97745 10.93957-12.72147
 4.60 0.50 -0.403 -0.403 -0.401 -0.398 -0.389 11.47741 11.43949-12.22142
 4.60 1.00 -0.388 -0.387 -0.386 -0.382 -0.372 11.97740 11.93962-11.72125
 4.60 1.25 -0.378 -0.378 -0.376 -0.371 -0.359 12.22733 12.18963-11.47129
 4.60 1.50 -0.365 -0.365 -0.363 -0.357 -0.343 12.47727 12.43965-11.22134
 4.60 1.75 -0.350 -0.349 -0.347 -0.340 -0.325 12.72724 12.68970-10.97132
 4.60 2.00 -0.329 -0.328 -0.326 -0.317 -0.299 12.97722 12.93977-10.72125
 4.60 2.25 -0.301 -0.300 -0.297 -0.288 -0.267 13.22712 13.18985-10.47114
 4.60 2.50 -0.262 -0.261 -0.257 -0.247 -0.225 13.47698 13.43996-10.22098
 4.60 2.75 -0.210 -0.208 -0.204 -0.192 -0.167 13.72680 13.69020 -9.97072
 4.60 3.00 -0.140 -0.139 -0.134 -0.121 -0.094 13.97653 13.94057 -9.72033
 4.60 3.20 -0.069 -0.068 -0.063 -0.049 -0.019 14.17615 14.14096 -9.51993
 4.60 3.40  0.013  0.015  0.020  0.035  0.067 14.37559 14.34151 -9.31937
 4.60 3.60  0.111  0.112  0.119  0.134  0.167 14.57478 14.54237 -9.11854
 4.60 3.80  0.222  0.224  0.229  0.245  0.280 14.77364 14.74364 -8.91733
 4.60 4.00  0.343  0.345  0.350  0.367  0.401 14.97220 14.94522 -8.71579
 4.60 4.20  0.476  0.478  0.484  0.500  0.534 15.17019 15.14729 -8.51370
 4.60 4.40  0.617  0.618  0.625  0.640  0.674 15.36817 15.34937 -8.31161
 4.60 4.60  0.766  0.768  0.773  0.788  0.819 15.56618 15.55143 -8.10953
 4.60 4.80  0.923  0.924  0.929  0.943  0.971 15.76428 15.75342 -7.90750
 4.60 5.00  1.086  1.088  1.092  1.104  1.130 15.96246 15.95535 -7.70553
 4.60 5.20  1.257  1.258  1.262  1.273  1.295 16.16104 16.15674 -7.50421
 4.60 5.40  1.434  1.435  1.438  1.447  1.465 16.35988 16.35787 -7.30312
 4.60 5.60  1.618  1.619  1.622  1.628  1.643 16.55906 16.55872 -7.10225
 4.60 5.80  1.809  1.809  1.811  1.816  1.829 16.75844 16.75939 -6.90152
 4.60 6.00  2.001  2.002  2.003  2.007  2.017 16.95789 16.95995 -6.70093
 4.60 6.25  2.254  2.255  2.256  2.259  2.266 17.20728 17.21050 -6.45042
 4.60 6.50  2.507  2.508  2.509  2.510  2.516 17.45667 17.46105 -6.19990
 4.60 6.75  2.767  2.767  2.767  2.770  2.773 17.70596 17.71178 -5.94921
 4.60 7.00  3.031  3.031  3.031  3.033  3.036 17.95511 17.96270 -5.69832
 4.60 7.25  3.304  3.304  3.304  3.305  3.307 18.20391 18.21391 -5.44714
 4.60 7.50  3.576  3.576  3.576  3.576  3.578 18.45225 18.46553 -5.19552
 4.60 7.75  3.849  3.849  3.850  3.851  3.852 18.69959 18.71807 -4.94292
 4.60 8.00  4.119  4.119  4.119  4.119  4.120 18.94611 18.97137 -4.68952
 4.65-2.00 -0.424 -0.424 -0.424 -0.421 -0.418  8.92747  8.88953-14.77134
 4.65-1.50 -0.423 -0.422 -0.421 -0.419 -0.414  9.42749  9.38952-14.27148
 4.65-1.00 -0.419 -0.419 -0.419 -0.417 -0.412  9.92747  9.88953-13.77134
 4.65-0.50 -0.417 -0.417 -0.416 -0.414 -0.409 10.42749 10.38952-13.27140
 4.65 0.00 -0.413 -0.413 -0.412 -0.409 -0.403 10.92742 10.88958-12.77134
 4.65 0.50 -0.407 -0.407 -0.405 -0.403 -0.396 11.42732 11.38952-12.27140
 4.65 1.00 -0.398 -0.396 -0.396 -0.392 -0.383 11.92742 11.88964-11.77134
 4.65 1.25 -0.390 -0.390 -0.389 -0.384 -0.374 12.17737 12.13968-11.52133
 4.65 1.50 -0.382 -0.381 -0.380 -0.375 -0.364 12.42732 12.38970-11.27132
 4.65 1.75 -0.370 -0.369 -0.368 -0.363 -0.350 12.67732 12.63970-11.02133
 4.65 2.00 -0.355 -0.354 -0.352 -0.346 -0.333 12.92732 12.88969-10.77134
 4.65 2.25 -0.333 -0.333 -0.331 -0.324 -0.308 13.17724 13.13970-10.52130
 4.65 2.50 -0.305 -0.304 -0.301 -0.293 -0.275 13.42716 13.38970-10.27124
 4.65 2.75 -0.265 -0.263 -0.261 -0.251 -0.231 13.67714 13.63979-10.02117
 4.65 3.00 -0.210 -0.209 -0.206 -0.194 -0.171 13.92711 13.88992 -9.77109
 4.65 3.20 -0.153 -0.153 -0.148 -0.137 -0.111 14.12704 14.09002 -9.57098
 4.65 3.40 -0.084 -0.083 -0.079 -0.065 -0.036 14.32691 14.29015 -9.37084
 4.65 3.60 -0.001  0.001  0.006  0.020  0.050 14.52675 14.49033 -9.17066
 4.65 3.80  0.098  0.100  0.105  0.120  0.152 14.72651 14.69061 -8.97041
 4.65 4.00  0.213  0.215  0.220  0.234  0.267 14.92619 14.89098 -8.77006
 4.65 4.20  0.344  0.345  0.350  0.366  0.399 15.12564 15.09150 -8.56949
 4.65 4.40  0.488  0.490  0.495  0.509  0.540 15.32486 15.29224 -8.36867
 4.65 4.60  0.646  0.648  0.651  0.666  0.696 15.52383 15.49336 -8.16751
 4.65 4.80  0.814  0.816  0.819  0.832  0.859 15.72248 15.69489 -7.96600
 4.65 5.00  0.987  0.988  0.992  1.003  1.027 15.92085 15.89669 -7.76422
 4.65 5.20  1.165  1.166  1.169  1.179  1.201 16.11870 16.09885 -7.56207
 4.65 5.40  1.344  1.345  1.348  1.357  1.375 16.31655 16.30101 -7.35992
 4.65 5.60  1.524  1.525  1.527  1.535  1.550 16.51449 16.50312 -7.15784
 4.65 5.80  1.706  1.707  1.708  1.714  1.729 16.71265 16.70507 -6.95596
 4.65 6.00  1.890  1.890  1.892  1.897  1.908 16.91100 16.90687 -6.75424
 4.65 6.25  2.127  2.128  2.129  2.133  2.142 17.15948 17.15838 -6.50262
 4.65 6.50  2.368  2.368  2.369  2.372  2.378 17.40824 17.40960 -6.25135
 4.65 6.75  2.615  2.615  2.615  2.617  2.623 17.65729 17.66054 -6.00046
 4.65 7.00  2.864  2.865  2.865  2.866  2.870 17.90634 17.91148 -5.74958
 4.65 7.25  3.125  3.125  3.125  3.127  3.129 18.15530 18.16245 -5.49858
 4.65 7.50  3.386  3.386  3.386  3.387  3.389 18.40415 18.41347 -5.24741
 4.65 7.75  3.652  3.652  3.652  3.652  3.654 18.65252 18.66509 -4.99577
 4.65 8.00  3.914  3.914  3.914  3.914  3.916 18.90053 18.91714 -4.74376
 4.70-2.00 -0.424 -0.424 -0.424 -0.421 -0.417  8.87749  8.83954-14.82131
 4.70-1.50 -0.420 -0.420 -0.419 -0.418 -0.413  9.37749  9.33945-14.32148
 4.70-1.00 -0.417 -0.417 -0.415 -0.414 -0.408  9.87749  9.83954-13.82131
 4.70-0.50 -0.414 -0.414 -0.413 -0.410 -0.404 10.37749 10.33945-13.32148
 4.70 0.00 -0.410 -0.410 -0.410 -0.407 -0.400 10.87743 10.83954-12.82131
 4.70 0.50 -0.406 -0.406 -0.405 -0.403 -0.396 11.37731 11.33945-12.32139
 4.70 1.00 -0.400 -0.400 -0.398 -0.396 -0.388 11.87743 11.83960-11.82131
 4.70 1.25 -0.395 -0.395 -0.394 -0.391 -0.382 12.12737 12.08963-11.57135
 4.70 1.50 -0.389 -0.389 -0.388 -0.384 -0.376 12.37731 12.33965-11.32139
 4.70 1.75 -0.382 -0.381 -0.380 -0.376 -0.366 12.62734 12.58966-11.07135
 4.70 2.00 -0.372 -0.372 -0.369 -0.365 -0.354 12.87737 12.83967-10.82131
 4.70 2.25 -0.358 -0.358 -0.356 -0.350 -0.338 13.12735 13.08966-10.57131
 4.70 2.50 -0.340 -0.339 -0.337 -0.331 -0.317 13.37731 13.33965-10.32130
 4.70 2.75 -0.312 -0.312 -0.310 -0.302 -0.286 13.62725 13.58972-10.07116
 4.70 3.00 -0.275 -0.275 -0.271 -0.263 -0.244 13.87720 13.83979 -9.82102
 4.70 3.20 -0.234 -0.233 -0.230 -0.221 -0.200 14.07717 14.03982 -9.62102
 4.70 3.40 -0.181 -0.181 -0.176 -0.167 -0.144 14.27714 14.23984 -9.42103
 4.70 3.60 -0.115 -0.113 -0.110 -0.098 -0.073 14.47710 14.43990 -9.22098
 4.70 3.80 -0.032 -0.030 -0.027 -0.014  0.012 14.67702 14.64002 -9.02086
 4.70 4.00  0.066  0.068  0.072  0.085  0.115 14.87691 14.84017 -8.82073
 4.70 4.20  0.183  0.183  0.188  0.202  0.233 15.07675 15.04033 -8.62061
 4.70 4.40  0.314  0.316  0.320  0.335  0.365 15.27653 15.24053 -8.42047
 4.70 4.60  0.461  0.463  0.467  0.481  0.512 15.47626 15.44080 -8.22025
 4.70 4.80  0.622  0.623  0.627  0.640  0.671 15.67589 15.64122 -8.01986
 4.70 5.00  0.793  0.794  0.798  0.810  0.838 15.87541 15.84180 -7.81930
 4.70 5.20  0.975  0.976  0.980  0.990  1.016 16.07462 16.04262 -7.61844
 4.70 5.40  1.163  1.164  1.166  1.176  1.198 16.27355 16.24373 -7.41729
 4.70 5.60  1.354  1.355  1.357  1.365  1.384 16.47210 16.44529 -7.21568
 4.70 5.80  1.546  1.546  1.549  1.556  1.572 16.67033 16.64721 -7.01373
 4.70 6.00  1.737  1.737  1.740  1.745  1.758 16.86835 16.84930 -6.81163
 4.70 6.25  1.975  1.975  1.977  1.981  1.993 17.11561 17.10209 -6.55887
 4.70 6.50  2.212  2.213  2.214  2.217  2.226 17.36286 17.35488 -6.30610
 4.70 6.75  2.451  2.451  2.452  2.455  2.461 17.61065 17.60713 -6.05382
 4.70 7.00  2.680  2.680  2.681  2.683  2.688 17.85878 17.85902 -5.80189
 4.70 7.25  2.925  2.925  2.926  2.928  2.931 18.10740 18.11037 -5.55055
 4.70 7.50  3.173  3.173  3.173  3.174  3.177 18.35603 18.36173 -5.29921
 4.70 7.75  3.424  3.424  3.424  3.425  3.427 18.60458 18.61318 -5.04783
 4.70 8.00  3.675  3.675  3.675  3.676  3.678 18.85309 18.86469 -4.79642
 4.75-2.00 -0.425 -0.425 -0.425 -0.423 -0.419  8.82750  8.78951-14.87128
 4.75-1.50 -0.423 -0.423 -0.423 -0.420 -0.415  9.32736  9.28959-14.37151
 4.75-1.00 -0.419 -0.419 -0.419 -0.417 -0.411  9.82750  9.78951-13.87128
 4.75-0.50 -0.414 -0.414 -0.414 -0.411 -0.405 10.32736 10.28959-13.37141
 4.75 0.00 -0.409 -0.408 -0.408 -0.405 -0.398 10.82743 10.78958-12.87128
 4.75 0.50 -0.403 -0.403 -0.401 -0.398 -0.391 11.32736 11.28959-12.37141
 4.75 1.00 -0.398 -0.398 -0.396 -0.393 -0.385 11.82743 11.78958-11.87128
 4.75 1.25 -0.395 -0.394 -0.393 -0.389 -0.381 12.07740 12.03958-11.62134
 4.75 1.50 -0.391 -0.390 -0.389 -0.386 -0.377 12.32736 12.28959-11.37141
 4.75 1.75 -0.386 -0.385 -0.384 -0.381 -0.371 12.57736 12.53962-11.12134
 4.75 2.00 -0.379 -0.379 -0.378 -0.374 -0.364 12.82737 12.78965-10.87128
 4.75 2.25 -0.371 -0.369 -0.368 -0.364 -0.354 13.07737 13.03962-10.62129
 4.75 2.50 -0.359 -0.358 -0.356 -0.352 -0.340 13.32736 13.28959-10.37130
 4.75 2.75 -0.341 -0.340 -0.339 -0.333 -0.320 13.57730 13.53969-10.12130
 4.75 3.00 -0.317 -0.317 -0.315 -0.309 -0.294 13.82724 13.78979 -9.87128
 4.75 3.20 -0.290 -0.289 -0.288 -0.280 -0.264 14.02721 13.98980 -9.67121
 4.75 3.40 -0.256 -0.255 -0.252 -0.244 -0.226 14.22717 14.18981 -9.47114
 4.75 3.60 -0.209 -0.208 -0.206 -0.197 -0.176 14.42714 14.38984 -9.27107
 4.75 3.80 -0.148 -0.148 -0.145 -0.135 -0.112 14.62710 14.58992 -9.07101
 4.75 4.00 -0.074 -0.073 -0.069 -0.059 -0.034 14.82705 14.79000 -8.87096
 4.75 4.20  0.019  0.020  0.024  0.036  0.062 15.02693 14.99010 -8.67089
 4.75 4.40  0.130  0.132  0.135  0.147  0.176 15.22681 15.19020 -8.47083
 4.75 4.60  0.259  0.261  0.264  0.276  0.307 15.42670 15.39031 -8.27072
 4.75 4.80  0.405  0.407  0.410  0.423  0.453 15.62662 15.59043 -8.07054
 4.75 5.00  0.565  0.566  0.570  0.582  0.612 15.82653 15.79057 -7.87031
 4.75 5.20  0.738  0.739  0.743  0.754  0.783 16.02629 15.99080 -7.67006
 4.75 5.40  0.919  0.920  0.924  0.934  0.961 16.22594 16.19115 -7.46975
 4.75 5.60  1.106  1.107  1.111  1.120  1.144 16.42547 16.39165 -7.26933
 4.75 5.80  1.298  1.299  1.302  1.310  1.332 16.62481 16.59239 -7.06865
 4.75 6.00  1.493  1.493  1.496  1.504  1.523 16.82393 16.79337 -6.86774
 4.75 6.25  1.739  1.740  1.742  1.748  1.764 17.07227 17.04511 -6.61591
 4.75 6.50  1.987  1.987  1.988  1.993  2.006 17.32015 17.29732 -6.36361
 4.75 6.75  2.232  2.233  2.234  2.237  2.247 17.56740 17.55022 -6.11077
 4.75 7.00  2.467  2.467  2.468  2.471  2.478 17.81465 17.80312 -5.85792
 4.75 7.25  2.706  2.706  2.707  2.709  2.714 18.06198 18.05583 -5.60520
 4.75 7.50  2.944  2.944  2.945  2.947  2.951 18.30942 18.30835 -5.35262
 4.75 7.75  3.183  3.183  3.183  3.185  3.188 18.55732 18.56047 -5.10046
 4.75 8.00  3.422  3.422  3.422  3.423  3.425 18.80557 18.81225 -4.84863
 4.80-2.00 -0.424 -0.424 -0.424 -0.422 -0.418  8.77750  8.73949-14.92154
 4.80-1.50 -0.423 -0.423 -0.423 -0.420 -0.415  9.27738  9.23955-14.42148
 4.80-1.00 -0.420 -0.420 -0.420 -0.419 -0.413  9.77750  9.73957-13.92154
 4.80-0.50 -0.418 -0.418 -0.417 -0.414 -0.409 10.27738 10.23955-13.42148
 4.80 0.00 -0.413 -0.413 -0.412 -0.410 -0.404 10.77743 10.73957-12.92154
 4.80 0.50 -0.407 -0.407 -0.406 -0.403 -0.396 11.27738 11.23955-12.42148
 4.80 1.00 -0.398 -0.398 -0.398 -0.395 -0.387 11.77743 11.73957-11.92154
 4.80 1.25 -0.394 -0.394 -0.392 -0.389 -0.381 12.02740 11.98956-11.67145
 4.80 1.50 -0.388 -0.388 -0.387 -0.384 -0.374 12.27738 12.23955-11.42136
 4.80 1.75 -0.383 -0.383 -0.382 -0.378 -0.368 12.52736 12.48960-11.17127
 4.80 2.00 -0.377 -0.377 -0.376 -0.372 -0.361 12.77736 12.73965-10.92118
 4.80 2.25 -0.371 -0.371 -0.369 -0.365 -0.354 13.02737 12.98960-10.67127
 4.80 2.50 -0.363 -0.363 -0.362 -0.357 -0.345 13.27738 13.23955-10.42136
 4.80 2.75 -0.352 -0.352 -0.350 -0.346 -0.333 13.52734 13.48964-10.17127
 4.80 3.00 -0.338 -0.338 -0.336 -0.331 -0.318 13.77728 13.73973 -9.92118
 4.80 3.20 -0.321 -0.321 -0.319 -0.313 -0.299 13.97723 13.93976 -9.72121
 4.80 3.40 -0.299 -0.298 -0.296 -0.290 -0.276 14.17718 14.13979 -9.52123
 4.80 3.60 -0.269 -0.268 -0.266 -0.259 -0.243 14.37715 14.33982 -9.32125
 4.80 3.80 -0.228 -0.227 -0.225 -0.218 -0.200 14.57714 14.53985 -9.12123
 4.80 4.00 -0.176 -0.176 -0.174 -0.166 -0.146 14.77714 14.73989 -8.92118
 4.80 4.20 -0.109 -0.108 -0.105 -0.097 -0.074 14.97705 14.93995 -8.72107
 4.80 4.40 -0.026 -0.025 -0.022 -0.012  0.011 15.17696 15.14001 -8.52096
 4.80 4.60  0.075  0.076  0.080  0.090  0.116 15.37689 15.34009 -8.32089
 4.80 4.80  0.196  0.197  0.200  0.212  0.239 15.57683 15.54019 -8.12085
 4.80 5.00  0.333  0.334  0.337  0.349  0.377 15.77678 15.74028 -7.92082
 4.80 5.20  0.489  0.490  0.494  0.505  0.534 15.97668 15.94038 -7.72064
 4.80 5.40  0.659  0.660  0.663  0.674  0.701 16.17654 16.14049 -7.52044
 4.80 5.60  0.837  0.839  0.841  0.852  0.878 16.37636 16.34067 -7.32023
 4.80 5.80  1.025  1.026  1.028  1.038  1.062 16.57610 16.54097 -7.12000
 4.80 6.00  1.217  1.217  1.220  1.229  1.252 16.77576 16.74139 -6.91973
 4.80 6.25  1.459  1.459  1.462  1.470  1.490 17.02520 16.99208 -6.66906
 4.80 6.50  1.704  1.704  1.707  1.714  1.730 17.27439 17.24304 -6.41805
 4.80 6.75  1.950  1.950  1.951  1.957  1.972 17.52302 17.49444 -6.16662
 4.80 7.00  2.197  2.197  2.198  2.203  2.214 17.77115 17.74632 -5.91471
 4.80 7.25  2.438  2.438  2.439  2.443  2.451 18.01855 17.99900 -5.66204
 4.80 7.50  2.682  2.682  2.683  2.686  2.693 18.26576 18.25188 -5.40916
 4.80 7.75  2.919  2.919  2.919  2.921  2.927 18.51289 18.50484 -5.15619
 4.80 8.00  3.155  3.155  3.155  3.157  3.161 18.75990 18.75793 -4.90309
 4.85-2.00 -0.424 -0.424 -0.423 -0.421 -0.417  8.72746  8.68949-14.97143
 4.85-1.50 -0.420 -0.420 -0.420 -0.419 -0.413  9.22737  9.18949-14.47147
 4.85-1.00 -0.419 -0.419 -0.418 -0.416 -0.410  9.72746  9.68958-13.97143
 4.85-0.50 -0.417 -0.417 -0.416 -0.414 -0.408 10.22737 10.18949-13.47147
 4.85 0.00 -0.414 -0.414 -0.414 -0.411 -0.405 10.72746 10.68958-12.97143
 4.85 0.50 -0.411 -0.410 -0.410 -0.407 -0.400 11.22737 11.18949-12.47147
 4.85 1.00 -0.405 -0.405 -0.403 -0.401 -0.394 11.72746 11.68958-11.97143
 4.85 1.25 -0.400 -0.400 -0.400 -0.396 -0.389 11.97742 11.93953-11.72145
 4.85 1.50 -0.396 -0.396 -0.395 -0.392 -0.384 12.22737 12.18949-11.47147
 4.85 1.75 -0.390 -0.390 -0.389 -0.386 -0.377 12.47738 12.43958-11.22146
 4.85 2.00 -0.383 -0.383 -0.382 -0.378 -0.368 12.72738 12.68966-10.97143
 4.85 2.25 -0.374 -0.374 -0.373 -0.369 -0.359 12.97738 12.93958-10.72139
 4.85 2.50 -0.364 -0.364 -0.363 -0.359 -0.347 13.22737 13.18949-10.47134
 4.85 2.75 -0.354 -0.353 -0.352 -0.347 -0.336 13.47735 13.43962-10.22139
 4.85 3.00 -0.340 -0.340 -0.339 -0.333 -0.321 13.72730 13.68975 -9.97143
 4.85 3.20 -0.329 -0.329 -0.326 -0.322 -0.308 13.92723 13.88976 -9.77134
 4.85 3.40 -0.314 -0.313 -0.312 -0.306 -0.292 14.12715 14.08977 -9.57126
 4.85 3.60 -0.295 -0.294 -0.292 -0.286 -0.271 14.32712 14.28978 -9.37117
 4.85 3.80 -0.270 -0.269 -0.267 -0.261 -0.245 14.52713 14.48981 -9.17109
 4.85 4.00 -0.236 -0.236 -0.234 -0.228 -0.211 14.72713 14.68984 -8.97102
 4.85 4.20 -0.190 -0.190 -0.188 -0.181 -0.164 14.92713 14.88993 -8.77100
 4.85 4.40 -0.133 -0.133 -0.131 -0.123 -0.104 15.12712 15.09001 -8.57097
 4.85 4.60 -0.060 -0.059 -0.057 -0.049 -0.028 15.32708 15.29006 -8.37089
 4.85 4.80  0.032  0.032  0.035  0.043  0.066 15.52699 15.49009 -8.17075
 4.85 5.00  0.139  0.140  0.142  0.152  0.176 15.72689 15.69011 -7.97062
 4.85 5.20  0.269  0.271  0.273  0.283  0.308 15.92677 15.89017 -7.77060
 4.85 5.40  0.414  0.415  0.418  0.428  0.453 16.12666 16.09027 -7.57058
 4.85 5.60  0.576  0.576  0.580  0.589  0.614 16.32655 16.29041 -7.37052
 4.85 5.80  0.751  0.752  0.755  0.763  0.788 16.52643 16.49060 -7.17039
 4.85 6.00  0.934  0.936  0.938  0.946  0.969 16.72632 16.69082 -6.97021
 4.85 6.25  1.172  1.173  1.175  1.183  1.204 16.97600 16.94110 -6.71993
 4.85 6.50  1.414  1.415  1.417  1.424  1.444 17.22557 17.19145 -6.46955
 4.85 6.75  1.655  1.655  1.658  1.664  1.681 17.47505 17.44206 -6.21899
 4.85 7.00  1.902  1.902  1.904  1.910  1.924 17.72436 17.69293 -5.96819
 4.85 7.25  2.141  2.141  2.143  2.148  2.160 17.97313 17.94418 -5.71683
 4.85 7.50  2.385  2.386  2.387  2.391  2.400 18.22141 18.19590 -5.46496
 4.85 7.75  2.624  2.625  2.625  2.628  2.636 18.46914 18.44833 -5.21247
 4.85 8.00  2.865  2.865  2.865  2.868  2.874 18.71634 18.70140 -4.95940
 4.90-2.00 -0.427 -0.427 -0.426 -0.424 -0.420  8.67752  8.63949-15.02145
 4.90-1.50 -0.424 -0.424 -0.423 -0.421 -0.417  9.17754  9.13956-14.52143
 4.90-1.00 -0.419 -0.419 -0.419 -0.418 -0.412  9.67752  9.63949-14.02141
 4.90-0.50 -0.416 -0.415 -0.415 -0.413 -0.407 10.17754 10.13956-13.52143
 4.90 0.00 -0.412 -0.411 -0.411 -0.409 -0.402 10.67742 10.63959-13.02141
 4.90 0.50 -0.408 -0.408 -0.407 -0.405 -0.398 11.17754 11.13956-12.52143
 4.90 1.00 -0.404 -0.404 -0.403 -0.400 -0.392 11.67742 11.63959-12.02141
 4.90 1.25 -0.401 -0.401 -0.400 -0.398 -0.390 11.92734 11.88958-11.77142
 4.90 1.50 -0.398 -0.398 -0.398 -0.395 -0.387 12.17725 12.13956-11.52143
 4.90 1.75 -0.395 -0.395 -0.394 -0.391 -0.382 12.42734 12.38958-11.27140
 4.90 2.00 -0.391 -0.391 -0.389 -0.386 -0.377 12.67743 12.63959-11.02136
 4.90 2.25 -0.384 -0.384 -0.383 -0.379 -0.371 12.92734 12.88958-10.77133
 4.90 2.50 -0.377 -0.377 -0.376 -0.372 -0.362 13.17725 13.13956-10.52129
 4.90 2.75 -0.367 -0.366 -0.364 -0.361 -0.350 13.42729 13.38963-10.27128
 4.90 3.00 -0.354 -0.353 -0.352 -0.347 -0.336 13.67733 13.63969-10.02127
 4.90 3.20 -0.340 -0.340 -0.338 -0.335 -0.322 13.87730 13.83964 -9.82128
 4.90 3.40 -0.326 -0.324 -0.324 -0.319 -0.306 14.07727 14.03959 -9.62129
 4.90 3.60 -0.307 -0.307 -0.305 -0.300 -0.286 14.27725 14.23961 -9.42126
 4.90 3.80 -0.285 -0.285 -0.284 -0.279 -0.263 14.47724 14.43970 -9.22120
 4.90 4.00 -0.259 -0.259 -0.257 -0.252 -0.236 14.67724 14.63978 -9.02114
 4.90 4.20 -0.227 -0.227 -0.225 -0.219 -0.202 14.87713 14.83982 -8.82108
 4.90 4.40 -0.188 -0.187 -0.185 -0.178 -0.160 15.07702 15.03986 -8.62103
 4.90 4.60 -0.136 -0.136 -0.134 -0.127 -0.108 15.27696 15.23992 -8.42098
 4.90 4.80 -0.072 -0.071 -0.069 -0.062 -0.042 15.47696 15.44000 -8.22094
 4.90 5.00  0.006  0.007  0.009  0.015  0.036 15.67697 15.64008 -8.02091
 4.90 5.20  0.105  0.106  0.109  0.117  0.138 15.87685 15.84013 -7.82084
 4.90 5.40  0.222  0.222  0.225  0.233  0.254 16.07673 16.04017 -7.62076
 4.90 5.60  0.357  0.358  0.360  0.368  0.390 16.27664 16.24027 -7.42066
 4.90 5.80  0.511  0.512  0.513  0.521  0.543 16.47658 16.44043 -7.22054
 4.90 6.00  0.676  0.676  0.679  0.687  0.707 16.67651 16.64058 -7.02041
 4.90 6.25  0.901  0.903  0.905  0.911  0.931 16.92633 16.89070 -6.77022
 4.90 6.50  1.137  1.138  1.140  1.146  1.164 17.17609 17.14082 -6.51999
 4.90 6.75  1.371  1.372  1.374  1.380  1.397 17.42583 17.39122 -6.26967
 4.90 7.00  1.618  1.618  1.620  1.625  1.641 17.67550 17.64177 -6.01922
 4.90 7.25  1.857  1.858  1.859  1.863  1.877 17.92492 17.89245 -5.76865
 4.90 7.50  2.100  2.101  2.102  2.106  2.118 18.17406 18.14333 -5.51784
 4.90 7.75  2.337  2.337  2.338  2.341  2.351 18.42283 18.39460 -5.26649
 4.90 8.00  2.577  2.577  2.579  2.581  2.589 18.67126 18.64621 -5.01471
 4.95-2.00 -0.430 -0.430 -0.430 -0.429 -0.426  8.62747  8.58950-15.07145
 4.95-1.50 -0.429 -0.429 -0.428 -0.427 -0.424  9.12743  9.08955-14.57154
 4.95-1.00 -0.426 -0.426 -0.425 -0.424 -0.420  9.62747  9.58950-14.07145
 4.95-0.50 -0.421 -0.421 -0.421 -0.419 -0.415 10.12743 10.08955-13.57154
 4.95 0.00 -0.417 -0.416 -0.415 -0.414 -0.408 10.62747 10.58950-13.07140
 4.95 0.50 -0.410 -0.409 -0.409 -0.407 -0.400 11.12743 11.08955-12.57138
 4.95 1.00 -0.403 -0.403 -0.401 -0.399 -0.391 11.62747 11.58961-12.07140
 4.95 1.25 -0.400 -0.399 -0.398 -0.396 -0.387 11.87745 11.83958-11.82139
 4.95 1.50 -0.396 -0.396 -0.395 -0.391 -0.383 12.12743 12.08955-11.57138
 4.95 1.75 -0.392 -0.392 -0.391 -0.388 -0.378 12.37740 12.33958-11.32136
 4.95 2.00 -0.388 -0.388 -0.387 -0.384 -0.374 12.62737 12.58961-11.07135
 4.95 2.25 -0.384 -0.384 -0.383 -0.379 -0.369 12.87740 12.83958-10.82136
 4.95 2.50 -0.379 -0.379 -0.377 -0.374 -0.363 13.12743 13.08955-10.57138
 4.95 2.75 -0.373 -0.372 -0.371 -0.368 -0.356 13.37742 13.33964-10.32134
 4.95 3.00 -0.364 -0.364 -0.363 -0.359 -0.348 13.62737 13.58973-10.07130
 4.95 3.20 -0.355 -0.354 -0.353 -0.349 -0.338 13.82726 13.78966 -9.87126
 4.95 3.40 -0.343 -0.343 -0.342 -0.338 -0.326 14.02716 13.98959 -9.67123
 4.95 3.60 -0.329 -0.329 -0.327 -0.322 -0.310 14.22714 14.18961 -9.47121
 4.95 3.80 -0.310 -0.310 -0.308 -0.304 -0.290 14.42720 14.38972 -9.27120
 4.95 4.00 -0.288 -0.287 -0.285 -0.280 -0.267 14.62726 14.58984 -9.07119
 4.95 4.20 -0.258 -0.257 -0.257 -0.251 -0.236 14.82720 14.78987 -8.87114
 4.95 4.40 -0.223 -0.223 -0.221 -0.215 -0.200 15.02714 14.98989 -8.67108
 4.95 4.60 -0.181 -0.181 -0.178 -0.173 -0.155 15.22710 15.18993 -8.47103
 4.95 4.80 -0.130 -0.129 -0.127 -0.120 -0.102 15.42708 15.38999 -8.27098
 4.95 5.00 -0.068 -0.067 -0.065 -0.058 -0.039 15.62706 15.59006 -8.07094
 4.95 5.20  0.008  0.008  0.009  0.017  0.036 15.82695 15.79014 -7.87092
 4.95 5.40  0.096  0.097  0.098  0.106  0.126 16.02684 15.99022 -7.67090
 4.95 5.60  0.203  0.204  0.206  0.213  0.233 16.22676 16.19028 -7.47082
 4.95 5.80  0.328  0.328  0.331  0.338  0.357 16.42670 16.39034 -7.27068
 4.95 6.00  0.467  0.468  0.470  0.477  0.495 16.62665 16.59040 -7.07053
 4.95 6.25  0.670  0.670  0.672  0.678  0.697 16.87657 16.84049 -6.82039
 4.95 6.50  0.887  0.888  0.891  0.896  0.912 17.12646 17.09061 -6.57025
 4.95 6.75  1.111  1.112  1.113  1.118  1.133 17.37623 17.34094 -6.32001
 4.95 7.00  1.351  1.352  1.352  1.358  1.371 17.62593 17.59129 -6.06971
 4.95 7.25  1.591  1.591  1.592  1.597  1.609 17.87559 17.84164 -5.81938
 4.95 7.50  1.834  1.834  1.836  1.839  1.851 18.12516 18.09202 -5.56896
 4.95 7.75  2.071  2.072  2.073  2.076  2.086 18.37450 18.34275 -5.31823
 4.95 8.00  2.312  2.312  2.313  2.316  2.325 18.62366 18.59373 -5.06727
 5.00-2.00 -0.431 -0.431 -0.431 -0.430 -0.428  8.57749  8.53958-15.12142
 5.00-1.50 -0.431 -0.431 -0.430 -0.430 -0.427  9.07737  9.03941-14.62142
 5.00-1.00 -0.430 -0.429 -0.429 -0.428 -0.426  9.57749  9.53958-14.12142
 5.00-0.50 -0.428 -0.428 -0.427 -0.427 -0.424 10.07737 10.03941-13.62142
 5.00 0.00 -0.425 -0.424 -0.424 -0.423 -0.419 10.57749 10.53958-13.12142
 5.00 0.50 -0.420 -0.419 -0.419 -0.418 -0.414 11.07737 11.03941-12.62142
 5.00 1.00 -0.413 -0.413 -0.412 -0.410 -0.404 11.57749 11.53958-12.12142
 5.00 1.25 -0.408 -0.408 -0.407 -0.405 -0.398 11.82743 11.78950-11.87142
 5.00 1.50 -0.403 -0.403 -0.401 -0.400 -0.392 12.07737 12.03941-11.62142
 5.00 1.75 -0.396 -0.396 -0.396 -0.394 -0.386 12.32737 12.28950-11.37139
 5.00 2.00 -0.391 -0.390 -0.389 -0.386 -0.377 12.57738 12.53958-11.12136
 5.00 2.25 -0.384 -0.384 -0.383 -0.380 -0.371 12.82737 12.78950-10.87139
 5.00 2.50 -0.377 -0.377 -0.376 -0.373 -0.362 13.07737 13.03941-10.62142
 5.00 2.75 -0.371 -0.371 -0.369 -0.365 -0.354 13.32737 13.28956-10.37136
 5.00 3.00 -0.363 -0.363 -0.362 -0.357 -0.345 13.57738 13.53970-10.12131
 5.00 3.20 -0.356 -0.355 -0.354 -0.350 -0.338 13.77738 13.73977 -9.92128
 5.00 3.40 -0.348 -0.347 -0.346 -0.341 -0.329 13.97737 13.93980 -9.72125
 5.00 3.60 -0.338 -0.337 -0.336 -0.331 -0.318 14.17736 14.13979 -9.52123
 5.00 3.80 -0.324 -0.324 -0.322 -0.318 -0.304 14.37732 14.33975 -9.32121
 5.00 4.00 -0.309 -0.308 -0.307 -0.302 -0.289 14.57726 14.53971 -9.12119
 5.00 4.20 -0.286 -0.286 -0.285 -0.280 -0.266 14.77716 14.73974 -8.92121
 5.00 4.40 -0.259 -0.259 -0.257 -0.253 -0.238 14.97706 14.93979 -8.72123
 5.00 4.60 -0.225 -0.225 -0.223 -0.218 -0.203 15.17703 15.13984 -8.52120
 5.00 4.80 -0.181 -0.181 -0.179 -0.174 -0.158 15.37709 15.33989 -8.32111
 5.00 5.00 -0.130 -0.129 -0.127 -0.122 -0.106 15.57715 15.53995 -8.12102
 5.00 5.20 -0.065 -0.064 -0.063 -0.057 -0.040 15.77710 15.74005 -7.92096
 5.00 5.40  0.010  0.010  0.013  0.019  0.036 15.97704 15.94016 -7.72090
 5.00 5.60  0.100  0.101  0.102  0.109  0.127 16.17696 16.14023 -7.52084
 5.00 5.80  0.204  0.204  0.206  0.213  0.232 16.37688 16.34028 -7.32076
 5.00 6.00  0.322  0.323  0.325  0.331  0.350 16.57680 16.54033 -7.12068
 5.00 6.25  0.496  0.496  0.498  0.503  0.521 16.82672 16.79045 -6.87059
 5.00 6.50  0.688  0.688  0.689  0.695  0.711 17.07664 17.04060 -6.62051
 5.00 6.75  0.900  0.900  0.901  0.907  0.921 17.32638 17.29077 -6.37026
 5.00 7.00  1.118  1.118  1.120  1.124  1.137 17.57611 17.54095 -6.11999
 5.00 7.25  1.353  1.354  1.355  1.359  1.370 17.82584 17.79115 -5.86971
 5.00 7.50  1.592  1.593  1.594  1.597  1.607 18.07555 18.04139 -5.61943
 5.00 7.75  1.831  1.831  1.832  1.835  1.844 18.32517 18.29189 -5.36899
 5.00 8.00  2.072  2.072  2.072  2.076  2.083 18.57473 18.54258 -5.11844
 5.05-2.00 -0.429 -0.429 -0.429 -0.428 -0.426  8.52750  8.48954-15.17147
 5.05-1.50 -0.429 -0.429 -0.429 -0.428 -0.426  9.02735  8.98949-14.67142
 5.05-1.00 -0.429 -0.429 -0.428 -0.428 -0.426  9.52750  9.48954-14.17140
 5.05-0.50 -0.428 -0.428 -0.428 -0.427 -0.425 10.02735  9.98950-13.67142
 5.05 0.00 -0.427 -0.427 -0.427 -0.426 -0.424 10.52750 10.48954-13.17140
 5.05 0.50 -0.425 -0.425 -0.424 -0.424 -0.421 11.02735 10.98949-12.67142
 5.05 1.00 -0.421 -0.421 -0.421 -0.419 -0.417 11.52750 11.48954-12.17140
 5.05 1.25 -0.419 -0.419 -0.419 -0.417 -0.413 11.77743 11.73954-11.92141
 5.05 1.50 -0.415 -0.415 -0.415 -0.414 -0.409 12.02735 11.98954-11.67142
 5.05 1.75 -0.411 -0.411 -0.410 -0.409 -0.404 12.27736 12.23954-11.42141
 5.05 2.00 -0.406 -0.406 -0.405 -0.403 -0.398 12.52737 12.48954-11.17140
 5.05 2.25 -0.400 -0.400 -0.398 -0.396 -0.389 12.77736 12.73955-10.92141
 5.05 2.50 -0.391 -0.391 -0.391 -0.388 -0.381 13.02735 12.98958-10.67142
 5.05 2.75 -0.382 -0.382 -0.381 -0.378 -0.369 13.27736 13.23963-10.42138
 5.05 3.00 -0.372 -0.372 -0.371 -0.367 -0.357 13.52737 13.48968-10.17134
 5.05 3.20 -0.363 -0.362 -0.361 -0.358 -0.347 13.72737 13.68966 -9.97137
 5.05 3.40 -0.352 -0.352 -0.351 -0.347 -0.336 13.92736 13.88964 -9.77140
 5.05 3.60 -0.341 -0.340 -0.340 -0.336 -0.323 14.12733 14.08963 -9.57138
 5.05 3.80 -0.329 -0.329 -0.327 -0.323 -0.309 14.32729 14.28965 -9.37129
 5.05 4.00 -0.315 -0.314 -0.313 -0.308 -0.294 14.52724 14.48968 -9.17121
 5.05 4.20 -0.299 -0.298 -0.296 -0.291 -0.276 14.72729 14.68971 -8.97121
 5.05 4.40 -0.277 -0.276 -0.275 -0.270 -0.255 14.92733 14.88974 -8.77121
 5.05 4.60 -0.251 -0.250 -0.249 -0.243 -0.228 15.12730 15.08980 -8.57119
 5.05 4.80 -0.218 -0.218 -0.215 -0.210 -0.195 15.32721 15.28988 -8.37113
 5.05 5.00 -0.177 -0.176 -0.175 -0.170 -0.155 15.52711 15.48996 -8.17108
 5.05 5.20 -0.124 -0.124 -0.123 -0.117 -0.102 15.72704 15.68997 -7.97105
 5.05 5.40 -0.062 -0.062 -0.060 -0.055 -0.039 15.92697 15.88998 -7.77102
 5.05 5.60  0.013  0.013  0.014  0.020  0.036 16.12692 16.09003 -7.57096
 5.05 5.80  0.103  0.103  0.104  0.110  0.126 16.32689 16.29014 -7.37086
 5.05 6.00  0.206  0.207  0.208  0.213  0.229 16.52686 16.49024 -7.17076
 5.05 6.25  0.360  0.360  0.362  0.367  0.384 16.77670 16.74034 -6.92068
 5.05 6.50  0.535  0.535  0.537  0.542  0.557 17.02653 16.99043 -6.67060
 5.05 6.75  0.732  0.733  0.734  0.738  0.752 17.27644 17.24061 -6.42039
 5.05 7.00  0.933  0.933  0.933  0.938  0.950 17.52634 17.49080 -6.17018
 5.05 7.25  1.156  1.156  1.157  1.161  1.171 17.77603 17.74100 -5.91999
 5.05 7.50  1.387  1.387  1.388  1.391  1.400 18.02572 17.99123 -5.66979
 5.05 7.75  1.621  1.621  1.622  1.625  1.632 18.27548 18.24154 -5.41945
 5.05 8.00  1.858  1.859  1.859  1.861  1.868 18.52530 18.49192 -5.16903
 5.10-2.00 -0.423 -0.423 -0.423 -0.423 -0.421  8.47756  8.43949-15.22142
 5.10-1.50 -0.424 -0.423 -0.423 -0.423 -0.421  8.97745  8.93947-14.72148
 5.10-1.00 -0.423 -0.423 -0.423 -0.423 -0.421  9.47741  9.43949-14.22141
 5.10-0.50 -0.423 -0.423 -0.423 -0.423 -0.421  9.97745  9.93947-13.72148
 5.10 0.00 -0.423 -0.423 -0.423 -0.422 -0.420 10.47741 10.43949-13.22141
 5.10 0.50 -0.422 -0.422 -0.422 -0.421 -0.419 10.97745 10.93952-12.72147
 5.10 1.00 -0.420 -0.420 -0.420 -0.420 -0.418 11.47741 11.43949-12.22142
 5.10 1.25 -0.419 -0.419 -0.419 -0.419 -0.416 11.72740 11.68950-11.97145
 5.10 1.50 -0.418 -0.418 -0.418 -0.417 -0.414 11.97740 11.93952-11.72148
 5.10 1.75 -0.417 -0.416 -0.415 -0.414 -0.411 12.22741 12.18958-11.47145
 5.10 2.00 -0.414 -0.414 -0.414 -0.413 -0.409 12.47741 12.43965-11.22142
 5.10 2.25 -0.410 -0.410 -0.410 -0.409 -0.405 12.72738 12.68961-10.97145
 5.10 2.50 -0.406 -0.406 -0.405 -0.404 -0.400 12.97736 12.93957-10.72148
 5.10 2.75 -0.400 -0.400 -0.400 -0.398 -0.392 13.22738 13.18961-10.47141
 5.10 3.00 -0.393 -0.392 -0.392 -0.391 -0.384 13.47741 13.43965-10.22134
 5.10 3.20 -0.385 -0.385 -0.384 -0.382 -0.376 13.67737 13.63964-10.02130
 5.10 3.40 -0.376 -0.376 -0.375 -0.373 -0.365 13.87733 13.83963 -9.82126
 5.10 3.60 -0.365 -0.365 -0.364 -0.361 -0.353 14.07730 14.03962 -9.62125
 5.10 3.80 -0.352 -0.352 -0.351 -0.347 -0.338 14.27728 14.23963 -9.42126
 5.10 4.00 -0.336 -0.336 -0.335 -0.331 -0.321 14.47727 14.43965 -9.22127
 5.10 4.20 -0.318 -0.318 -0.317 -0.313 -0.301 14.67725 14.63967 -9.02127
 5.10 4.40 -0.297 -0.296 -0.295 -0.291 -0.278 14.87723 14.83970 -8.82126
 5.10 4.60 -0.272 -0.271 -0.271 -0.266 -0.251 15.07720 15.03974 -8.62122
 5.10 4.80 -0.243 -0.242 -0.241 -0.236 -0.220 15.27716 15.23977 -8.42118
 5.10 5.00 -0.206 -0.206 -0.204 -0.199 -0.183 15.47712 15.43981 -8.22113
 5.10 5.20 -0.164 -0.163 -0.162 -0.156 -0.141 15.67709 15.63985 -8.02108
 5.10 5.40 -0.112 -0.111 -0.110 -0.104 -0.088 15.87705 15.83989 -7.82104
 5.10 5.60 -0.049 -0.049 -0.046 -0.042 -0.025 16.07702 16.03996 -7.62099
 5.10 5.80  0.025  0.026  0.027  0.032  0.047 16.27700 16.24004 -7.42092
 5.10 6.00  0.112  0.112  0.113  0.119  0.133 16.47698 16.44012 -7.22084
 5.10 6.25  0.245  0.246  0.247  0.252  0.266 16.72682 16.69022 -6.97070
 5.10 6.50  0.400  0.400  0.401  0.406  0.419 16.97667 16.94032 -6.72056
 5.10 6.75  0.583  0.584  0.585  0.589  0.601 17.22661 17.19045 -6.47045
 5.10 7.00  0.777  0.778  0.779  0.783  0.794 17.47654 17.44059 -6.22033
 5.10 7.25  0.991  0.991  0.992  0.995  1.005 17.72632 17.69076 -5.97011
 5.10 7.50  1.217  1.217  1.218  1.221  1.230 17.97607 17.94096 -5.71988
 5.10 7.75  1.445  1.445  1.446  1.448  1.457 18.22581 18.19123 -5.46964
 5.10 8.00  1.678  1.678  1.678  1.681  1.687 18.47553 18.44154 -5.21940
 5.15-2.00 -0.414 -0.414 -0.414 -0.414 -0.412  8.42749  8.38952-15.27148
 5.15-1.50 -0.414 -0.414 -0.414 -0.414 -0.412  8.92747  8.88947-14.77160
 5.15-1.00 -0.414 -0.414 -0.414 -0.414 -0.412  9.42749  9.38952-14.27140
 5.15-0.50 -0.414 -0.414 -0.414 -0.414 -0.412  9.92742  9.88947-13.77160
 5.15 0.00 -0.414 -0.414 -0.414 -0.414 -0.412 10.42749 10.38952-13.27140
 5.15 0.50 -0.414 -0.414 -0.414 -0.414 -0.411 10.92742 10.88953-12.77134
 5.15 1.00 -0.414 -0.414 -0.414 -0.413 -0.411 11.42749 11.38952-12.27140
 5.15 1.25 -0.413 -0.413 -0.413 -0.413 -0.410 11.67745 11.63952-12.02137
 5.15 1.50 -0.413 -0.413 -0.413 -0.411 -0.410 11.92742 11.88953-11.77134
 5.15 1.75 -0.411 -0.411 -0.411 -0.410 -0.409 12.17745 12.13952-11.52137
 5.15 2.00 -0.410 -0.410 -0.410 -0.410 -0.407 12.42749 12.38952-11.27140
 5.15 2.25 -0.409 -0.409 -0.409 -0.408 -0.405 12.67743 12.63952-11.02137
 5.15 2.50 -0.407 -0.407 -0.406 -0.406 -0.404 12.92737 12.88953-10.77134
 5.15 2.75 -0.404 -0.404 -0.404 -0.403 -0.400 13.17734 13.13961-10.52133
 5.15 3.00 -0.401 -0.401 -0.400 -0.399 -0.396 13.42732 13.38970-10.27132
 5.15 3.20 -0.396 -0.396 -0.396 -0.395 -0.391 13.62732 13.58967-10.07133
 5.15 3.40 -0.391 -0.391 -0.391 -0.389 -0.386 13.82732 13.78965 -9.87134
 5.15 3.60 -0.386 -0.386 -0.384 -0.383 -0.378 14.02732 13.98965 -9.67132
 5.15 3.80 -0.377 -0.377 -0.377 -0.375 -0.369 14.22732 14.18967 -9.47128
 5.15 4.00 -0.368 -0.368 -0.367 -0.364 -0.358 14.42733 14.38970 -9.27124
 5.15 4.20 -0.354 -0.354 -0.353 -0.350 -0.343 14.62728 14.58970 -9.07128
 5.15 4.40 -0.338 -0.336 -0.336 -0.333 -0.325 14.82724 14.78970 -8.87132
 5.15 4.60 -0.316 -0.316 -0.315 -0.312 -0.302 15.02721 14.98973 -8.67131
 5.15 4.80 -0.289 -0.289 -0.288 -0.284 -0.273 15.22718 15.18980 -8.47123
 5.15 5.00 -0.255 -0.255 -0.254 -0.250 -0.238 15.42716 15.38988 -8.27116
 5.15 5.20 -0.215 -0.215 -0.213 -0.209 -0.196 15.62712 15.58989 -8.07113
 5.15 5.40 -0.166 -0.166 -0.164 -0.160 -0.145 15.82708 15.78991 -7.87110
 5.15 5.60 -0.108 -0.108 -0.106 -0.101 -0.086 16.02705 15.98994 -7.67105
 5.15 5.80 -0.041 -0.040 -0.038 -0.034 -0.019 16.22702 16.18999 -7.47098
 5.15 6.00  0.038  0.038  0.039  0.045  0.060 16.42700 16.39005 -7.27092
 5.15 6.25  0.153  0.154  0.155  0.160  0.175 16.67688 16.64012 -7.02087
 5.15 6.50  0.289  0.289  0.291  0.295  0.309 16.92675 16.89020 -6.77083
 5.15 6.75  0.451  0.452  0.453  0.457  0.470 17.17663 17.14039 -6.52063
 5.15 7.00  0.633  0.633  0.635  0.638  0.649 17.42651 17.39058 -6.27043
 5.15 7.25  0.830  0.831  0.831  0.835  0.844 17.67638 17.64070 -6.02025
 5.15 7.50  1.049  1.049  1.049  1.052  1.059 17.92624 17.89081 -5.77006
 5.15 7.75  1.275  1.275  1.276  1.277  1.284 18.17606 18.14102 -5.51985
 5.15 8.00  1.506  1.506  1.506  1.508  1.514 18.42586 18.39129 -5.26962
 5.20-2.00 -0.400 -0.400 -0.400 -0.400 -0.399  8.37749  8.33945-15.32148
 5.20-1.50 -0.400 -0.400 -0.400 -0.400 -0.399  8.87743  8.83948-14.82160
 5.20-1.00 -0.400 -0.400 -0.400 -0.400 -0.399  9.37749  9.33945-14.32148
 5.20-0.50 -0.400 -0.400 -0.400 -0.400 -0.399  9.87743  9.83948-13.82160
 5.20 0.00 -0.400 -0.400 -0.400 -0.400 -0.399 10.37749 10.33945-13.32139
 5.20 0.50 -0.400 -0.400 -0.400 -0.400 -0.399 10.87743 10.83948-12.82160
 5.20 1.00 -0.400 -0.400 -0.400 -0.400 -0.399 11.37749 11.33945-12.32139
 5.20 1.25 -0.400 -0.400 -0.400 -0.400 -0.398 11.62746 11.58949-12.07133
 5.20 1.50 -0.400 -0.400 -0.400 -0.400 -0.398 11.87743 11.83954-11.82131
 5.20 1.75 -0.400 -0.400 -0.400 -0.400 -0.397 12.12746 12.08960-11.57135
 5.20 2.00 -0.400 -0.400 -0.400 -0.399 -0.397 12.37749 12.33965-11.32139
 5.20 2.25 -0.399 -0.399 -0.399 -0.398 -0.396 12.62743 12.58960-11.07135
 5.20 2.50 -0.398 -0.398 -0.398 -0.397 -0.396 12.87737 12.83954-10.82131
 5.20 2.75 -0.396 -0.396 -0.396 -0.396 -0.394 13.12743 13.08960-10.57135
 5.20 3.00 -0.395 -0.395 -0.395 -0.394 -0.392 13.37749 13.33965-10.32139
 5.20 3.20 -0.393 -0.393 -0.393 -0.392 -0.390 13.57744 13.53963-10.12136
 5.20 3.40 -0.391 -0.391 -0.391 -0.389 -0.387 13.77740 13.73961 -9.92133
 5.20 3.60 -0.387 -0.387 -0.387 -0.387 -0.384 13.97736 13.93961 -9.72131
 5.20 3.80 -0.384 -0.384 -0.382 -0.382 -0.378 14.17733 14.13963 -9.52130
 5.20 4.00 -0.378 -0.378 -0.377 -0.377 -0.373 14.37731 14.33965 -9.32130
 5.20 4.20 -0.370 -0.370 -0.370 -0.368 -0.364 14.57728 14.53966 -9.12130
 5.20 4.40 -0.360 -0.360 -0.360 -0.359 -0.354 14.77727 14.73966 -8.92131
 5.20 4.60 -0.348 -0.348 -0.347 -0.345 -0.340 14.97727 14.93970 -8.72130
 5.20 4.80 -0.331 -0.331 -0.329 -0.327 -0.321 15.17729 15.13978 -8.52126
 5.20 5.00 -0.309 -0.308 -0.308 -0.306 -0.298 15.37731 15.33985 -8.32121
 5.20 5.20 -0.278 -0.278 -0.277 -0.275 -0.266 15.57724 15.53985 -8.12113
 5.20 5.40 -0.240 -0.240 -0.238 -0.236 -0.226 15.77717 15.73985 -7.92106
 5.20 5.60 -0.191 -0.190 -0.190 -0.186 -0.176 15.97714 15.93989 -7.72101
 5.20 5.80 -0.130 -0.130 -0.129 -0.125 -0.113 16.17713 16.13997 -7.52097
 5.20 6.00 -0.056 -0.056 -0.056 -0.051 -0.038 16.37712 16.34005 -7.32094
 5.20 6.25  0.050  0.052  0.053  0.057  0.069 16.62699 16.59011 -7.07084
 5.20 6.50  0.181  0.181  0.183  0.186  0.200 16.87685 16.84017 -6.82074
 5.20 6.75  0.329  0.331  0.331  0.336  0.348 17.12681 17.09031 -6.57065
 5.20 7.00  0.499  0.499  0.501  0.504  0.516 17.37676 17.34044 -6.32057
 5.20 7.25  0.681  0.681  0.682  0.685  0.695 17.62658 17.59056 -6.07051
 5.20 7.50  0.886  0.886  0.887  0.890  0.897 17.87639 17.84067 -5.82045
 5.20 7.75  1.103  1.103  1.104  1.106  1.112 18.12621 18.09084 -5.57021
 5.20 8.00  1.328  1.328  1.329  1.330  1.335 18.37603 18.34104 -5.31985
 5.25-2.00 -0.380 -0.380 -0.380 -0.380 -0.378  8.32756  8.28959-15.37141
 5.25-1.50 -0.380 -0.380 -0.380 -0.380 -0.378  8.82743  8.78951-14.87160
 5.25-1.00 -0.380 -0.380 -0.380 -0.380 -0.378  9.32756  9.28959-14.37141
 5.25-0.50 -0.380 -0.380 -0.380 -0.380 -0.378  9.82743  9.78951-13.87160
 5.25 0.00 -0.380 -0.380 -0.380 -0.380 -0.378 10.32756 10.28959-13.37141
 5.25 0.50 -0.380 -0.380 -0.380 -0.380 -0.378 10.82743 10.78951-12.87160
 5.25 1.00 -0.380 -0.380 -0.380 -0.380 -0.378 11.32756 11.28959-12.37141
 5.25 1.25 -0.380 -0.380 -0.380 -0.380 -0.378 11.57750 11.53955-12.12150
 5.25 1.50 -0.380 -0.380 -0.380 -0.380 -0.378 11.82743 11.78951-11.87160
 5.25 1.75 -0.380 -0.380 -0.380 -0.380 -0.378 12.07739 12.03955-11.62150
 5.25 2.00 -0.380 -0.380 -0.380 -0.379 -0.378 12.32736 12.28959-11.37141
 5.25 2.25 -0.380 -0.380 -0.380 -0.379 -0.378 12.57740 12.53955-11.12133
 5.25 2.50 -0.380 -0.379 -0.379 -0.379 -0.377 12.82743 12.78951-10.87128
 5.25 2.75 -0.379 -0.379 -0.379 -0.378 -0.377 13.07740 13.03955-10.62134
 5.25 3.00 -0.378 -0.378 -0.378 -0.378 -0.376 13.32736 13.28959-10.37141
 5.25 3.20 -0.377 -0.377 -0.377 -0.377 -0.375 13.52736 13.48959-10.17136
 5.25 3.40 -0.377 -0.376 -0.376 -0.375 -0.374 13.72737 13.68958 -9.97130
 5.25 3.60 -0.375 -0.375 -0.375 -0.374 -0.372 13.92737 13.88958 -9.77128
 5.25 3.80 -0.373 -0.373 -0.373 -0.372 -0.370 14.12737 14.08958 -9.57129
 5.25 4.00 -0.370 -0.370 -0.370 -0.368 -0.366 14.32736 14.28959 -9.37130
 5.25 4.20 -0.366 -0.366 -0.366 -0.364 -0.362 14.52734 14.48961 -9.17130
 5.25 4.40 -0.360 -0.360 -0.360 -0.359 -0.356 14.72732 14.68964 -8.97129
 5.25 4.60 -0.353 -0.353 -0.353 -0.351 -0.349 14.92732 14.88968 -8.77126
 5.25 4.80 -0.342 -0.342 -0.342 -0.341 -0.337 15.12734 15.08975 -8.57123
 5.25 5.00 -0.329 -0.329 -0.329 -0.328 -0.324 15.32736 15.28981 -8.37120
 5.25 5.20 -0.310 -0.310 -0.310 -0.308 -0.303 15.52729 15.48980 -8.17123
 5.25 5.40 -0.285 -0.285 -0.285 -0.283 -0.278 15.72721 15.68980 -7.97126
 5.25 5.60 -0.252 -0.252 -0.252 -0.250 -0.243 15.92717 15.88984 -7.77122
 5.25 5.80 -0.209 -0.208 -0.208 -0.206 -0.199 16.12716 16.08994 -7.57111
 5.25 6.00 -0.153 -0.153 -0.152 -0.150 -0.141 16.32715 16.29004 -7.37100
 5.25 6.25 -0.064 -0.063 -0.062 -0.060 -0.050 16.57704 16.54006 -7.12098
 5.25 6.50  0.049  0.049  0.050  0.054  0.063 16.82692 16.79008 -6.87096
 5.25 6.75  0.188  0.189  0.190  0.192  0.202 17.07683 17.04016 -6.62084
 5.25 7.00  0.350  0.351  0.351  0.355  0.364 17.32675 17.29026 -6.37069
 5.25 7.25  0.530  0.530  0.531  0.535  0.543 17.57665 17.54037 -6.12050
 5.25 7.50  0.725  0.725  0.725  0.729  0.737 17.82653 17.79050 -5.87031
 5.25 7.75  0.933  0.933  0.933  0.936  0.943 18.07635 18.04069 -5.62018
 5.25 8.00  1.151  1.151  1.151  1.153  1.159 18.32613 18.29092 -5.37008
 5.30-2.00 -0.353 -0.353 -0.353 -0.352 -0.351  8.27738  8.23955-15.42148
 5.30-1.50 -0.353 -0.353 -0.353 -0.352 -0.352  8.77743  8.73949-14.92154
 5.30-1.00 -0.353 -0.353 -0.353 -0.352 -0.351  9.27738  9.23955-14.42148
 5.30-0.50 -0.353 -0.353 -0.353 -0.352 -0.352  9.77743  9.73949-13.92154
 5.30 0.00 -0.353 -0.353 -0.353 -0.352 -0.351 10.27738 10.23955-13.42148
 5.30 0.50 -0.353 -0.353 -0.353 -0.352 -0.352 10.77743 10.73949-12.92154
 5.30 1.00 -0.353 -0.353 -0.353 -0.352 -0.352 11.27738 11.23955-12.42148
 5.30 1.25 -0.353 -0.353 -0.353 -0.352 -0.352 11.52740 11.48952-12.17151
 5.30 1.50 -0.353 -0.353 -0.353 -0.352 -0.352 11.77743 11.73949-11.92154
 5.30 1.75 -0.353 -0.353 -0.353 -0.352 -0.352 12.02740 11.98952-11.67145
 5.30 2.00 -0.353 -0.353 -0.353 -0.352 -0.352 12.27738 12.23955-11.42136
 5.30 2.25 -0.353 -0.353 -0.353 -0.352 -0.351 12.52740 12.48952-11.17145
 5.30 2.50 -0.353 -0.353 -0.352 -0.352 -0.351 12.77743 12.73949-10.92154
 5.30 2.75 -0.352 -0.352 -0.352 -0.352 -0.350 13.02740 12.98952-10.67145
 5.30 3.00 -0.352 -0.352 -0.352 -0.352 -0.350 13.27738 13.23955-10.42136
 5.30 3.20 -0.352 -0.352 -0.352 -0.352 -0.350 13.47737 13.43956-10.22143
 5.30 3.40 -0.352 -0.352 -0.352 -0.351 -0.350 13.67736 13.63957-10.02151
 5.30 3.60 -0.350 -0.350 -0.350 -0.350 -0.349 13.87736 13.83957 -9.82151
 5.30 3.80 -0.350 -0.350 -0.350 -0.350 -0.347 14.07737 14.03956 -9.62143
 5.30 4.00 -0.349 -0.349 -0.349 -0.347 -0.347 14.27738 14.23955 -9.42136
 5.30 4.20 -0.346 -0.345 -0.345 -0.345 -0.343 14.47734 14.43958 -9.22129
 5.30 4.40 -0.343 -0.343 -0.343 -0.342 -0.340 14.67730 14.63963 -9.02122
 5.30 4.60 -0.338 -0.338 -0.338 -0.338 -0.336 14.87730 14.83968 -8.82119
 5.30 4.80 -0.332 -0.332 -0.332 -0.331 -0.329 15.07734 15.03974 -8.62122
 5.30 5.00 -0.325 -0.325 -0.325 -0.323 -0.321 15.27738 15.23980 -8.42125
 5.30 5.20 -0.312 -0.312 -0.312 -0.311 -0.308 15.47731 15.43981 -8.22123
 5.30 5.40 -0.296 -0.296 -0.296 -0.294 -0.292 15.67724 15.63981 -8.02120
 5.30 5.60 -0.275 -0.275 -0.274 -0.273 -0.270 15.87720 15.83981 -7.82115
 5.30 5.80 -0.245 -0.245 -0.245 -0.243 -0.239 16.07718 16.03980 -7.62109
 5.30 6.00 -0.208 -0.208 -0.208 -0.206 -0.201 16.27715 16.23980 -7.42102
 5.30 6.25 -0.144 -0.143 -0.143 -0.141 -0.135 16.52707 16.48986 -7.17092
 5.30 6.50 -0.058 -0.058 -0.057 -0.055 -0.049 16.77699 16.73997 -6.92082
 5.30 6.75  0.054  0.054  0.054  0.057  0.064 17.02696 16.99014 -6.67080
 5.30 7.00  0.192  0.192  0.193  0.196  0.203 17.27692 17.24030 -6.42079
 5.30 7.25  0.359  0.359  0.359  0.362  0.368 17.52678 17.49037 -6.17062
 5.30 7.50  0.541  0.541  0.542  0.544  0.551 17.77663 17.74044 -5.92046
 5.30 7.75  0.745  0.745  0.745  0.747  0.753 18.02653 17.99059 -5.67033
 5.30 8.00  0.959  0.961  0.961  0.962  0.968 18.27646 18.24080 -5.42022
